targetX,cueOri,congr,corrAns,pin_cue,pin_target,block.thisRepN,block.thisTrialN,block.thisN,block.thisIndex,posner_task.thisRepN,posner_task.thisTrialN,posner_task.thisN,posner_task.thisIndex,port_start_block.started,port_start_block.stopped,text_2.started,text_2.stopped,p_port.started,p_port.stopped,text.started,text.stopped,fixation_1.started,fixation_1.stopped,fixation_2.started,fixation_2.stopped,cue.started,cue.stopped,target.started,target.stopped,correct_key_resp.keys,correct_key_resp.corr,correct_key_resp.rt,correct_key_resp.started,correct_key_resp.stopped,early_resp.keys,early_resp.started,early_resp.stopped,trigger_cue.started,trigger_cue.stopped,trigger_target.started,trigger_target.stopped,early_resp.rt,break_text.started,break_text.stopped,end_port.started,end_port.stopped,participant,session,date,expName,psychopyVersion,frameRate,
0.5,0,0,right,1,4,0,0,0,0,0,0,0,3,1.8200000340584666e-05,0.09539410000070347,20.269778800000495,None,1.4600000213249587e-05,0.0995468000000983,22.15542330000062,None,22.49828619999971,23.006862000000183,23.707578499999727,None,23.006862000000183,23.707578499999727,24.2082606999993,None,right,1,0.2422022000009747,24.2082606999993,None,None,23.006862000000183,24.2082606999993,0.5014038999997865,0.6015680999989854,1.7027925999991567,1.8028372999997373,,,,,,oren_3,001,2020_Jan_29_1337,posner,3.1.5,59.873320029158215,
0.5,180,1,right,2,4,0,0,0,0,0,1,1,6,,,,,,,,,24.477469600000404,24.975999300000694,25.693637300000773,None,24.992755499999475,25.676852200000212,26.194350199999462,None,right,1,0.20819140000094194,26.194350199999462,None,None,24.992755499999475,26.177482600000076,0.5099004000003333,0.5933738000003359,1.7113717000011093,1.7949540999998135,,,,,,oren_3,001,2020_Jan_29_1337,posner,3.1.5,59.873320029158215,
-0.5,0,1,left,1,3,0,0,0,0,0,2,2,2,,,,,,,,,26.42809920000036,26.92877950000002,27.646456899999976,None,26.945418100000097,27.62952310000037,28.147034400000848,None,left,1,0.20741760000055365,28.147034400000848,None,None,26.945418100000097,28.13053039999977,0.5114967999998044,0.5948363000006793,1.7132344000001467,1.79666189999989,,,,,,oren_3,001,2020_Jan_29_1337,posner,3.1.5,59.873320029158215,
0.5,180,1,right,2,4,0,0,0,0,0,3,3,7,,,,,,,,,28.3810541999992,28.881454000000303,29.598991599999863,None,28.898074000000634,29.582444499999838,30.099834000000556,None,right,1,0.14267319999999017,30.099834000000556,None,None,28.898074000000634,30.083219300000565,0.5121349999990343,0.5957361000000674,1.7138894999989134,1.797123599999395,,,,,,oren_3,001,2020_Jan_29_1337,posner,3.1.5,59.873320029158215,
-0.5,180,0,left,2,3,0,0,0,0,0,4,4,4,,,,,,,,,30.267056099999536,30.76733299999978,31.485045999999784,None,30.78417950000039,31.46838100000059,31.98587679999946,None,left,1,0.2566748000008374,31.98587679999946,None,None,30.78417950000039,31.969123099999706,0.5120434000000387,0.5955593000016961,1.71382420000009,1.7971623000012187,,,,,,oren_3,001,2020_Jan_29_1337,posner,3.1.5,59.873320029158215,
-0.5,0,1,left,1,3,0,0,0,0,0,5,5,0,,,,,,,,,32.270215599999574,32.77050969999982,33.487748999999894,None,32.78674719999981,33.47128530000009,33.98837950000052,None,left,1,0.25408969999989495,33.98837950000052,None,None,32.78674719999981,33.97200449999946,0.512077199999112,0.59520909999992,1.7135610000004817,1.7967618000002403,,,,,,oren_3,001,2020_Jan_29_1337,posner,3.1.5,59.873320029158215,
-0.5,0,1,left,1,3,0,0,0,0,0,6,6,1,,,,,,,,,34.27262530000007,34.77307810000093,35.49060230000032,None,34.78955580000002,35.474071299999196,35.99119679999967,None,left,1,0.18735019999985525,35.99119679999967,None,None,34.78955580000002,35.97488909999993,0.5117554000007658,0.5950240000001941,1.7135534000008192,1.7965428000006796,,,,,,oren_3,001,2020_Jan_29_1337,posner,3.1.5,59.873320029158215,
0.5,180,1,right,2,4,0,0,0,0,0,7,7,5,,,,,,,,,36.208586700000524,36.708861299999626,37.42662070000006,None,36.725637699999425,37.41046180000012,37.927205399999366,None,right,1,0.10738630000014382,37.927205399999366,None,None,36.725637699999425,37.91088189999937,0.5114456999999675,0.5949608999999327,1.713444899998649,1.7966157999999268,,,,,,oren_3,001,2020_Jan_29_1337,posner,3.1.5,59.873320029158215,
0.5,180,1,right,2,4,0,0,0,0,1,0,8,7,,,,,,,,,38.06165610000062,38.561474899999666,39.27904689999923,None,38.57818550000047,39.26254479999989,39.779777199999444,None,right,1,0.20682940000006056,39.779777199999444,None,None,38.57818550000047,39.76314300000013,0.5115697000001092,0.595014500000616,1.713224999999511,1.7965636999997514,,,,,,oren_3,001,2020_Jan_29_1337,posner,3.1.5,59.873320029158215,
-0.5,0,1,left,1,3,0,0,0,0,1,1,9,0,,,,,,,,,40.01409919999969,40.51416280000012,41.231930199999624,None,40.53097390000039,41.21527050000077,41.732565300000715,None,left,1,0.44593149999855086,41.732565300000715,None,None,40.53097390000039,41.71596049999971,0.5116508999999496,0.5950993999995262,1.713425100000677,1.7967186999994738,,,,,,oren_3,001,2020_Jan_29_1337,posner,3.1.5,59.873320029158215,
0.5,0,0,right,1,4,0,0,0,0,1,2,10,3,,,,,,,,,42.199714099999255,42.70046299999922,43.418046000000686,None,42.71707199999946,43.40163840000059,43.91885050000019,None,left,0,0.259708599998703,43.91885050000019,None,None,42.71707199999946,43.90224160000071,0.5114827999987028,0.595049999999901,1.7132397999994282,1.7967840999990585,,,,,,oren_3,001,2020_Jan_29_1337,posner,3.1.5,59.873320029158215,
0.5,180,1,right,2,4,0,0,0,0,1,3,11,5,,,,,,,,,44.20349290000013,44.70319329999984,45.421202800000174,None,44.720205600000554,45.40413670000089,45.92174669999986,None,right,1,0.2249413999998069,45.92174669999986,None,None,44.720205600000554,45.90500229999998,0.5114885000002687,0.5950018000003183,1.7132756999999401,1.7965693999994983,,,,,,oren_3,001,2020_Jan_29_1337,posner,3.1.5,59.873320029158215,
0.5,180,1,right,2,4,0,0,0,0,1,4,12,6,,,,,,,,,46.172766100000445,46.67286360000071,47.39041619999989,None,46.689245600000504,47.373849300000074,47.89108099999976,None,right,1,0.23952549999921757,47.89108099999976,None,None,46.689245600000504,47.87467160000051,0.511465000001408,0.5948083000002953,1.7132606000013766,1.796348100000614,,,,,,oren_3,001,2020_Jan_29_1337,posner,3.1.5,59.873320029158215,
-0.5,0,1,left,1,3,0,0,0,0,1,5,13,1,,,,,,,,,48.15902769999957,48.65875170000072,49.3764100999997,None,48.675515599999926,49.35972039999979,49.876944899999216,None,left,1,0.26960020000115037,49.876944899999216,None,None,48.675515599999926,49.860483500000555,0.5114865999985341,0.5950699999993958,1.7131952999989153,1.7964925999986008,,,,,,oren_3,001,2020_Jan_29_1337,posner,3.1.5,59.873320029158215,
-0.5,0,1,left,1,3,0,0,0,0,1,6,14,2,,,,,,,,,50.17805980000048,50.67814920000092,51.39575949999926,None,50.69494970000051,51.379045899999255,51.8965117000007,None,right,0,0.18605099999876984,51.8965117000007,None,None,50.69494970000051,51.8797684000001,0.5114426000000094,0.595023099998798,1.7130590999986453,1.7966452000000572,,,,,,oren_3,001,2020_Jan_29_1337,posner,3.1.5,59.873320029158215,
-0.5,180,0,left,2,3,0,0,0,0,1,7,15,4,,,,,,,,,52.11387509999986,52.61414789999981,53.33183850000023,None,52.63103899999987,53.315263599999525,53.83247029999984,None,left,1,0.37796290000005683,53.83247029999984,None,None,52.63103899999987,53.81604739999966,0.5116855000014766,0.5950437999999849,1.7135632999998052,1.7967008000014175,,,,,,oren_3,001,2020_Jan_29_1337,posner,3.1.5,59.873320029158215,
0.5,0,0,right,1,4,0,0,0,0,2,0,16,3,,,,,,,,,54.23390020000079,54.733894499999224,55.45149300000048,None,54.750643900000796,55.434872600000745,55.9521478000006,None,right,1,0.3064907000007224,55.9521478000006,None,None,54.750643900000796,55.93560389999948,0.5115982999996049,0.5948444000005111,1.7132861999998568,1.796565799999371,,,,,,oren_3,001,2020_Jan_29_1337,posner,3.1.5,59.873320029158215,
-0.5,0,1,left,1,3,0,0,0,0,2,1,17,0,,,,,,,,,56.28638719999981,56.78653029999987,57.50433200000043,None,56.803405399999974,57.487567000000126,58.00518729999931,None,left,1,0.09328860000096029,58.00518729999931,None,None,56.803405399999974,57.98812390000057,0.5114941000010731,0.595139900000504,1.713072700000339,1.7967515000000276,,,,,,oren_3,001,2020_Jan_29_1337,posner,3.1.5,59.873320029158215,
-0.5,0,1,left,1,3,0,0,0,0,2,2,18,2,,,,,,,,,58.122856399999364,58.6225732999992,59.340074199999435,None,58.63903620000019,59.323667900000146,59.84095110000089,None,left,1,0.24155870000140567,59.84095110000089,None,None,58.63903620000019,59.82425619999958,0.5110826000000088,0.5945073000002594,1.7127443999997922,1.7962583000007726,,,,,,oren_3,001,2020_Jan_29_1337,posner,3.1.5,59.873320029158215,
-0.5,180,0,left,2,3,0,0,0,0,2,3,19,4,,,,,,,,,60.10846289999972,60.60845730000074,61.32625150000058,None,60.625299900000755,61.30952090000028,61.8267223999992,None,right,0,0.15981060000012803,61.8267223999992,None,None,60.625299900000755,61.81024360000083,0.5114135999992868,0.5951402999999118,1.7131783999993786,1.7967522999988432,,,,,,oren_3,001,2020_Jan_29_1337,posner,3.1.5,59.873320029158215,
0.5,180,1,right,2,4,0,0,0,0,2,4,20,6,,,,,,,,,62.01150290000078,62.51111889999993,63.228769100000136,None,62.527918699999645,63.21236289999979,63.72950090000086,None,right,1,0.22500489999947604,63.72950090000086,None,None,62.527918699999645,63.71291249999922,0.5112988999990193,0.5949882999993861,1.7130700999987312,1.796416600000157,,,,,,oren_3,001,2020_Jan_29_1337,posner,3.1.5,59.873320029158215,
0.5,180,1,right,2,4,0,0,0,0,2,5,21,5,,,,,,,,,63.98064970000087,64.48061559999951,65.19813029999932,None,64.49717950000013,65.18151530000068,65.69893299999967,None,right,1,0.25564329999906477,65.69893299999967,None,None,64.49717950000013,65.68236710000019,0.511787399998866,0.59529239999938,1.7135242999993352,1.7968545999992784,,,,,,oren_3,001,2020_Jan_29_1337,posner,3.1.5,59.873320029158215,
-0.5,0,1,left,1,3,0,0,0,0,2,6,22,1,,,,,,,,,65.9831252999993,66.48331619999954,67.20112159999917,None,66.49996409999949,67.18446270000095,67.70176209999954,None,left,1,0.3008382999996684,67.70176209999954,None,None,66.49996409999949,67.68528909999986,0.5117362999990291,0.5954748999993171,1.7136950000003708,1.796891300000425,,,,,,oren_3,001,2020_Jan_29_1337,posner,3.1.5,59.873320029158215,
0.5,180,1,right,2,4,0,0,0,0,2,7,23,7,,,,,,,,,68.01953030000004,68.51960660000077,69.23702980000053,None,68.53603470000053,69.22065660000044,69.73775260000002,None,right,1,0.28096949999962817,69.73775260000002,None,None,68.53603470000053,69.72119489999932,0.5116221000007499,0.5949208000001818,1.71317210000052,1.7967171000000235,,,,,,oren_3,001,2020_Jan_29_1337,posner,3.1.5,59.873320029158215,
-0.5,0,1,left,1,3,0,0,0,0,3,0,24,2,,,,,,,,,70.03937910000059,70.5388669999993,71.2565508000007,None,70.55558410000049,71.23983659999976,71.7572326999998,None,left,1,0.24570119999953022,71.7572326999998,None,None,70.55558410000049,71.7407261999997,0.5112535999996908,0.5949120000004768,1.7130957999997918,1.796563399999286,,,,,,oren_3,001,2020_Jan_29_1337,posner,3.1.5,59.873320029158215,
-0.5,0,1,left,1,3,0,0,0,0,3,1,25,1,,,,,,,,,72.02528170000005,72.52511650000088,73.24278349999986,None,72.54189450000013,73.22592110000005,73.74328240000068,None,left,1,0.2913324000001012,73.74328240000068,None,None,72.54189450000013,73.72648029999982,0.5114623999998003,0.5947092000005796,1.7128105000010692,1.7964544000005844,,,,,,oren_3,001,2020_Jan_29_1337,posner,3.1.5,59.873320029158215,
0.5,180,1,right,2,4,0,0,0,0,3,2,26,5,,,,,,,,,74.06120980000014,74.56120519999968,75.27884330000052,None,74.5778320999998,75.26243889999932,75.77956059999997,None,right,1,0.20714349999980186,75.77956059999997,None,None,74.5778320999998,75.76277750000008,0.5116488999992725,0.5951779000006354,1.7132101000006514,1.796825400000671,,,,,,oren_3,001,2020_Jan_29_1337,posner,3.1.5,59.873320029158215,
0.5,180,1,right,2,4,0,0,0,0,3,3,27,7,,,,,,,,,76.01373330000024,76.51387439999962,77.23164270000052,None,76.53055900000072,77.21477650000088,77.73228259999996,None,right,1,0.1742288000004919,77.73228259999996,None,None,76.53055900000072,77.71563290000086,0.511645700000372,0.5950558999993518,1.7133900000007998,1.7966945999996824,,,,,,oren_3,001,2020_Jan_29_1337,posner,3.1.5,59.873320029158215,
-0.5,0,1,left,1,3,0,0,0,0,3,4,28,0,,,,,,,,,77.93303999999989,78.43310759999986,79.15085209999961,None,78.45006180000019,79.13418660000025,79.65152239999952,None,left,1,0.12702290000015637,79.65152239999952,None,None,78.45006180000019,79.6348450000005,0.5115769000003638,0.5951703000009729,1.713291100000788,1.7966074000014487,,,,,,oren_3,001,2020_Jan_29_1337,posner,3.1.5,59.873320029158215,
0.5,180,1,right,2,4,0,0,0,0,3,5,29,6,,,,,,,,,79.8019478999995,80.30257189999975,81.02029910000056,None,80.31906569999956,81.0034925,81.5208634999999,None,right,1,0.0176722999985941,81.5208634999999,None,None,80.31906569999956,81.50415249999969,0.5123788000000786,0.595956600000136,1.7139385000009497,None,,,,,,oren_3,001,2020_Jan_29_1337,posner,3.1.5,59.873320029158215,
-0.5,180,0,left,2,3,0,0,0,0,3,6,30,4,,,,,,,,,81.55441520000022,82.0549804000002,82.77258749999964,None,82.07158840000011,82.75602170000093,83.27339290000054,None,left,1,0.3291602999997849,83.27339290000054,None,None,82.07158840000011,83.25648019999971,0.5114515000004758,0.5947890999996162,1.7129382000002806,1.7964202000002842,,,,,,oren_3,001,2020_Jan_29_1337,posner,3.1.5,59.873320029158215,
0.5,0,0,right,1,4,0,0,0,0,3,7,31,3,,,,,,,,,83.62443110000095,84.12440229999993,84.84212769999976,None,84.14115909999964,84.82552419999956,85.34275660000094,None,left,0,0.24402139999983774,85.34275660000094,None,None,84.14115909999964,85.32608149999942,0.5114531999988685,0.5947685999999521,1.7131100999995397,1.7969158999985666,,,,,,oren_3,001,2020_Jan_29_1337,posner,3.1.5,59.873320029158215,
-0.5,0,1,left,1,3,0,0,0,0,4,0,32,1,,,,,,,,,85.61074240000016,86.11066969999956,86.82803980000062,None,86.12698520000049,86.81145359999937,87.32880990000012,None,left,1,0.2257662000010896,87.32880990000012,None,None,86.12698520000049,87.31212720000076,0.5116510999996535,0.5950351000010414,1.7130981999998767,1.7965349000005517,,,,,,oren_3,001,2020_Jan_29_1337,posner,3.1.5,59.873320029158215,
0.5,180,1,right,2,4,0,0,0,0,4,1,33,6,,,,,,,,,87.57974769999964,88.07981189999919,88.79739669999981,None,88.09653570000046,88.78086810000059,89.29803739999988,None,right,1,0.20855179999853135,89.29803739999988,None,None,88.09653570000046,89.28166389999933,0.5113799000009749,0.5949944000003597,1.713208700000905,1.7966263000016625,,,,,,oren_3,001,2020_Jan_29_1337,posner,3.1.5,59.873320029158215,
-0.5,180,0,left,2,3,0,0,0,0,4,2,34,4,,,,,,,,,89.53252489999977,90.03269480000017,90.75017239999943,None,90.04928400000063,90.73350940000091,91.25091720000091,None,left,1,0.3196903999996721,91.25091720000091,None,None,90.04928400000063,91.23419429999922,0.5114914000005228,0.5946702000001096,1.7129801000010048,1.7967090000001917,,,,,,oren_3,001,2020_Jan_29_1337,posner,3.1.5,59.873320029158215,
0.5,180,1,right,2,4,0,0,0,0,4,3,35,5,,,,,,,,,91.60197890000018,92.1020681000009,92.81983279999986,None,92.11879150000095,92.80308479999985,93.3204483999998,93.80441129999963,right,1,0.6502334999986488,93.3204483999998,None,None,92.11879150000095,93.30374839999968,0.5114950000006502,0.5950737000002846,1.7131561999995029,1.7966605000001437,,,,,,oren_3,001,2020_Jan_29_1337,posner,3.1.5,59.873320029158215,
0.5,0,0,right,1,4,0,0,0,0,4,4,36,3,,,,,,,,,93.9881406000004,94.48854449999999,95.20631270000013,None,94.50552330000028,95.1896670999995,95.70698860000084,None,right,1,0.24766819999967993,95.70698860000084,None,None,94.50552330000028,95.69046530000014,0.5111030999996728,0.5948926999990363,1.7130011999997805,1.7962628999994195,,,,,,oren_3,001,2020_Jan_29_1337,posner,3.1.5,59.873320029158215,
-0.5,0,1,left,1,3,0,0,0,0,4,5,37,2,,,,,,,,,95.97481209999933,96.47480290000021,97.19256150000001,None,96.49153119999937,97.1758819000006,97.69322939999984,None,left,1,0.3254383000003145,97.69322939999984,None,None,96.49153119999937,97.67629259999921,0.5115915000005771,0.5949049000009836,1.713065200001438,1.7966065000000526,,,,,,oren_3,001,2020_Jan_29_1337,posner,3.1.5,59.873320029158215,
0.5,180,1,right,2,4,0,0,0,0,4,6,38,7,,,,,,,,,98.04472990000068,98.54440539999996,99.26216690000001,None,98.56108400000085,99.24530600000071,99.76284450000094,None,right,1,0.22374289999970642,99.76284450000094,None,None,98.56108400000085,99.74604390000059,0.5117415999993682,0.5950180999989243,1.713365799998428,1.7967308999996021,,,,,,oren_3,001,2020_Jan_29_1337,posner,3.1.5,59.873320029158215,
-0.5,0,1,left,1,3,0,0,0,0,4,7,39,0,,,,,,,,,100.01354899999933,100.51373199999944,101.23135170000023,None,100.5302926000004,101.21475140000075,101.7321267999996,None,left,1,0.2705013000013423,101.7321267999996,None,None,100.5302926000004,101.71540730000015,0.5113818000008905,0.5947534000006272,1.7130395999993198,1.7964308999999048,,,,,,oren_3,001,2020_Jan_29_1337,posner,3.1.5,59.873320029158215,
-0.5,0,1,left,1,3,0,0,0,0,5,0,40,2,,,,,,,,,102.0332054999999,102.5331841999996,103.25085319999926,None,102.54981530000077,103.2342320000007,103.75162699999964,None,left,1,0.20304219999889028,103.75162699999964,None,None,102.54981530000077,103.73491169999943,0.5115200000000186,0.5947383999991871,1.7132330000004004,1.796555699998862,,,,,,oren_3,001,2020_Jan_29_1337,posner,3.1.5,59.873320029158215,
0.5,180,1,right,2,4,0,0,0,0,5,1,41,7,,,,,,,,,103.98560259999977,104.48588829999971,105.20375830000012,None,104.50271090000024,105.18683410000085,105.70420190000004,None,right,1,0.15440859999944223,105.70420190000004,None,None,104.50271090000024,105.68752359999962,0.5116407000004983,0.5950659000009182,1.713259800000742,1.7968171000011353,,,,,,oren_3,001,2020_Jan_29_1337,posner,3.1.5,59.873320029158215,
0.5,180,1,right,2,4,0,0,0,0,5,2,42,6,,,,,,,,,105.88815350000004,106.38849160000063,107.10609199999999,None,106.4052372999995,107.08942240000033,107.60670200000095,None,right,1,0.25190180000026885,107.60670200000095,None,None,106.4052372999995,107.59011649999957,0.5116050999986328,0.5952686999989965,1.713233599999512,1.7966833999998926,,,,,,oren_3,001,2020_Jan_29_1337,posner,3.1.5,59.873320029158215,
-0.5,180,0,left,2,3,0,0,0,0,5,3,43,4,,,,,,,,,107.87444209999921,108.37444549999964,109.09231639999962,None,108.39146559999972,109.07560999999987,109.59291830000075,110.07696919999944,left,1,0.5216262000012648,109.59291830000075,None,None,108.39146559999972,109.57642540000052,0.5115717999997287,0.5950437999999849,1.7135478000000148,1.7967513000003237,,,,,,oren_3,001,2020_Jan_29_1337,posner,3.1.5,59.873320029158215,
0.5,0,0,right,1,4,0,0,0,0,5,4,44,3,,,,,,,,,110.14398070000061,110.6444532000005,111.36219850000089,None,110.66111620000083,111.3453929999996,111.86289059999945,None,left,0,0.17197760000090057,111.86289059999945,None,None,110.66111620000083,111.84611939999922,0.5117850999995426,0.595046899999943,1.7134350999986054,1.7967104999988806,,,,,,oren_3,001,2020_Jan_29_1337,posner,3.1.5,59.873320029158215,
-0.5,0,1,left,1,3,0,0,0,0,5,5,45,1,,,,,,,,,112.06365150000056,112.56382719999965,113.28149409999969,None,112.58041579999917,113.26458540000021,113.78189720000046,None,left,1,0.33283600000140723,113.78189720000046,None,None,112.58041579999917,113.76561279999987,0.5117367999991984,0.5950199999988399,1.7135109999999258,1.7967049999988376,,,,,,oren_3,001,2020_Jan_29_1337,posner,3.1.5,59.873320029158215,
-0.5,0,1,left,1,3,0,0,0,0,5,6,46,0,,,,,,,,,114.13321410000026,114.63323900000069,115.35081720000017,None,114.64978580000025,115.3342401000009,115.85169110000061,None,left,1,0.31088290000116103,115.85169110000061,None,None,114.64978580000025,115.83503249999922,0.5113439000015205,0.5947345000004134,1.7131218000013178,1.7964264000002004,,,,,,oren_3,001,2020_Jan_29_1337,posner,3.1.5,59.873320029158215,
0.5,180,1,right,2,4,0,0,0,0,5,7,47,5,,,,,,,,,116.18607340000017,116.68611079999937,117.40386600000056,None,116.70266380000066,117.3868724999993,117.90454929999942,None,right,1,0.13019119999989925,117.90454929999942,None,None,116.70266380000066,117.88765590000003,0.5116827999991074,0.5951550000008865,1.71321750000061,1.7968514999993204,,,,,,oren_3,001,2020_Jan_29_1337,posner,3.1.5,59.873320029158215,
0.5,180,1,right,2,4,0,0,0,0,6,0,48,7,,,,,,,,,118.05548939999971,118.55542710000009,119.27309310000055,None,118.57200820000071,119.25633310000012,119.77351830000043,None,right,1,0.26102649999847927,119.77351830000043,None,None,118.57200820000071,119.75686160000078,0.5115864999988844,0.5947774999985995,1.7130060999988928,1.7965740999989066,,,,,,oren_3,001,2020_Jan_29_1337,posner,3.1.5,59.873320029158215,
-0.5,0,1,left,1,3,0,0,0,0,6,1,49,1,,,,,,,,,120.05818530000033,120.55796089999967,121.27569050000056,None,120.57486229999995,121.25892030000068,121.77655029999914,None,right,0,0.13022989999990386,121.77655029999914,None,None,120.57486229999995,121.75954319999983,0.5112551000001986,0.5949271999998018,1.7128241999998863,1.7964595000012196,,,,,,oren_3,001,2020_Jan_29_1337,posner,3.1.5,59.873320029158215,
0.5,0,0,right,1,4,0,0,0,0,6,2,50,3,,,,,,,,,121.92768350000006,122.42725020000034,123.1451006999996,None,122.44396439999946,123.12821149999945,123.6457320999998,None,left,0,0.22887460000129067,123.6457320999998,None,None,122.44396439999946,123.62894749999941,0.5111527999997634,0.594615399999384,1.7128367999994225,1.7962320999995427,,,,,,oren_3,001,2020_Jan_29_1337,posner,3.1.5,59.873320029158215,
0.5,180,1,right,2,4,0,0,0,0,6,3,51,5,,,,,,,,,123.89618949999931,124.39667390000068,125.11454380000032,None,124.41337080000085,125.09748249999939,125.61505319999924,None,left,0,0.21166590000029828,125.61505319999924,None,None,124.41337080000085,125.59821960000045,0.5123342999995657,0.5959739999998419,1.7138622000002215,1.7973736000003555,,,,,,oren_3,001,2020_Jan_29_1337,posner,3.1.5,59.873320029158215,
-0.5,180,0,left,2,3,0,0,0,0,6,4,52,4,,,,,,,,,125.84934939999948,126.3493784000002,127.06693230000019,None,126.36607860000004,127.0505733000009,127.56764549999934,None,left,1,0.3550240999993548,127.56764549999934,None,None,126.36607860000004,127.55104609999944,0.5114203999983147,0.5949476999994658,1.7130609999985609,1.7966884999987087,,,,,,oren_3,001,2020_Jan_29_1337,posner,3.1.5,59.873320029158215,
0.5,180,1,right,2,4,0,0,0,0,6,5,53,6,,,,,,,,,127.95216040000014,128.45239009999932,129.17017640000086,None,128.4689999000002,129.1534520999994,129.67073189999974,None,right,1,0.2679576000009547,129.67073189999974,None,None,128.4689999000002,129.65417589999925,0.5116290999994817,0.5950623999997333,1.7133993999996164,1.796682599999258,,,,,,oren_3,001,2020_Jan_29_1337,posner,3.1.5,59.873320029158215,
-0.5,0,1,left,1,3,0,0,0,0,6,6,54,0,,,,,,,,,129.9550947000007,130.45516060000045,131.1728303,None,130.47183580000092,131.1561789999996,131.67350120000083,None,left,1,0.29723330000160786,131.67350120000083,None,None,130.47183580000092,131.6566000999992,0.5116871999998693,0.5949507999994239,1.7131131000005553,1.7966813999992155,,,,,,oren_3,001,2020_Jan_29_1337,posner,3.1.5,59.873320029158215,
-0.5,0,1,left,1,3,0,0,0,0,6,7,55,2,,,,,,,,,131.99148590000004,132.4911886000009,133.20895329999985,None,132.50772730000062,133.19225910000023,133.7094947000005,None,left,1,0.24545150000085414,133.7094947000005,None,None,132.50772730000062,133.69302550000066,0.5112738999996509,0.5948356000008062,1.7130911000003834,1.796419500000411,,,,,,oren_3,001,2020_Jan_29_1337,posner,3.1.5,59.873320029158215,
-0.5,0,1,left,1,3,0,0,0,0,7,0,56,2,,,,,,,,,133.97738580000077,134.47714110000015,135.19497579999916,None,134.49383649999982,135.1781174000007,135.69554000000062,None,left,1,0.25913089999994554,135.69554000000062,None,None,134.49383649999982,135.67883849999998,0.5113380000002508,0.5948784000011074,1.7130212000010943,1.7966723000008642,,,,,,oren_3,001,2020_Jan_29_1337,posner,3.1.5,59.873320029158215,
-0.5,180,0,left,2,3,0,0,0,0,7,1,57,4,,,,,,,,,135.98011980000047,136.4799406000002,137.1976192000002,None,136.49667520000003,137.1813173999999,137.6983323000004,138.18263920000027,left,1,0.4804007000002457,137.6983323000004,None,None,136.49667520000003,137.68179090000012,0.5114816999994218,0.595178699999451,1.7133047999996052,1.7968698999993649,,,,,,oren_3,001,2020_Jan_29_1337,posner,3.1.5,59.873320029158215,
0.5,180,1,right,2,4,0,0,0,0,7,2,58,6,,,,,,,,,138.19909179999922,138.69974460000049,139.4174277000002,None,138.71645659999922,139.40088789999936,139.9180434000009,None,right,1,0.3246509000000515,139.9180434000009,None,None,138.71645659999922,139.90162860000055,0.5114940999992541,0.5950984999999491,1.7133573999999498,1.796748299999308,,,,,,oren_3,001,2020_Jan_29_1337,posner,3.1.5,59.873320029158215,
0.5,180,1,right,2,4,0,0,0,0,7,3,59,5,,,,,,,,,140.26975130000028,140.7693691000004,141.48703879999994,None,140.78613919999952,141.47020599999996,141.9874849000007,None,right,1,0.303290100000595,141.9874849000007,None,None,140.78613919999952,141.97102640000048,0.5114757999999711,0.594849900000554,1.7131089000013162,1.796317000000272,,,,,,oren_3,001,2020_Jan_29_1337,posner,3.1.5,59.873320029158215,
-0.5,0,1,left,1,3,0,0,0,0,7,4,60,0,,,,,,,,,142.32169980000072,142.82224400000086,143.5396423000002,None,142.83859420000044,143.5232223999992,144.04030539999985,None,left,1,0.21843389999958163,144.04030539999985,None,None,142.83859420000044,144.0238384000004,0.5122635999996419,0.5957760999990569,1.713839599999119,1.7970993999988423,,,,,,oren_3,001,2020_Jan_29_1337,posner,3.1.5,59.873320029158215,
0.5,180,1,right,2,4,0,0,0,0,7,5,61,7,,,,,,,,,144.27454709999984,144.77491120000013,145.49242699999922,None,144.79162779999933,145.4758720000009,145.99327579999954,None,right,1,0.2813458000000537,145.99327579999954,None,None,144.79162779999933,145.97639960000015,0.511877099999765,0.5952247000004718,1.7133544999996957,1.7969727999989118,,,,,,oren_3,001,2020_Jan_29_1337,posner,3.1.5,59.873320029158215,
0.5,0,0,right,1,4,0,0,0,0,7,6,62,3,,,,,,,,,146.29462310000054,146.7944040000002,147.51201670000046,None,146.81093519999922,147.49530050000067,148.01279009999962,None,right,1,0.4060551000002306,148.01279009999962,None,None,146.81093519999922,147.99590850000095,0.5113713999999163,0.5945735999994213,1.712859600000229,1.7963694999998552,,,,,,oren_3,001,2020_Jan_29_1337,posner,3.1.5,59.873320029158215,
-0.5,0,1,left,1,3,0,0,0,0,7,7,63,1,,,,,,,,,148.44672960000025,148.94706609999957,149.66512429999966,None,148.96384810000018,149.64816149999933,150.16578630000004,None,left,1,0.36495340000146825,150.16578630000004,None,None,148.96384810000018,150.14898560000074,0.5121355000010226,0.5957118999995146,1.7140445000004547,1.7975887000011426,,,,,,oren_3,001,2020_Jan_29_1337,posner,3.1.5,59.873320029158215,
0.5,180,1,right,2,4,0,0,0,0,8,0,64,7,,,,,,,,,150.54979660000026,151.05008930000076,151.7676621999999,None,151.0667014999999,151.75121050000052,152.26848009999958,None,right,1,0.21422910000001139,152.26848009999958,None,None,151.0667014999999,152.25193580000087,0.5117403000003833,0.5953250000002299,1.7135699999998906,1.796973499998785,,,,,,oren_3,001,2020_Jan_29_1337,posner,3.1.5,59.873320029158215,
-0.5,0,1,left,1,3,0,0,0,0,8,1,65,1,,,,,,,,,152.50235109999994,153.00304379999943,153.72062170000027,None,153.01971589999994,153.70390690000022,154.22120840000025,None,left,1,0.24569999999948777,154.22120840000025,None,None,153.01971589999994,154.2044702000003,0.5123113000008743,0.5955326999992394,1.7137265000001207,1.7970631000007415,,,,,,oren_3,001,2020_Jan_29_1337,posner,3.1.5,59.873320029158215,
0.5,180,1,right,2,4,0,0,0,0,8,2,66,6,,,,,,,,,154.48969600000055,154.9888737000001,155.70650709999973,None,155.00580459999946,155.68985629999952,156.20715890000065,None,right,1,0.25952959999995073,156.20715890000065,None,None,155.00580459999946,156.1905783000002,0.5109940000002098,0.594539600000644,1.712673399999403,1.7961885000004258,,,,,,oren_3,001,2020_Jan_29_1337,posner,3.1.5,59.873320029158215,
0.5,180,1,right,2,4,0,0,0,0,8,3,67,5,,,,,,,,,156.49176629999965,156.99185960000068,157.70924539999942,None,157.00822440000047,157.69271920000028,158.2099374999998,None,right,1,0.2567699999999604,158.2099374999998,None,None,157.00822440000047,158.19327200000043,0.5116507999991882,0.5949409999993804,1.7130529999994906,1.7965528999993694,,,,,,oren_3,001,2020_Jan_29_1337,posner,3.1.5,59.873320029158215,
-0.5,180,0,left,2,3,0,0,0,0,8,4,68,4,,,,,,,,,158.49416089999977,158.9944276999995,159.7122283000008,None,159.01123250000092,159.6954865000007,160.21291740000015,None,left,1,0.31770959999994375,160.21291740000015,None,None,159.01123250000092,160.1961126999995,0.5117571000009775,0.5952747000010277,1.7134244999997463,1.7967379000001529,,,,,,oren_3,001,2020_Jan_29_1337,posner,3.1.5,59.873320029158215,
-0.5,0,1,left,1,3,0,0,0,0,8,5,69,0,,,,,,,,,160.54721339999924,161.04720599999928,161.76505630000065,None,161.06412269999964,161.74818969999978,162.2658365999996,None,left,1,0.36079049999898416,162.2658365999996,None,right,161.06412269999964,162.2488589000004,0.5115012999995088,0.5951349999995728,1.713129099998696,1.7967760999999882,0.698582200000601,,,,,oren_3,001,2020_Jan_29_1337,posner,3.1.5,59.873320029158215,
-0.5,0,1,left,1,3,0,0,0,0,8,6,70,2,,,,,,,,,162.65038579999964,163.15006170000015,163.8678218999994,None,163.1668293999992,163.85124240000005,164.36861110000063,164.85253010000088,None,0,,164.36861110000063,None,None,163.1668293999992,164.35195430000022,0.5113427999986015,0.5949061999999685,1.7132015999995929,1.796672899999976,,,,,,oren_3,001,2020_Jan_29_1337,posner,3.1.5,59.873320029158215,
0.5,0,0,right,1,4,0,0,0,0,8,7,71,3,,,,,,,,,165.3533367,165.85383290000027,166.57178229999954,165.3533367,165.87086199999976,166.55497490000016,167.0723534000008,None,right,1,0.2742837999994663,167.0723534000008,None,left,165.87086199999976,167.05579899999975,0.5136251999992965,0.5972256000004563,1.7155755999992834,1.7987919999995938,0.3719498999998905,,,,,oren_3,001,2020_Jan_29_1337,posner,3.1.5,59.873320029158215,
0.5,0,0,right,1,4,0,0,0,0,9,0,72,3,,,,,,,,,167.37349170000016,167.87337079999998,168.59115080000083,None,167.8901091000007,168.5745179000005,169.09173369999917,None,right,1,0.25514320000002044,169.09173369999917,None,None,167.8901091000007,169.07515109999986,0.5114698000015778,0.5948478000009345,1.713231800000358,1.7965567000010196,,,,,,oren_3,001,2020_Jan_29_1337,posner,3.1.5,59.873320029158215,
0.5,180,1,right,2,4,0,0,0,0,9,1,73,7,,,,,,,,,169.37626180000007,169.87618079999993,170.59395159999985,None,169.89289599999938,170.57709720000094,171.09452840000085,None,right,1,0.26822859999992943,171.09452840000085,None,None,169.89289599999938,171.07787160000044,0.5117122999999992,0.5950396999996883,1.7133886999999959,1.796979900000224,,,,,,oren_3,001,2020_Jan_29_1337,posner,3.1.5,59.873320029158215,
-0.5,180,0,left,2,3,0,0,0,0,9,2,74,4,,,,,,,,,171.37913970000045,171.87891409999975,172.59661170000072,None,171.8955007000004,172.57981590000054,173.09723590000067,None,right,0,0.233643800000209,173.09723590000067,None,None,171.8955007000004,173.08053149999978,0.5114515999994182,0.5947827999989386,1.7130571999987296,1.7965817999993305,,,,,,oren_3,001,2020_Jan_29_1337,posner,3.1.5,59.873320029158215,
-0.5,0,1,left,1,3,0,0,0,0,9,3,75,0,,,,,,,,,173.3485068000009,173.84817320000002,174.56597780000084,None,173.86510400000043,174.54926970000088,175.06651129999955,None,left,1,0.32851019999907294,175.06651129999955,None,None,173.86510400000043,175.05017220000082,0.5110869999989518,0.5947992999990674,1.7130710999990697,1.796238799999628,,,,,,oren_3,001,2020_Jan_29_1337,posner,3.1.5,59.873320029158215,
0.5,180,1,right,2,4,0,0,0,0,9,4,76,6,,,,,,,,,175.41828480000004,175.91770010000073,176.6356809000008,None,175.93452179999986,176.6186703000003,177.13614319999942,None,right,1,0.3066666000013356,177.13614319999942,None,None,175.93452179999986,177.11958520000007,0.5109446000005846,0.5945405000002211,1.7128131999998004,1.796100800000204,,,,,,oren_3,001,2020_Jan_29_1337,posner,3.1.5,59.873320029158215,
-0.5,0,1,left,1,3,0,0,0,0,9,5,77,2,,,,,,,,,177.47107949999918,177.9706616000003,178.68820720000076,None,177.98727230000077,178.6719267999997,179.18891199999962,179.67305959999976,left,1,0.5417436000007001,179.18891199999962,None,None,177.98727230000077,179.17250459999923,0.5113626000002114,0.5948056999986875,1.7131862999995064,1.7966731999986223,,,,,,oren_3,001,2020_Jan_29_1337,posner,3.1.5,59.873320029158215,
-0.5,0,1,left,1,3,0,0,0,0,9,6,78,1,,,,,,,,,179.75711729999966,180.25703090000025,180.97505810000075,None,180.27393839999968,180.95806599999923,181.47547180000038,None,left,1,0.36735910000061267,181.47547180000038,None,None,180.27393839999968,181.45887279999988,0.5115033999991283,0.5950465999994776,1.713327699999354,1.7967625000001135,,,,,,oren_3,001,2020_Jan_29_1337,posner,3.1.5,59.873320029158215,
0.5,180,1,right,2,4,0,0,0,0,9,7,79,5,,,,,,,,,181.85991509999985,182.36000649999914,183.07770039999923,None,182.376843,183.06107789999987,183.57843400000093,None,right,1,0.3923178999993979,183.57843400000093,None,None,182.376843,183.56182140000055,0.5118031000001793,0.5952379999998811,1.713576500000272,1.7970851999998558,,,,,,oren_3,001,2020_Jan_29_1337,posner,3.1.5,59.873320029158215,
0.5,0,0,right,1,4,0,0,0,0,10,0,80,3,,,,,,,,,183.99624439999934,184.49631860000045,185.21389810000073,None,184.51307749999978,185.19711900000038,185.71475869999995,186.19861929999934,right,1,0.6719519999987824,185.71475869999995,None,None,184.51307749999978,185.69798599999922,0.5116827999991074,0.5949381999998877,1.7133323999987624,1.7969947999990836,,,,,,oren_3,001,2020_Jan_29_1337,posner,3.1.5,59.873320029158215,
0.5,180,1,right,2,4,0,0,0,0,10,1,81,5,,,,,,,,,186.41610589999982,186.91626969999925,187.63394850000077,None,186.93314029999965,187.61720380000042,188.13465890000043,None,right,1,0.26811630000156583,188.13465890000043,None,None,186.93314029999965,188.11784500000067,0.5115251000006538,0.5947756000005029,1.7130832000002556,1.796696300001713,,,,,,oren_3,001,2020_Jan_29_1337,posner,3.1.5,59.873320029158215,
-0.5,0,1,left,1,3,0,0,0,0,10,2,82,0,,,,,,,,,188.41926629999944,188.91912159999993,189.63688340000044,None,188.93577929999992,189.62045020000005,190.13733479999973,None,left,1,0.3616739000008238,190.13733479999973,None,None,188.93577929999992,190.1210243000005,0.5116185000006226,0.5950916000001598,1.7134841999995842,1.7967566000006627,,,,,,oren_3,001,2020_Jan_29_1337,posner,3.1.5,59.873320029158215,
-0.5,180,0,left,2,3,0,0,0,0,10,3,83,4,,,,,,,,,190.5222630999997,191.02235409999957,191.7395178000006,None,191.03860480000003,191.72309060000043,192.24039420000008,192.72463339999922,left,1,0.482423800000106,192.24039420000008,None,None,191.03860480000003,192.2236343000004,0.5118177000003925,0.5948853999998391,1.7130825000003824,1.7964744000000792,,,,,,oren_3,001,2020_Jan_29_1337,posner,3.1.5,59.873320029158215,
-0.5,0,1,left,1,3,0,0,0,0,10,4,84,2,,,,,,,,,192.7420688000002,193.24178179999944,193.95931910000036,None,193.25836170000002,193.9429239000001,194.46000769999955,None,left,1,0.3427196000011463,194.46000769999955,None,None,193.25836170000002,194.4434521000003,0.5113165000002482,0.5949441000011575,1.7129815000007511,1.796276700000817,,,,,,oren_3,001,2020_Jan_29_1337,posner,3.1.5,59.873320029158215,
0.5,180,1,right,2,4,0,0,0,0,10,5,85,7,,,,,,,,,194.82728920000045,195.32790790000035,196.04578819999915,None,195.3448079000009,196.0289004999995,196.54637849999926,None,right,1,0.2725057999996352,196.54637849999926,None,None,195.3448079000009,196.52950389999933,0.5122293000003992,0.5960002000010718,1.7138035999996646,1.7974897000003693,,,,,,oren_3,001,2020_Jan_29_1337,posner,3.1.5,59.873320029158215,
-0.5,0,1,left,1,3,0,0,0,0,10,6,86,1,,,,,,,,,196.84698650000064,197.3474083000001,198.0652188999993,None,197.36392759999944,198.04829280000013,198.56586229999994,None,left,1,0.14085090000116907,198.56586229999994,None,None,197.36392759999944,198.5490248999995,0.511737799999537,0.595134400000461,1.7133379000006244,1.7969788999998855,,,,,,oren_3,001,2020_Jan_29_1337,posner,3.1.5,59.873320029158215,
0.5,180,1,right,2,4,0,0,0,0,10,7,87,6,,,,,,,,,198.7334377999996,199.23345250000057,199.95122280000032,None,199.25000910000017,199.9345073000004,200.45155850000083,None,right,1,0.22335079999902518,200.45155850000083,None,None,199.25000910000017,200.4351643000009,0.5116455999996106,0.5949663999999757,1.7133412999992288,1.796738600000026,,,,,,oren_3,001,2020_Jan_29_1337,posner,3.1.5,59.873320029158215,
,,,,,,0,0,0,0,,,,,,,,,,,,,,,,,,,,,,,,,,,,,,,,,,200.70290260000002,None,1.9099999917671084e-05,0.9953832000010152,oren_3,001,2020_Jan_29_1337,posner,3.1.5,59.873320029158215,
-0.5,180,0,left,2,3,1,0,1,0,0,0,0,4,1.21000011858996e-05,0.0972051000007923,261.7197524000003,None,1.5600000551785342e-05,0.09775559999980032,263.82270040000003,None,264.1031884999993,264.6068357999993,265.32473840000057,None,264.6237996,265.3078908999996,265.8256072999993,None,left,1,0.2893666999989364,265.8256072999993,None,None,264.6237996,265.8085195999993,0.5139688999988721,0.5977549999988696,1.7156412999993336,1.7992856000000756,,,,,,oren_3,001,2020_Jan_29_1337,posner,3.1.5,59.873320029158215,
0.5,180,1,right,2,4,1,0,1,0,0,1,1,7,,,,,,,,,266.14409759999944,266.64305179999974,267.36079410000093,None,266.66009099999974,267.3439937999992,267.8614498000006,None,right,1,0.1735653000014281,267.8614498000006,None,None,266.66009099999974,267.8450192,0.5105564999994385,0.594165399999838,1.7125018999995518,1.795595499999763,,,,,,oren_3,001,2020_Jan_29_1337,posner,3.1.5,59.873320029158215,
-0.5,0,1,left,1,3,1,0,1,0,0,2,2,0,,,,,,,,,268.06255840000085,268.5626806,269.28019499999937,None,268.57903050000095,269.26359760000014,269.7810332000008,None,left,1,0.2696909999995114,269.7810332000008,None,None,268.57903050000095,269.76402450000023,0.5116490999989765,0.5952333999994153,1.7129765999998199,1.7968706999999995,,,,,,oren_3,001,2020_Jan_29_1337,posner,3.1.5,59.873320029158215,
-0.5,0,1,left,1,3,1,0,1,0,0,3,3,2,,,,,,,,,270.08297459999994,270.5892170999996,271.2995102999994,None,270.60060499999963,271.2838372999995,271.80016050000086,None,left,1,0.2345738000003621,271.80016050000086,None,None,270.60060499999963,271.78378669999984,0.5187150000001566,0.5946907999987161,1.7132502999993449,1.7964100999997754,,,,,,oren_3,001,2020_Jan_29_1337,posner,3.1.5,59.873320029158215,
-0.5,0,1,left,1,3,1,0,1,0,0,4,4,1,,,,,,,,,272.0518840000004,272.5511473000006,273.2688097999999,None,272.56780190000063,273.2524706999993,273.76961049999954,None,left,1,0.2973636999995506,273.76961049999954,None,None,272.56780190000063,273.75300810000044,0.5112875999984681,0.5948804999989079,1.7131304999984422,1.7966212999999698,,,,,,oren_3,001,2020_Jan_29_1337,posner,3.1.5,59.873320029158215,
0.5,0,0,right,1,4,1,0,1,0,0,5,5,3,,,,,,,,,274.0880393000007,274.58747089999997,275.30513339999925,None,274.60420650000015,275.2882927999999,275.8057542000006,None,right,1,0.3411705999988044,275.8057542000006,None,None,274.60420650000015,275.7890516999996,0.5113543999996182,0.5948174000004656,1.7129158999996434,1.7966417999996338,,,,,,oren_3,001,2020_Jan_29_1337,posner,3.1.5,59.873320029158215,
0.5,180,1,right,2,4,1,0,1,0,0,6,6,6,,,,,,,,,276.17383809999956,276.67360630000076,277.3915197000006,None,276.6906239,277.37469950000013,277.8920780999997,None,right,1,0.25498220000008587,277.8920780999997,None,None,276.6906239,277.87542810000014,0.5115519999999378,0.5950052000007418,1.7133503000004566,1.7965490999995382,,,,,,oren_3,001,2020_Jan_29_1337,posner,3.1.5,59.873320029158215,
0.5,180,1,right,2,4,1,0,1,0,0,7,7,5,,,,,,,,,278.17647059999945,278.6764411999993,279.3942165999997,None,278.69316439999966,279.37729070000023,279.8948662999992,None,right,1,0.18799229999967793,279.8948662999992,None,None,278.69316439999966,279.87794609999946,0.5117386000001716,0.5950591000000713,1.7132323999994696,1.7968538000004628,,,,,,oren_3,001,2020_Jan_29_1337,posner,3.1.5,59.873320029158215,
-0.5,180,0,left,2,3,1,0,1,0,1,0,8,4,,,,,,,,,280.11260050000055,280.6124990999997,281.32997179999984,None,280.6291063999997,281.3134014999996,281.83090269999957,None,right,0,0.07601640000029874,281.83090269999957,None,None,280.6291063999997,281.81417540000075,0.5113737000010588,0.5946733000000677,1.7130338000006304,1.7963391000012052,,,,,,oren_3,001,2020_Jan_29_1337,posner,3.1.5,59.873320029158215,
0.5,0,0,right,1,4,1,0,1,0,1,1,9,3,,,,,,,,,281.9312009999994,282.43158500000027,283.14923009999984,None,282.44820919999984,283.1326019999997,283.6498692999994,None,right,1,0.2250465000015538,283.6498692999994,None,None,282.44820919999984,283.6333192000002,0.5122176999993826,0.5956468999993376,1.7139274999990448,1.7974453999995603,,,,,,oren_3,001,2020_Jan_29_1337,posner,3.1.5,59.873320029158215,
-0.5,0,1,left,1,3,1,0,1,0,1,2,10,0,,,,,,,,,283.9012708999999,284.4011580000006,285.11861750000025,None,284.41764970000077,285.1019249000001,285.61937670000043,None,left,1,0.23953660000006494,285.61937670000043,None,None,284.41764970000077,285.6027047000007,0.5117904999988241,0.5953553999988799,1.7133218999988458,1.7966421999990416,,,,,,oren_3,001,2020_Jan_29_1337,posner,3.1.5,59.873320029158215,
-0.5,0,1,left,1,3,1,0,1,0,1,3,11,1,,,,,,,,,285.88652080000065,286.3869517999992,287.10491250000086,None,286.40386709999984,287.0879466000006,287.60559250000006,288.08936600000015,None,0,,287.60559250000006,None,None,286.40386709999984,287.58858060000057,0.5115853000006609,0.5952617999992071,1.7131965999997192,1.7968779999991966,,,,,,oren_3,001,2020_Jan_29_1337,posner,3.1.5,59.873320029158215,
0.5,180,1,right,2,4,1,0,1,0,1,4,12,6,,,,,,,,,288.5900626999992,289.09101419999934,289.8083845000001,288.5900626999992,289.1076637999995,289.7917288999997,290.3092342,None,right,1,0.22189240000079735,290.3092342,None,None,289.1076637999995,290.2925782000002,0.5138962999990326,0.5971224999993865,1.71544349999931,1.7987670999991678,,,,,,oren_3,001,2020_Jan_29_1337,posner,3.1.5,59.873320029158215,
0.5,180,1,right,2,4,1,0,1,0,1,5,13,5,,,,,,,,,290.56043520000094,291.0604789000008,291.7778264999997,None,291.0769572999998,291.76122469999973,292.2785712999994,None,right,1,0.20439009999972768,292.2785712999994,None,None,291.0769572999998,292.2620676000006,0.5117630999993708,0.5949384999985341,1.7133354999987205,1.796675999999934,,,,,,oren_3,001,2020_Jan_29_1337,posner,3.1.5,59.873320029158215,
0.5,180,1,right,2,4,1,0,1,0,1,6,14,7,,,,,,,,,292.51262789999964,293.0128540000005,293.73070410000037,None,293.0295000999995,293.71397140000045,294.23131769999964,None,right,1,0.12373159999879135,294.23131769999964,None,None,293.0295000999995,294.2145849000008,0.511484599999676,0.5950364000000263,1.7131924000004801,1.7965808999997535,,,,,,oren_3,001,2020_Jan_29_1337,posner,3.1.5,59.873320029158215,
-0.5,0,1,left,1,3,1,0,1,0,1,7,15,2,,,,,,,,,294.38221800000065,294.88231670000096,295.5997776000004,None,294.89875589999974,295.5830354999998,296.1005626999995,None,left,1,0.11036109999986365,296.1005626999995,None,None,294.89875589999974,296.0838440999996,0.5118580999987898,0.5951965999993263,1.7133703999988938,1.7966046999990795,,,,,,oren_3,001,2020_Jan_29_1337,posner,3.1.5,59.873320029158215,
0.5,180,1,right,2,4,1,0,1,0,2,0,16,6,,,,,,,,,296.2346464000002,296.73467639999944,297.4523855000007,None,296.75142740000047,297.4358938999994,297.95319390000077,None,right,1,0.049791999999797554,297.95319390000077,None,None,296.75142740000047,297.9362968000005,0.5116886999985581,0.595408099999986,1.7132979999987583,None,,,,,,oren_3,001,2020_Jan_29_1337,posner,3.1.5,59.873320029158215,
-0.5,0,1,left,1,3,1,0,1,0,2,1,17,1,,,,,,,,,298.02097049999975,298.52062789999945,299.2381612999998,None,298.53711269999985,299.22162729999945,299.73882629999935,None,left,1,0.07228530000065803,299.73882629999935,None,None,298.53711269999985,299.72243460000027,0.5114561999998841,0.5946837000010419,1.7132467000010365,1.7966398999997182,,,,,,oren_3,001,2020_Jan_29_1337,posner,3.1.5,59.873320029158215,
0.5,180,1,right,2,4,1,0,1,0,2,2,18,7,,,,,,,,,299.8394294999998,300.33958789999997,301.05722869999954,None,300.3564093999994,301.0404765000003,301.55791209999916,None,right,1,0.07702359999893815,301.55791209999916,None,None,300.3564093999994,301.54128479999963,0.5113467999999557,0.5950289000011253,1.7130245000007562,1.7964640999998664,,,,,,oren_3,001,2020_Jan_29_1337,posner,3.1.5,59.873320029158215,
0.5,0,0,right,1,4,1,0,1,0,2,3,19,3,,,,,,,,,301.6582371000004,302.15874240000085,302.87650940000094,None,302.17559230000006,302.8597979999995,303.37707070000033,None,left,0,0.20987020000029588,303.37707070000033,None,None,302.17559230000006,303.36062069999934,0.5122718000002351,0.5958706999990682,1.7141568999995798,1.797488299998804,,,,,,oren_3,001,2020_Jan_29_1337,posner,3.1.5,59.873320029158215,
0.5,180,1,right,2,4,1,0,1,0,2,4,20,5,,,,,,,,,303.6119099000007,304.11159450000014,304.82916730000034,None,304.12821240000085,304.81270179999956,305.32989110000017,None,right,1,0.20903379999981553,305.32989110000017,None,None,304.12821240000085,305.31322870000076,0.5114826999997604,0.5948781999995845,1.7131007999996655,1.7965853999994579,,,,,,oren_3,001,2020_Jan_29_1337,posner,3.1.5,59.873320029158215,
-0.5,180,0,left,2,3,1,0,1,0,2,5,21,4,,,,,,,,,305.5642478999998,306.0642733000004,306.7820444000008,None,306.08107589999963,306.7651444000003,307.28265529999953,None,left,1,0.3521495999993931,307.28265529999953,None,None,306.08107589999963,307.26588020000054,0.5116075000005367,0.5949250000012398,1.7132029000003968,1.796606600000814,,,,,,oren_3,001,2020_Jan_29_1337,posner,3.1.5,59.873320029158215,
-0.5,0,1,left,1,3,1,0,1,0,2,6,22,2,,,,,,,,,307.6503782,308.1506728000004,308.8679953999999,None,308.1669920000004,308.85152689999995,309.3686959000006,None,right,0,0.21832809999978053,309.3686959000006,None,None,308.1669920000004,309.35210069999994,0.5119202000005316,0.5951925000008487,1.7133375000012165,1.7971528000016406,,,,,,oren_3,001,2020_Jan_29_1337,posner,3.1.5,59.873320029158215,
-0.5,0,1,left,1,3,1,0,1,0,2,7,23,0,,,,,,,,,309.60329380000076,310.10317589999977,310.8209822000008,None,310.1199297000003,310.80408089999946,311.3217721000001,None,left,1,0.39323960000001534,311.3217721000001,None,None,310.1199297000003,311.3049140999992,0.5114686000015354,0.5948177000009309,1.7131913000011991,1.7964583000011771,,,,,,oren_3,001,2020_Jan_29_1337,posner,3.1.5,59.873320029158215,
-0.5,180,0,left,2,3,1,0,1,0,3,0,24,4,,,,,,,,,311.73957599999994,312.2394043000004,312.9570110000004,None,312.2561834999997,312.94067689999974,313.4576861000005,None,right,0,0.22528740000052494,313.4576861000005,None,None,312.2561834999997,313.44126870000036,0.5114438999989943,0.5950205999997706,1.7132870999994338,1.7966838999982429,,,,,,oren_3,001,2020_Jan_29_1337,posner,3.1.5,59.873320029158215,
0.5,180,1,right,2,4,1,0,1,0,3,1,25,7,,,,,,,,,313.7089699999997,314.2087351000009,314.9264789000008,None,314.22557340000094,314.9100808000003,315.4269958999994,315.9114707000008,None,0,,315.4269958999994,None,None,314.22557340000094,315.41079790000003,0.5115296000003582,0.5951328999999532,1.7135708999994677,1.7966364000003523,,,,,,oren_3,001,2020_Jan_29_1337,posner,3.1.5,59.873320029158215,
0.5,0,0,right,1,4,1,0,1,0,3,2,26,3,,,,,,,,,316.41203309999946,316.9125053000007,317.6302312000007,316.41203309999946,316.9291902999994,317.61341170000014,318.13094570000067,None,right,1,0.40006200000061654,318.13094570000067,None,left,316.9291902999994,318.11426740000024,0.5135214000001724,0.597125700000106,1.7152614000005997,1.798513699999603,0.3537594999997964,,,,,oren_3,001,2020_Jan_29_1337,posner,3.1.5,59.873320029158215,
0.5,180,1,right,2,4,1,0,1,0,3,3,27,5,,,,,,,,,318.5492161000002,319.04874500000005,319.7666093000007,None,319.06561449999936,319.7498192000003,320.26705290000064,None,right,1,0.32787370000005467,320.26705290000064,None,None,319.06561449999936,320.2505899000007,0.5110850000000937,0.5946447999995144,1.7129119999990507,1.7964748999984295,,,,,,oren_3,001,2020_Jan_29_1337,posner,3.1.5,59.873320029158215,
-0.5,0,1,left,1,3,1,0,1,0,3,4,28,1,,,,,,,,,320.6185492000004,321.1183449,321.83596340000076,None,321.13506210000014,321.8192863999993,322.3366655000009,None,left,1,0.2583095999998477,322.3366655000009,None,None,321.13506210000014,322.3201229999995,0.5115406000004441,0.5951175000009243,1.7135711000009906,1.7966059999998834,,,,,,oren_3,001,2020_Jan_29_1337,posner,3.1.5,59.873320029158215,
-0.5,0,1,left,1,3,1,0,1,0,3,5,29,2,,,,,,,,,322.62086049999925,323.12122850000014,323.8387392000004,None,323.1378215000004,323.82216100000005,324.33940149999944,None,left,1,0.2715230000012525,324.33940149999944,None,None,323.1378215000004,324.32278550000046,0.5123720999999932,0.5957847000008769,1.7139148000005662,1.79749670000092,,,,,,oren_3,001,2020_Jan_29_1337,posner,3.1.5,59.873320029158215,
-0.5,0,1,left,1,3,1,0,1,0,3,6,30,0,,,,,,,,,324.64072529999976,325.1405666999999,325.8582497999996,None,325.15721119999944,325.8417227000009,326.3588280999993,None,left,1,0.2521759999999631,326.3588280999993,None,None,325.15721119999944,326.34242319999976,0.5114731000012398,0.5949586999995518,1.7133057999999437,1.7965560000011465,,,,,,oren_3,001,2020_Jan_29_1337,posner,3.1.5,59.873320029158215,
0.5,180,1,right,2,4,1,0,1,0,3,7,31,6,,,,,,,,,326.64270860000033,327.14346690000093,327.8610843000006,None,327.15995049999947,327.8442565000005,328.36187830000017,None,right,1,0.009025200000905897,328.36187830000017,None,None,327.15995049999947,328.3451377000001,0.5125541000015801,0.5958057000007102,1.7142115000006015,None,,,,,,oren_3,001,2020_Jan_29_1337,posner,3.1.5,59.873320029158215,
0.5,180,1,right,2,4,1,0,1,0,4,0,32,6,,,,,,,,,328.39579290000074,328.8958514999995,329.61338140000043,None,328.9125206000008,329.5966638000009,330.1141606000001,None,right,1,0.25691360000018904,330.1141606000001,None,None,328.9125206000008,330.0972922000001,0.5116735999999946,0.5950153000012506,1.713102900001104,1.7972286000003805,,,,,,oren_3,001,2020_Jan_29_1337,posner,3.1.5,59.873320029158215,
0.5,0,0,right,1,4,1,0,1,0,4,1,33,3,,,,,,,,,330.3986138,330.89838339999915,331.6163403999999,None,330.91531380000015,331.5995528000003,332.1167024000006,None,left,0,0.030290799999420415,332.1167024000006,None,None,330.91531380000015,332.1001718000007,0.5115546000015456,0.5955896000014036,1.713332300001639,None,,,,,,oren_3,001,2020_Jan_29_1337,posner,3.1.5,59.873320029158215,
-0.5,0,1,left,1,3,1,0,1,0,4,2,34,2,,,,,,,,,332.1677767000001,332.66758669999945,333.38539909999963,None,332.6844043000001,333.3685229999992,333.8860447999996,None,left,1,0.2930088999983127,333.8860447999996,None,None,332.6844043000001,333.8693323999996,0.5114226000005146,0.5950460000003659,1.7131496999991214,1.7967523999996047,,,,,,oren_3,001,2020_Jan_29_1337,posner,3.1.5,59.873320029158215,
0.5,180,1,right,2,4,1,0,1,0,4,3,35,5,,,,,,,,,334.2038582999994,334.7039635000001,335.42167569999947,None,334.72054949999983,335.4047277000009,335.9224744000003,None,right,1,0.2725580999995145,335.9224744000003,None,None,334.72054949999983,335.90569909999977,0.5117764999995416,0.5949956999993447,1.7134965999994165,1.79664159999993,,,,,,oren_3,001,2020_Jan_29_1337,posner,3.1.5,59.873320029158215,
-0.5,0,1,left,1,3,1,0,1,0,4,4,36,1,,,,,,,,,336.2234902,336.72338950000085,337.44111949999933,None,336.7398303000009,337.4241060000004,337.94153630000073,None,left,1,0.12548939999942377,337.94153630000073,None,None,336.7398303000009,337.9251623,0.51162850000037,0.59482829999979,1.7133782000000792,1.796408899999733,,,,,,oren_3,001,2020_Jan_29_1337,posner,3.1.5,59.873320029158215,
-0.5,0,1,left,1,3,1,0,1,0,4,5,37,0,,,,,,,,,338.09281550000014,338.59260770000037,339.31007540000064,None,338.60912989999997,339.29343639999934,339.8109590999993,None,right,0,0.19207649999952991,339.8109590999993,None,None,338.60912989999997,339.79419830000006,0.5113617000006343,0.5947264999995241,1.7129377000001114,1.7961971000004269,,,,,,oren_3,001,2020_Jan_29_1337,posner,3.1.5,59.873320029158215,
-0.5,180,0,left,2,3,1,0,1,0,4,6,38,4,,,,,,,,,340.0278354000002,340.5284568999996,341.24624530000074,None,340.54519640000035,341.2294863999996,341.7466296999992,None,right,0,0.09634399999958987,341.7466296999992,None,None,340.54519640000035,341.7300785000007,0.5124290000003384,0.5959034000006795,1.7140304000004107,1.797645000000557,,,,,,oren_3,001,2020_Jan_29_1337,posner,3.1.5,59.873320029158215,
0.5,180,1,right,2,4,1,0,1,0,4,7,39,7,,,,,,,,,341.86423959999956,342.3644574000009,343.08196580000003,None,342.3810744000002,343.0653910000001,343.5827644000001,None,left,0,0.10038899999926798,343.5827644000001,None,None,342.3810744000002,343.5660134000009,0.5114355999994586,0.5946450999999797,1.7129815999996936,1.7962860000006913,,,,,,oren_3,001,2020_Jan_29_1337,posner,3.1.5,59.873320029158215,
-0.5,0,1,left,1,3,1,0,1,0,5,0,40,0,,,,,,,,,343.7002200000006,344.2002315999998,344.91780049999943,None,344.21688840000024,344.90133070000047,345.41858370000045,None,left,1,0.2484799000012572,345.41858370000045,None,None,344.21688840000024,345.40203400000064,0.5117890000001353,0.595226299999922,1.7135732999995525,1.7971522999996523,,,,,,oren_3,001,2020_Jan_29_1337,posner,3.1.5,59.873320029158215,
-0.5,0,1,left,1,3,1,0,1,0,5,1,41,2,,,,,,,,,345.6865887999993,346.18642290000025,346.9040703999999,None,346.20305200000075,346.88723030000074,347.4047876000004,None,right,0,0.1823655999996845,347.4047876000004,None,None,346.20305200000075,347.38797010000053,0.511560200000531,0.5948413999994955,1.7130956000000879,1.7967048000009527,,,,,,oren_3,001,2020_Jan_29_1337,posner,3.1.5,59.873320029158215,
0.5,180,1,right,2,4,1,0,1,0,5,2,42,5,,,,,,,,,347.60576519999995,348.1056212000003,348.82350980000047,None,348.12255469999945,348.80659879999985,349.32392009999967,None,right,1,0.26307750000160013,349.32392009999967,None,None,348.12255469999945,349.3077252999992,0.5115523999993457,0.5949090999984037,1.7136379999992641,1.7966633999985788,,,,,,oren_3,001,2020_Jan_29_1337,posner,3.1.5,59.873320029158215,
0.5,180,1,right,2,4,1,0,1,0,5,3,43,6,,,,,,,,,349.60846970000057,350.1082798000007,350.82622919999994,None,350.12528139999995,350.80944830000044,351.32670900000085,None,left,0,0.22833790000004228,351.32670900000085,None,None,350.12528139999995,351.3100794000002,0.5113055999991047,0.5948595999998361,1.713081299998521,1.796614099999715,,,,,,oren_3,001,2020_Jan_29_1337,posner,3.1.5,59.873320029158215,
-0.5,180,0,left,2,3,1,0,1,0,5,4,44,4,,,,,,,,,351.57724020000023,352.0777386000009,352.7955392999993,None,352.09458900000027,352.7787248000004,353.2961522000005,None,left,1,0.338877299998785,353.2961522000005,None,None,352.09458900000027,353.2794152999995,0.5121286000012333,0.5958234000008815,1.7137921000012284,1.797439800000575,,,,,,oren_3,001,2020_Jan_29_1337,posner,3.1.5,59.873320029158215,
0.5,0,0,right,1,4,1,0,1,0,5,5,45,3,,,,,,,,,353.66394670000045,354.16404019999936,354.8817495000003,None,354.18060780000087,354.8650682999996,355.3825455999995,None,right,1,0.2685111999999208,355.3825455999995,None,None,354.18060780000087,355.3657366999996,0.5114486000002216,0.5949175999994623,1.7131303000005573,1.7964191999999457,,,,,,oren_3,001,2020_Jan_29_1337,posner,3.1.5,59.873320029158215,
0.5,180,1,right,2,4,1,0,1,0,5,6,46,7,,,,,,,,,355.6667338999996,356.16674799999964,356.8844595999999,None,356.18355370000063,356.8677146000009,357.3852640999994,None,right,1,0.2818442000007053,357.3852640999994,None,None,356.18355370000063,357.3683755000002,0.5115175999999337,0.5950467999991815,1.7131334999994579,1.7966983999995136,,,,,,oren_3,001,2020_Jan_29_1337,posner,3.1.5,59.873320029158215,
-0.5,0,1,left,1,3,1,0,1,0,5,7,47,1,,,,,,,,,357.68628759999956,358.1865797999999,358.90393199999926,None,358.2028764000006,358.8870745000004,359.40464489999977,None,left,1,0.2623112000001129,359.40464489999977,None,None,358.2028764000006,359.3877635000008,0.5117927000010241,0.5950339999999414,1.7129639000013412,1.7965847000014037,,,,,,oren_3,001,2020_Jan_29_1337,posner,3.1.5,59.873320029158215,
0.5,180,1,right,2,4,1,0,1,0,6,0,48,6,,,,,,,,,359.6893385000003,360.1889640999998,360.90700769999967,None,360.20574490000035,360.8898128000001,361.4075140999994,None,right,1,0.035526300000128685,361.4075140999994,None,None,360.20574490000035,361.39064379999945,0.5111993000009534,0.5949366000004375,1.712854300001709,None,,,,,,oren_3,001,2020_Jan_29_1337,posner,3.1.5,59.873320029158215,
-0.5,0,1,left,1,3,1,0,1,0,6,1,49,0,,,,,,,,,361.4746221000005,361.9750117000003,362.69262359999993,None,361.99152719999984,362.6757405999997,363.1932467000006,None,left,1,0.2017948000011529,363.1932467000006,None,None,361.99152719999984,363.1765842999994,0.511759200000597,0.5948764000004303,1.7133161000001564,1.7965812000002188,,,,,,oren_3,001,2020_Jan_29_1337,posner,3.1.5,59.873320029158215,
0.5,180,1,right,2,4,1,0,1,0,6,2,50,5,,,,,,,,,363.41131900000073,363.91121510000085,364.6284391999998,None,363.9275032000005,364.6118499000004,365.12908889999926,None,right,1,0.2179255999999441,365.12908889999926,None,None,363.9275032000005,365.11263379999946,0.5119562999989284,0.5950252000002365,1.7133658999991894,1.7967243000002782,,,,,,oren_3,001,2020_Jan_29_1337,posner,3.1.5,59.873320029158215,
-0.5,180,0,left,2,3,1,0,1,0,6,3,51,4,,,,,,,,,365.36331470000005,365.86358839999957,366.5812796000009,None,365.8801117999992,366.5644157000006,367.08197839999957,None,right,0,0.18504460000076506,367.08197839999957,None,None,365.8801117999992,367.0653736000004,0.5116552999988926,0.5949501999984932,1.7134246999994502,1.796504099998856,,,,,,oren_3,001,2020_Jan_29_1337,posner,3.1.5,59.873320029158215,
0.5,0,0,right,1,4,1,0,1,0,6,4,52,3,,,,,,,,,367.2829060999993,367.78275629999916,368.5005237000005,None,367.79949210000086,368.48369450000064,369.00121390000095,None,right,1,0.3138341000012588,369.00121390000095,None,None,367.79949210000086,368.9845987000008,0.5113400999998703,0.5948429000000033,1.713160200000857,1.7965995000013208,,,,,,oren_3,001,2020_Jan_29_1337,posner,3.1.5,59.873320029158215,
-0.5,0,1,left,1,3,1,0,1,0,6,5,53,1,,,,,,,,,369.33569180000086,369.83584189999965,370.55326849999983,None,369.8525239999999,370.53637979999985,371.05429899999945,None,left,1,0.29272519999904034,371.05429899999945,None,None,369.8525239999999,371.0374659000008,0.5116402000003291,0.5949584999998478,1.7132519999995566,1.796838000000207,,,,,,oren_3,001,2020_Jan_29_1337,posner,3.1.5,59.873320029158215,
-0.5,0,1,left,1,3,1,0,1,0,6,6,54,2,,,,,,,,,371.37151710000035,371.8716896999995,372.5893022,None,371.88845330000004,372.57305540000016,373.0901164000006,None,left,1,0.33699909999995725,373.0901164000006,None,None,371.88845330000004,373.07362190000094,0.5121911000005639,0.5957503999998153,1.714100099999996,1.7973493999998027,,,,,,oren_3,001,2020_Jan_29_1337,posner,3.1.5,59.873320029158215,
0.5,180,1,right,2,4,1,0,1,0,6,7,55,7,,,,,,,,,373.4577031000008,373.9580026000003,374.6756280999998,None,373.9747867999995,374.6590388000004,375.1764402000008,None,right,1,0.18655989999933809,375.1764402000008,None,None,373.9747867999995,375.15977999999996,0.5116373000000749,0.5952035000009346,1.713397299999997,1.7967287000010401,,,,,,oren_3,001,2020_Jan_29_1337,posner,3.1.5,59.873320029158215,
-0.5,0,1,left,1,3,1,0,1,0,7,0,56,2,,,,,,,,,375.39392430000044,375.89399629999934,376.6117312000006,None,375.91108200000053,376.59503700000096,377.1124717999992,None,left,1,0.28255019999960496,377.1124717999992,None,None,375.91108200000053,377.09587309999915,0.5114450000000943,0.5946554999991349,1.7132997999997315,1.7964283999990585,,,,,,oren_3,001,2020_Jan_29_1337,posner,3.1.5,59.873320029158215,
0.5,180,1,right,2,4,1,0,1,0,7,1,57,7,,,,,,,,,377.4141954000006,377.91333119999945,378.6311009000001,None,377.93013149999933,378.6145183000008,379.1319571999993,None,left,0,0.24723859999903652,379.1319571999993,None,None,377.93013149999933,379.1149820999999,0.5112518999994791,0.5946382000001904,1.7128647999998066,1.7963326000008237,,,,,,oren_3,001,2020_Jan_29_1337,posner,3.1.5,59.873320029158215,
-0.5,0,1,left,1,3,1,0,1,0,7,2,58,1,,,,,,,,,379.39876449999974,379.8994765000007,380.6169893999995,None,379.9161260000001,380.6002943000003,381.11778389999927,None,left,1,0.21324640000057116,381.11778389999927,None,None,379.9161260000001,381.1012687000002,0.51141429999916,0.5950916000001598,1.7131886999995913,1.7968263999991905,,,,,,oren_3,001,2020_Jan_29_1337,posner,3.1.5,59.873320029158215,
-0.5,0,1,left,1,3,1,0,1,0,7,3,59,0,,,,,,,,,381.3526808000006,381.8524947999995,382.56993540000076,None,381.8689359,382.5532863999997,383.0705180999994,None,left,1,0.21246889999929408,383.0705180999994,None,None,381.8689359,383.0539578000007,0.5115631999997277,0.5946762999992643,1.71300969999902,1.796384899998884,,,,,,oren_3,001,2020_Jan_29_1337,posner,3.1.5,59.873320029158215,
0.5,180,1,right,2,4,1,0,1,0,7,4,60,5,,,,,,,,,383.3052093999995,383.80481879999934,384.52290730000095,None,383.8217179000003,384.5059435999992,385.0231917000001,None,right,1,0.24389739999969606,385.0231917000001,None,None,383.8217179000003,385.0065433,0.511445599999206,0.5948800999995001,1.7131475999995018,1.796606599998995,,,,,,oren_3,001,2020_Jan_29_1337,posner,3.1.5,59.873320029158215,
0.5,0,0,right,1,4,1,0,1,0,7,5,61,3,,,,,,,,,385.2908869999992,385.7908944999999,386.50855779999983,None,385.8075270999998,386.49219129999983,387.0092557000007,None,left,0,0.2098841999995784,387.0092557000007,None,None,385.8075270999998,386.9927155000005,0.5114966000001004,0.5952072999989468,1.7132992999995622,1.7970284999992145,,,,,,oren_3,001,2020_Jan_29_1337,posner,3.1.5,59.873320029158215,
0.5,180,1,right,2,4,1,0,1,0,7,6,62,6,,,,,,,,,387.24344569999994,387.74367340000026,388.4614225999994,None,387.7602612999999,388.4446912000003,388.9622101999994,None,right,1,0.25699189999977534,388.9622101999994,None,None,387.7602612999999,388.9453443000002,0.5114785000005213,0.5949066000011953,1.7131380999999237,1.7965832000008959,,,,,,oren_3,001,2020_Jan_29_1337,posner,3.1.5,59.873320029158215,
-0.5,180,0,left,2,3,1,0,1,0,7,7,63,4,,,,,,,,,389.24610460000076,389.7464326999998,390.46424970000044,None,389.76321110000026,390.4472860999995,390.96481649999987,None,left,1,0.3182386000007682,390.96481649999987,None,None,389.76321110000026,390.94796040000074,0.5115392999996402,0.594935400000395,1.713058600000295,1.7967571999997745,,,,,,oren_3,001,2020_Jan_29_1337,posner,3.1.5,59.873320029158215,
-0.5,0,1,left,1,3,1,0,1,0,8,0,64,2,,,,,,,,,391.29871280000043,391.7992224000009,392.51688900000045,None,391.8160320999996,392.5005695,393.01760810000087,393.50171559999944,left,1,0.4896033000004536,393.01760810000087,None,None,391.8160320999996,393.00099950000003,0.5121333000006416,0.5957546000008733,1.7138976000005641,1.7973904000009497,,,,,,oren_3,001,2020_Jan_29_1337,posner,3.1.5,59.873320029158215,
0.5,0,0,right,1,4,1,0,1,0,8,1,65,3,,,,,,,,,393.53568280000036,394.0357301999993,394.75352720000046,None,394.0524385000008,394.7366560999999,395.25407430000087,None,right,1,0.46106030000009923,395.25407430000087,None,None,394.0524385000008,395.2372591000003,0.511501799999678,0.59477650000008,1.7130092999996123,1.7967360999991797,,,,,,oren_3,001,2020_Jan_29_1337,posner,3.1.5,59.873320029158215,
-0.5,180,0,left,2,3,1,0,1,0,8,2,66,4,,,,,,,,,395.73912329999985,396.2386279000002,396.95633930000076,None,396.25536680000005,396.93965430000026,397.45705090000047,395.73912329999985,right,0,0.16219620000083523,397.45705090000047,None,None,396.25536680000005,397.4404305999997,0.511001100001522,0.5947568000010506,1.7127862000015739,1.79632010000023,,,,,,oren_3,001,2020_Jan_29_1337,posner,3.1.5,59.873320029158215,
0.5,180,1,right,2,4,1,0,1,0,8,3,67,5,,,,,,,,,397.64205070000025,398.14140770000085,398.85900799999945,None,398.1579898,398.8424773000006,399.3598364999998,None,right,1,0.2593725999995513,399.3598364999998,None,None,398.1579898,399.34314930000073,0.5111451000011584,0.5947230000001582,1.7128647999998066,1.7963312000010774,,,,,,oren_3,001,2020_Jan_29_1337,posner,3.1.5,59.873320029158215,
-0.5,0,1,left,1,3,1,0,1,0,8,4,68,1,,,,,,,,,399.6439625999992,400.1441107999999,400.8620482999995,None,400.1610916999998,400.8450990000001,401.3626007999992,None,left,1,0.20842869999978575,401.3626007999992,None,None,400.1610916999998,401.3458864000004,0.5114811000003101,0.5947964999995747,1.713235799999893,1.796516899999915,,,,,,oren_3,001,2020_Jan_29_1337,posner,3.1.5,59.873320029158215,
0.5,180,1,right,2,4,1,0,1,0,8,5,69,6,,,,,,,,,401.5968223,402.0969752000001,402.8144802000006,None,402.11364180000055,402.79786989999957,403.31527370000003,None,right,1,0.11203789999854052,403.31527370000003,None,None,402.11364180000055,403.29839229999925,0.5117716000004293,0.5949901000003592,1.7131758000014088,1.796719000001758,,,,,,oren_3,001,2020_Jan_29_1337,posner,3.1.5,59.873320029158215,
-0.5,0,1,left,1,3,1,0,1,0,8,6,70,0,,,,,,,,,403.44970339999963,403.94926379999924,404.66705960000036,None,403.9660234999992,404.6503367999994,405.16766629999984,None,left,1,0.22742900000048394,405.16766629999984,None,None,403.9660234999992,405.15100150000035,0.5111372000010306,0.5946414000009099,1.7128526000014972,1.796507200000633,,,,,,oren_3,001,2020_Jan_29_1337,posner,3.1.5,59.873320029158215,
0.5,180,1,right,2,4,1,0,1,0,8,7,71,7,,,,,,,,,405.41808350000065,405.91873680000026,406.63631390000046,None,405.9356036999998,406.61976719999984,407.13707199999953,None,right,1,0.2420323999995162,407.13707199999953,None,None,405.9356036999998,407.12053670000023,0.5122304000014992,0.595907900000384,1.714033100000961,1.7976279000013164,,,,,,oren_3,001,2020_Jan_29_1337,posner,3.1.5,59.873320029158215,
-0.5,0,1,left,1,3,1,0,1,0,9,0,72,0,,,,,,,,,407.40443830000004,407.9050041999999,408.62276940000083,None,407.92178240000067,408.60580689999915,409.1233795999997,None,left,1,0.15978529999847524,409.1233795999997,None,None,407.92178240000067,409.1067000999992,0.5117603999988205,0.5949454999990849,1.7134439000001294,1.7966183999997156,,,,,,oren_3,001,2020_Jan_29_1337,posner,3.1.5,59.873320029158215,
0.5,180,1,right,2,4,1,0,1,0,9,1,73,5,,,,,,,,,409.30748420000054,409.80725259999963,410.5250716999999,None,409.8241366000002,410.5084274000001,411.02606899999955,None,right,1,0.1131020000011631,411.02606899999955,None,None,409.8241366000002,411.00905930000044,0.5111347000001842,0.5950007999999798,1.7129260999990947,1.7965729999996256,,,,,,oren_3,001,2020_Jan_29_1337,posner,3.1.5,59.873320029158215,
0.5,0,0,right,1,4,1,0,1,0,9,2,74,3,,,,,,,,,411.16012749999936,411.6600560000006,412.3775468999993,None,411.67683170000055,412.3610288,412.8784169999999,None,right,1,0.27673700000013923,412.8784169999999,None,None,411.67683170000055,412.8618399999996,0.511602499998844,0.5950188999995589,1.7133427999997366,1.7967090999991342,,,,,,oren_3,001,2020_Jan_29_1337,posner,3.1.5,59.873320029158215,
-0.5,0,1,left,1,3,1,0,1,0,9,3,75,2,,,,,,,,,413.1795975999994,413.67941210000026,414.3970862999995,None,413.69636700000046,414.3804304999994,414.89774729999954,None,left,1,0.32137519999923825,414.89774729999954,None,None,413.69636700000046,414.8812211000004,0.5115115999997215,0.5952463999983593,1.7132955999986734,1.7966699999997218,,,,,,oren_3,001,2020_Jan_29_1337,posner,3.1.5,59.873320029158215,
0.5,180,1,right,2,4,1,0,1,0,9,4,76,7,,,,,,,,,415.24896420000005,415.74893540000085,416.4668395000008,None,415.76590340000075,416.4499044000004,416.96737050000047,None,right,1,0.1876353999996354,416.96737050000047,None,None,415.76590340000075,416.95084189999943,0.511328800001138,0.5948036999998294,1.713229400000273,1.7967359000012948,,,,,,oren_3,001,2020_Jan_29_1337,posner,3.1.5,59.873320029158215,
-0.5,0,1,left,1,3,1,0,1,0,9,5,77,1,,,,,,,,,417.18443520000073,417.6852316000004,418.4028123999997,None,417.7018704000002,418.38632940000025,418.9035406999992,None,left,1,0.07582489999913378,418.9035406999992,None,None,417.7018704000002,418.8866431999995,0.5122675000002346,0.5957323000002361,1.7136646000017208,1.7972749000000476,,,,,,oren_3,001,2020_Jan_29_1337,posner,3.1.5,59.873320029158215,
-0.5,180,0,left,2,3,1,0,1,0,9,6,78,4,,,,,,,,,419.0042080000003,419.5042422000006,420.2221040000004,None,419.5212061000002,420.2051045999997,420.7226890000002,None,left,1,0.12852409999868541,420.7226890000002,None,None,419.5212061000002,420.70611459999964,0.51171179999983,0.5950121999994735,1.7135643999990862,1.7967521999999008,,,,,,oren_3,001,2020_Jan_29_1337,posner,3.1.5,59.873320029158215,
0.5,180,1,right,2,4,1,0,1,0,9,7,79,6,,,,,,,,,420.8736021000004,421.3736291999994,422.0913177000002,None,421.39015819999986,422.0743760999994,422.5919152000006,None,right,1,0.24319680000007793,422.5919152000006,None,None,421.39015819999986,422.5754001999994,0.5116163999991841,0.5949215999989974,1.7133727000000363,1.7963872000000265,,,,,,oren_3,001,2020_Jan_29_1337,posner,3.1.5,59.873320029158215,
0.5,180,1,right,2,4,1,0,1,0,10,0,80,6,,,,,,,,,422.85994500000015,423.35945139999967,424.0771213000007,None,423.3764272999997,424.06051389999993,424.57788830000027,None,right,1,0.1134407999998075,424.57788830000027,None,None,423.3764272999997,424.5613245000004,0.5111774999986665,0.5948649000001751,1.7130234999985987,1.7963600999992195,,,,,,oren_3,001,2020_Jan_29_1337,posner,3.1.5,59.873320029158215,
-0.5,180,0,left,2,3,1,0,1,0,10,1,81,4,,,,,,,,,424.71265139999923,425.2121865000008,425.9297869000002,None,425.2287219000009,425.91324899999927,426.4303801999995,None,right,0,0.13275570000041625,426.4303801999995,None,None,425.2287219000009,426.4139587000009,0.5112374000000273,0.5946123000012449,1.71299800000088,1.7964783000006719,,,,,,oren_3,001,2020_Jan_29_1337,posner,3.1.5,59.873320029158215,
0.5,0,0,right,1,4,1,0,1,0,10,2,82,3,,,,,,,,,426.5812482000001,427.0817492999995,427.7988688000005,None,427.0980534999999,427.7825286999996,428.3003358999995,None,right,1,0.23076469999978144,428.3003358999995,None,None,427.0980534999999,428.2830221999993,0.5125191999995877,0.5956072999997559,1.7137808999996196,1.7973829000002297,,,,,,oren_3,001,2020_Jan_29_1337,posner,3.1.5,59.873320029158215,
-0.5,0,1,left,1,3,1,0,1,0,10,3,83,0,,,,,,,,,428.5500513999996,429.05081229999996,429.76851050000005,None,429.0672966000002,429.75185729999976,430.26919369999996,None,left,1,0.08591209999940475,430.26919369999996,None,None,429.0672966000002,430.2525540000006,0.5124371999991126,0.5958604000006744,1.7141563999994105,1.797594499999832,,,,,,oren_3,001,2020_Jan_29_1337,posner,3.1.5,59.873320029158215,
-0.5,0,1,left,1,3,1,0,1,0,10,4,84,1,,,,,,,,,430.38632959999995,430.88654569999926,431.60431980000067,None,430.90351460000056,431.58745180000005,432.10504779999974,None,left,1,0.1380631000010908,432.10504779999974,None,None,430.90351460000056,432.0883489000007,0.5113166999999521,0.5947530000012193,1.7131036000009772,1.7966730000007374,,,,,,oren_3,001,2020_Jan_29_1337,posner,3.1.5,59.873320029158215,
0.5,180,1,right,2,4,1,0,1,0,10,5,85,7,,,,,,,,,432.27241800000047,432.7727235000002,433.4901226000002,None,432.78923810000015,433.4735825000007,433.99091039999985,None,right,1,0.28443030000016734,433.99091039999985,None,None,432.78923810000015,433.97420969999985,0.511676100000841,0.5951547000004211,1.7131499000006443,1.7964255999995657,,,,,,oren_3,001,2020_Jan_29_1337,posner,3.1.5,59.873320029158215,
-0.5,0,1,left,1,3,1,0,1,0,10,6,86,2,,,,,,,,,434.29223450000063,434.79209959999935,435.5096009000008,None,434.8087078000008,435.4930918000009,436.01033839999945,None,left,1,0.21685359999901266,436.01033839999945,None,None,434.8087078000008,435.9937613000002,0.511559299999135,0.5949672000006103,1.713204699999551,1.7964429000003292,,,,,,oren_3,001,2020_Jan_29_1337,posner,3.1.5,59.873320029158215,
0.5,180,1,right,2,4,1,0,1,0,10,7,87,5,,,,,,,,,436.2451598000007,436.7446328999995,437.4624564000005,None,436.76139630000034,437.44571130000077,437.96311199999946,None,left,0,0.2001668000011705,437.96311199999946,None,None,436.76139630000034,437.9464164000001,0.5113722999994934,0.594851199999539,1.713132199998654,1.7964718999992328,,,,,,oren_3,001,2020_Jan_29_1337,posner,3.1.5,59.873320029158215,
,,,,,,1,0,1,0,,,,,,,,,,,,,,,,,,,,,,,,,,,,,,,,,,438.1804128999993,None,1.720000000204891e-05,0.9956126999986736,oren_3,001,2020_Jan_29_1337,posner,3.1.5,59.873320029158215,
0.5,180,1,right,2,4,2,0,2,0,0,0,0,5,1.2599999536178075e-05,0.09747050000078161,499.19797590000053,None,1.5400000847876072e-05,0.09778469999946537,501.3005582000005,None,501.57904020000024,502.0849565999997,502.80279960000007,None,502.10178710000037,502.78599380000014,503.3033742000007,None,right,1,0.2519618000005721,503.3033742000007,None,None,502.10178710000037,503.2866639999993,0.5144394000017201,0.5978555000001506,1.7161341000009998,1.7995945000002393,,,,,,oren_3,001,2020_Jan_29_1337,posner,3.1.5,59.873320029158215,
-0.5,0,1,left,1,3,2,0,2,0,0,1,1,1,,,,,,,,,503.5710075999996,504.07116309999947,504.7885193000002,None,504.0877705999992,504.77218790000006,505.28942520000055,None,left,1,0.20190489999913552,505.28942520000055,None,None,504.0877705999992,505.2727673999998,0.5110742999986542,0.5944016999983432,1.7126679999983025,1.7962388999985706,,,,,,oren_3,001,2020_Jan_29_1337,posner,3.1.5,59.873320029158215,
-0.5,180,0,left,2,3,2,0,2,0,0,2,2,4,,,,,,,,,505.50687219999963,506.00694640000074,506.72475529999974,None,506.02380640000047,506.7079967999998,507.2255237999998,None,right,0,0.20180070000060368,507.2255237999998,None,None,506.02380640000047,507.20877010000004,0.511406800000259,0.5949154999998427,1.713214199999129,1.7967064999993454,,,,,,oren_3,001,2020_Jan_29_1337,posner,3.1.5,59.873320029158215,
-0.5,0,1,left,1,3,2,0,2,0,0,3,3,0,,,,,,,,,507.44324810000035,507.9430783000007,508.6609021000004,None,507.95974039999965,508.6441783999999,509.16153119999944,None,left,1,0.2657500000004802,509.16153119999944,None,None,507.95974039999965,509.14470380000057,0.5113548999997874,0.594799200000125,1.7129574000009598,1.7962796000010712,,,,,,oren_3,001,2020_Jan_29_1337,posner,3.1.5,59.873320029158215,
0.5,180,1,right,2,4,2,0,2,0,0,4,4,7,,,,,,,,,509.44579370000065,509.94588880000083,510.6635600999998,None,509.9625544999999,510.6468057000002,511.1641280999993,None,right,1,0.13527669999893988,511.1641280999993,None,None,509.9625544999999,511.1473535999994,0.5116336000010051,0.5949208000001818,1.7130868999993254,1.7968421999994462,,,,,,oren_3,001,2020_Jan_29_1337,posner,3.1.5,59.873320029158215,
0.5,0,0,right,1,4,2,0,2,0,0,5,5,3,,,,,,,,,511.3151290000005,511.81526400000075,512.5329001999999,None,511.8317422,512.5161186000005,513.033555,None,left,0,0.08986539999932575,513.033555,None,None,511.8317422,513.0168995000004,0.5118313000002672,0.5949342000003526,1.7134519999999611,1.7966481999992538,,,,,,oren_3,001,2020_Jan_29_1337,posner,3.1.5,59.873320029158215,
0.5,180,1,right,2,4,2,0,2,0,0,6,6,6,,,,,,,,,513.1512471999995,513.6509423000007,514.3685255,None,513.6675080999994,514.3519988000007,514.8693784000006,515.3533781999995,None,0,,514.8693784000006,None,None,513.6675080999994,514.8525269000002,0.5118101999996725,0.5949225999993359,1.71304869999949,1.7967033000004449,,,,,,oren_3,001,2020_Jan_29_1337,posner,3.1.5,59.873320029158215,
-0.5,0,1,left,1,3,2,0,2,0,0,7,7,2,,,,,,,,,515.8539911999997,516.3548860999999,517.0724341999994,515.8539911999997,516.3716225000007,517.0556698,517.5729898000009,None,left,1,0.14229070000146748,517.5729898000009,None,None,516.3716225000007,517.5564347,0.5139428000002226,0.5970779000017501,1.7154763000016828,1.7986645000000863,,,,,,oren_3,001,2020_Jan_29_1337,posner,3.1.5,59.873320029158215,
0.5,180,1,right,2,4,2,0,2,0,1,0,8,5,,,,,,,,,517.7405572999996,518.2406116000002,518.9581706000008,None,518.2571776999994,518.9415222999996,519.4588297999999,None,right,1,0.2243823999997403,519.4588297999999,None,None,518.2571776999994,519.4423723,0.5118431999999302,0.5952428999989934,1.7136004000003595,1.7969253999999637,,,,,,oren_3,001,2020_Jan_29_1337,posner,3.1.5,59.873320029158215,
0.5,180,1,right,2,4,2,0,2,0,1,1,9,7,,,,,,,,,519.7100898999997,520.2099049999997,520.9276229000006,None,520.226627,520.9112992000009,521.4282354000006,None,right,1,0.07897960000082094,521.4282354000006,None,None,520.226627,521.4118225000002,0.5114171999994142,0.5950059000006149,1.7133176000006642,1.7966832000001887,,,,,,oren_3,001,2020_Jan_29_1337,posner,3.1.5,59.873320029158215,
-0.5,180,0,left,2,3,2,0,2,0,1,2,10,4,,,,,,,,,521.5292651,522.0291037999996,522.7469385000004,None,522.045946100001,522.7301196000008,523.2475451000009,None,right,0,0.09986940000089817,523.2475451000009,None,None,522.045946100001,523.2307906999995,0.5113780000010593,0.5950508000005357,1.7130637999998726,1.7965428000006796,,,,,,oren_3,001,2020_Jan_29_1337,posner,3.1.5,59.873320029158215,
-0.5,0,1,left,1,3,2,0,2,0,1,3,11,1,,,,,,,,,523.3649115999997,523.8650885000006,524.5827678000005,None,523.8820765,524.5663081000002,525.0833309000009,None,left,1,0.24799650000022666,525.0833309000009,None,None,523.8820765,525.0667873999992,0.5118313999992097,0.5950536000000284,1.7135089000003063,1.796912699999666,,,,,,oren_3,001,2020_Jan_29_1337,posner,3.1.5,59.873320029158215,
-0.5,0,1,left,1,3,2,0,2,0,1,4,12,0,,,,,,,,,525.3513504000002,525.8511330000001,526.5688723999992,None,525.8677014000004,526.5521040999993,527.0694738000002,None,left,1,0.19785570000021835,527.0694738000002,None,None,525.8677014000004,527.0529549999992,0.5113490000003367,0.5948438000013994,1.7131480000007286,1.7965117000003374,,,,,,oren_3,001,2020_Jan_29_1337,posner,3.1.5,59.873320029158215,
0.5,180,1,right,2,4,2,0,2,0,1,5,13,6,,,,,,,,,527.2865732999999,527.7869358999997,528.5046970000003,None,527.8038472000007,528.4878788999995,529.0056163999998,None,right,1,0.14972610000040731,529.0056163999998,None,None,527.8038472000007,528.9885969000006,0.5113067999991472,0.5948298999992403,1.7129500999999436,1.7966992999990907,,,,,,oren_3,001,2020_Jan_29_1337,posner,3.1.5,59.873320029158215,
-0.5,0,1,left,1,3,2,0,2,0,1,6,14,2,,,,,,,,,529.1734164000009,529.6732322999997,530.3906779000008,None,529.6897645000008,530.3741042000001,530.8914629999999,None,left,1,0.1678807999996934,530.8914629999999,None,None,529.6897645000008,530.8748187000001,0.5113047999984701,0.5946211999998923,1.712880099999893,1.7960605999996915,,,,,,oren_3,001,2020_Jan_29_1337,posner,3.1.5,59.873320029158215,
0.5,0,0,right,1,4,2,0,2,0,1,7,15,3,,,,,,,,,531.0756643999994,531.5758010000009,532.2933542999999,None,531.5924126999998,532.2767072999995,532.7941284000008,None,left,0,0.041197600001396495,532.7941284000008,None,None,531.5924126999998,532.7772722000009,0.5118655000005674,0.5951373999996576,1.7133250000006228,None,,,,,,oren_3,001,2020_Jan_29_1337,posner,3.1.5,59.873320029158215,
0.5,180,1,right,2,4,2,0,2,0,2,0,16,5,,,,,,,,,532.8630336000006,533.3615358999996,534.0790842000006,None,533.3780662000008,534.0625237000004,534.5797961999997,None,right,1,0.19143629999962286,534.5797961999997,None,None,533.3780662000008,534.5632922999994,0.5093089000001783,0.5926822999990691,1.7110506999997597,1.7944376999985252,,,,,,oren_3,001,2020_Jan_29_1337,posner,3.1.5,59.873320029158215,
-0.5,0,1,left,1,3,2,0,2,0,2,1,17,1,,,,,,,,,534.7970150000001,535.2974463999999,536.0152538999992,None,535.3141914999997,535.998359700001,536.5161466999998,None,left,1,0.22328710000147112,536.5161466999998,None,None,535.3141914999997,536.4991692000003,0.5119038000011642,0.5954677000008815,1.7136136999997689,1.7971422000009625,,,,,,oren_3,001,2020_Jan_29_1337,posner,3.1.5,59.873320029158215,
-0.5,180,0,left,2,3,2,0,2,0,2,2,18,4,,,,,,,,,536.7669640999993,537.2668565999993,537.9846235999994,None,537.2837013000008,537.9677747000005,538.4854396999999,None,right,0,0.045951899999636225,538.4854396999999,None,None,537.2837013000008,538.4685590999998,0.5115263999996387,0.5949500999995507,1.713215499999933,None,,,,,,oren_3,001,2020_Jan_29_1337,posner,3.1.5,59.873320029158215,
-0.5,0,1,left,1,3,2,0,2,0,2,3,19,2,,,,,,,,,538.5529538999999,539.0528439999998,539.7702802000003,None,539.0693482000006,539.7536970000001,540.2710325999997,None,left,1,0.21217840000099386,540.2710325999997,None,None,539.0693482000006,540.2543765999999,0.5116775000005873,0.5952261000002181,1.7132178000010754,1.7964193000007072,,,,,,oren_3,001,2020_Jan_29_1337,posner,3.1.5,59.873320029158215,
0.5,180,1,right,2,4,2,0,2,0,2,4,20,6,,,,,,,,,540.5053320000006,541.0052976000006,541.7232488999998,None,541.0222942,541.7064630000004,542.2237621000004,None,right,1,0.2274781999985862,542.2237621000004,None,None,541.0222942,542.2071993999998,0.5116133999999875,0.595028400000956,1.71348880000005,1.7966883000008238,,,,,,oren_3,001,2020_Jan_29_1337,posner,3.1.5,59.873320029158215,
0.5,180,1,right,2,4,2,0,2,0,2,5,21,7,,,,,,,,,542.4742853999996,542.9747883,543.6926072999995,None,542.9914095000004,543.6757414999993,544.1932173000005,None,right,1,0.1940331999994669,544.1932173000005,None,None,542.9914095000004,544.1764249999997,0.5118794000009075,0.5952818000005209,1.71349999999984,1.7969319000003452,,,,,,oren_3,001,2020_Jan_29_1337,posner,3.1.5,59.873320029158215,
-0.5,0,1,left,1,3,2,0,2,0,2,6,22,0,,,,,,,,,544.4113952000007,544.9111993999995,545.6284957000007,None,544.9274201999997,545.6117646000002,546.1290126000004,None,left,1,0.13035520000084944,546.1290126000004,None,None,544.9274201999997,546.1125159000003,0.5118201999994199,0.5947816999996576,1.7131269999990764,1.7965473999993264,,,,,,oren_3,001,2020_Jan_29_1337,posner,3.1.5,59.873320029158215,
0.5,0,0,right,1,4,2,0,2,0,2,7,23,3,,,,,,,,,546.2802634,546.7798899000009,547.4978105999999,None,546.7966993000009,547.4809280999998,547.9983106,None,left,0,0.14912819999881322,547.9983106,None,None,546.7966993000009,547.9817101999997,0.5112807000004977,0.5949915000001056,1.7130835999996634,1.7965139999996609,,,,,,oren_3,001,2020_Jan_29_1337,posner,3.1.5,59.873320029158215,
0.5,0,0,right,1,4,2,0,2,0,3,0,24,3,,,,,,,,,548.1661805000003,548.6660537999996,549.3835116000009,None,548.6828502000008,549.3668147999997,549.884343400001,550.3681827,right,1,0.615015699999276,549.884343400001,None,None,548.6828502000008,549.8675294999994,0.5115311999998085,0.5948766000001342,1.7129849000011745,1.7968906999994942,,,,,,oren_3,001,2020_Jan_29_1337,posner,3.1.5,59.873320029158215,
0.5,180,1,right,2,4,2,0,2,0,3,1,25,7,,,,,,,,,550.5194852000004,551.0192351999995,551.7369658999996,None,551.0358539999997,551.7201573999992,552.2374419000007,None,right,1,0.21392899999955262,552.2374419000007,None,None,551.0358539999997,552.2209101000008,0.5114340000000084,0.5947594999997818,1.713090100000045,1.7966204000003927,,,,,,oren_3,001,2020_Jan_29_1337,posner,3.1.5,59.873320029158215,
-0.5,0,1,left,1,3,2,0,2,0,3,2,26,2,,,,,,,,,552.4726453999992,552.9722087999999,553.689459700001,None,552.9884722999996,553.6729933999995,554.1901859000009,None,left,1,0.2614288000004308,554.1901859000009,None,None,552.9884722999996,554.1738232999996,0.5117621999997937,0.5949232999992091,1.7133599999997386,1.7965877999995428,,,,,,oren_3,001,2020_Jan_29_1337,posner,3.1.5,59.873320029158215,
0.5,180,1,right,2,4,2,0,2,0,3,3,27,6,,,,,,,,,554.4750538000008,554.9746685999999,555.6924736000001,None,554.9913152000008,555.6757111999996,556.1932049000006,None,right,1,0.226114699999016,556.1932049000006,None,None,554.9913152000008,556.1764058000008,0.5114658000002237,0.5947523000013462,1.7131626999998844,1.7965942999999243,,,,,,oren_3,001,2020_Jan_29_1337,posner,3.1.5,59.873320029158215,
-0.5,180,0,left,2,3,2,0,2,0,3,4,28,4,,,,,,,,,556.4443878000002,556.9440269999996,557.6616408999998,None,556.9606609999992,557.6453161000009,558.1625275000006,None,right,0,0.2248931000012817,558.1625275000006,None,None,556.9606609999992,558.1457167999997,0.5113901000004262,0.5947443000004569,1.7130697000011423,1.7964205000007496,,,,,,oren_3,001,2020_Jan_29_1337,posner,3.1.5,59.873320029158215,
-0.5,0,1,left,1,3,2,0,2,0,3,5,29,1,,,,,,,,,558.4137136000008,558.9133581999995,559.6312835999997,None,558.9301083000009,559.6145247999993,560.1319346,None,left,1,0.2554973999995127,560.1319346,None,None,558.9301083000009,560.1152679999996,0.5114472000004753,0.5948975999999675,1.7133338000003278,1.7965383999999176,,,,,,oren_3,001,2020_Jan_29_1337,posner,3.1.5,59.873320029158215,
-0.5,0,1,left,1,3,2,0,2,0,3,6,30,0,,,,,,,,,560.4159596000009,560.9161798999994,561.6340132999994,None,560.9330088999995,561.6171907000007,562.1346095000008,None,left,1,0.23672110000006796,562.1346095000008,None,None,560.9330088999995,562.1179692999995,0.5115862999991805,0.5950936999997793,1.7133467999992718,1.7968457999995735,,,,,,oren_3,001,2020_Jan_29_1337,posner,3.1.5,59.873320029158215,
0.5,180,1,right,2,4,2,0,2,0,3,7,31,5,,,,,,,,,562.4020784000004,562.9023046000002,563.6199166000006,None,562.9189571000006,563.6032539000007,564.1206947999999,None,right,1,0.18674250000003667,564.1206947999999,None,None,562.9189571000006,564.1039977,0.5115697999990516,0.595218799999202,1.7132406999990053,1.7969420999997965,,,,,,oren_3,001,2020_Jan_29_1337,posner,3.1.5,59.873320029158215,
-0.5,0,1,left,1,3,2,0,2,0,4,0,32,1,,,,,,,,,564.3380665999994,564.8382760000004,565.5560587,None,564.8550770000002,565.5391189000002,566.0566435000001,None,left,1,0.07465070000034757,566.0566435000001,None,None,564.8550770000002,566.0399278999994,0.511545199999091,0.5951666000000841,1.71317850000014,1.7965671000001748,,,,,,oren_3,001,2020_Jan_29_1337,posner,3.1.5,59.873320029158215,
0.5,180,1,right,2,4,2,0,2,0,4,1,33,6,,,,,,,,,566.1577472000008,566.6576377000001,567.3750512999995,None,566.6741027000007,567.3585077999996,567.8760299999994,None,right,1,0.1593427999996493,567.8760299999994,None,None,566.6741027000007,567.8591352999993,0.5116060000000289,0.594861999999921,1.713092299998607,1.7966093999984878,,,,,,oren_3,001,2020_Jan_29_1337,posner,3.1.5,59.873320029158215,
-0.5,0,1,left,1,3,2,0,2,0,4,2,34,2,,,,,,,,,568.0600427999998,568.5600771000009,569.2775627999999,None,568.5769142999998,569.2609161,569.7784083999995,None,left,1,0.305044499998985,569.7784083999995,None,None,568.5769142999998,569.7620255000002,0.5114797000005638,0.5951576999996178,1.7134062000004633,1.7966379999998026,,,,,,oren_3,001,2020_Jan_29_1337,posner,3.1.5,59.873320029158215,
0.5,0,0,right,1,4,2,0,2,0,4,3,35,3,,,,,,,,,570.1129338999999,570.6130059000006,571.3306321,None,570.6295193999995,571.3139646,571.8313552,None,left,0,0.2520242999999027,571.8313552,None,None,570.6295193999995,571.8145442999994,0.511406800000259,0.5946602000003622,1.7129328000009991,1.7963030999999319,,,,,,oren_3,001,2020_Jan_29_1337,posner,3.1.5,59.873320029158215,
0.5,180,1,right,2,4,2,0,2,0,4,4,36,7,,,,,,,,,572.0990827999995,572.5989181000004,573.3167601999994,None,572.6157012999993,573.2999455999998,573.8172696000001,None,right,1,0.2981433000004472,573.8172696000001,None,None,572.6157012999993,573.8006306000007,0.5116006999996898,0.5951281999987259,1.7132947999998578,1.7968623999986448,,,,,,oren_3,001,2020_Jan_29_1337,posner,3.1.5,59.873320029158215,
0.5,180,1,right,2,4,2,0,2,0,4,5,37,5,,,,,,,,,574.1345299000004,574.6352148000005,575.3528351999994,None,574.6520851000005,575.3363212000004,575.8535331999992,None,right,1,0.14995690000068862,575.8535331999992,None,None,574.6520851000005,575.8367687000009,0.5123600000006263,0.595720600000277,1.7139026999993803,1.7972896999999648,,,,,,oren_3,001,2020_Jan_29_1337,posner,3.1.5,59.873320029158215,
-0.5,180,0,left,2,3,2,0,2,0,4,6,38,4,,,,,,,,,576.0215704000002,576.5212984000009,577.2387407000006,None,576.537786500001,577.2223400999992,577.7394875000009,None,right,0,0.10387550000086776,577.7394875000009,None,None,576.537786500001,577.7230450000006,0.5117589000001317,0.5948907000001782,1.713487900000473,1.7967626999998174,,,,,,oren_3,001,2020_Jan_29_1337,posner,3.1.5,59.873320029158215,
-0.5,0,1,left,1,3,2,0,2,0,4,7,39,0,,,,,,,,,577.8736308999996,578.3737142000009,579.0914302000001,None,578.3903606000003,579.0747069999998,579.5919582000006,None,left,1,0.26735310000003665,579.5919582000006,None,None,578.3903606000003,579.575495000001,0.5115815999997722,0.5950771999996505,1.713340700000117,1.7966354000000138,,,,,,oren_3,001,2020_Jan_29_1337,posner,3.1.5,59.873320029158215,
-0.5,0,1,left,1,3,2,0,2,0,5,0,40,0,,,,,,,,,579.8763405000009,580.3766082000002,581.0942161999992,None,580.3932664000004,581.0773062999997,581.5948413000006,None,left,1,0.28058969999983674,581.5948413000006,None,None,580.3932664000004,581.5780314999993,0.5118961999996827,0.5951117999993585,1.7133054999994783,1.7969369000002189,,,,,,oren_3,001,2020_Jan_29_1337,posner,3.1.5,59.873320029158215,
0.5,180,1,right,2,4,2,0,2,0,5,1,41,7,,,,,,,,,581.8958822000004,582.3958605000007,583.1137003000003,None,582.4126484999997,583.0970579999994,583.6142215,None,right,1,0.21318430000064836,583.6142215,None,None,582.4126484999997,583.5973463000009,0.5116560000005848,0.5950580999997328,1.713121200000387,1.7967246000007435,,,,,,oren_3,001,2020_Jan_29_1337,posner,3.1.5,59.873320029158215,
0.5,180,1,right,2,4,2,0,2,0,5,2,42,5,,,,,,,,,583.8481200000006,584.3484757999995,585.0661663999999,None,584.3654592000003,585.0494904999996,585.5669901000001,None,right,1,0.2123253999998269,585.5669901000001,None,None,584.3654592000003,585.5501824000003,0.5119242000000668,0.5955879000011919,1.7136139000012918,1.7973612000005232,,,,,,oren_3,001,2020_Jan_29_1337,posner,3.1.5,59.873320029158215,
-0.5,0,1,left,1,3,2,0,2,0,5,3,43,2,,,,,,,,,585.8016074000006,586.3013193000006,587.0189004000003,None,586.3178349999998,587.0024075000001,587.5196367999997,None,left,1,0.24373990000094636,587.5196367999997,None,None,586.3178349999998,587.5031823999998,0.5114260999998805,0.5947752000010951,1.7132743000001938,1.7965597000002163,,,,,,oren_3,001,2020_Jan_29_1337,posner,3.1.5,59.873320029158215,
-0.5,0,1,left,1,3,2,0,2,0,5,4,44,1,,,,,,,,,587.7871565000005,588.2874477999994,589.0051363000002,None,588.3040595000002,588.9881949999999,589.5056977999993,None,left,1,0.1297618999997212,589.5056977999993,None,None,588.3040595000002,589.4889244999995,0.5121230999993713,0.5954282999991847,1.7135806999995111,1.7973856999997224,,,,,,oren_3,001,2020_Jan_29_1337,posner,3.1.5,59.873320029158215,
-0.5,180,0,left,2,3,2,0,2,0,5,5,45,4,,,,,,,,,589.6567942000001,590.1567577999995,590.8743176999997,None,590.1733638999995,590.8574260000005,591.3750657,None,right,0,0.11651610000080836,591.3750657,None,None,590.1733638999995,591.358060300001,0.5116882000002079,0.5949068999998417,1.7129803999996511,1.7965693999994983,,,,,,oren_3,001,2020_Jan_29_1337,posner,3.1.5,59.873320029158215,
0.5,180,1,right,2,4,2,0,2,0,5,6,46,6,,,,,,,,,591.5090493999996,592.0090536999996,592.7269455000005,None,592.0259667999999,592.710004300001,593.2275795000005,None,right,1,0.23190299999987474,593.2275795000005,None,None,592.0259667999999,593.2107271999994,0.5113792000011017,0.595043600000281,1.7130354000000807,1.7966916000004858,,,,,,oren_3,001,2020_Jan_29_1337,posner,3.1.5,59.873320029158215,
0.5,0,0,right,1,4,2,0,2,0,5,7,47,3,,,,,,,,,593.4782321000002,593.9784930000005,594.6962678,None,593.9952711000005,594.6794038999997,595.1967836999993,None,left,0,0.2947846999995818,595.1967836999993,None,None,593.9952711000005,595.1801324999997,0.5117857999994158,0.5954526999994414,1.7134074000005057,1.797091200000068,,,,,,oren_3,001,2020_Jan_29_1337,posner,3.1.5,59.873320029158215,
0.5,180,1,right,2,4,2,0,2,0,6,0,48,6,,,,,,,,,595.5147481000004,596.0147966999994,596.7323653999993,None,596.0314302000006,596.7158536999996,597.233150600001,None,right,1,0.21029509999971197,597.233150600001,None,None,596.0314302000006,597.2165203999994,0.511361200000465,0.5945890000002692,1.7130608999996184,1.7963271000007808,,,,,,oren_3,001,2020_Jan_29_1337,posner,3.1.5,59.873320029158215,
-0.5,0,1,left,1,3,2,0,2,0,6,1,49,0,,,,,,,,,597.4671553999997,597.9672083999994,598.6851258000006,None,597.9843017000003,598.6682406,599.1856227000007,None,left,1,0.2577765999994881,599.1856227000007,None,None,597.9843017000003,599.1691231000004,0.5115999000008742,0.5951208999995288,1.7134949999999662,1.797077100000024,,,,,,oren_3,001,2020_Jan_29_1337,posner,3.1.5,59.873320029158215,
0.5,180,1,right,2,4,2,0,2,0,6,2,50,5,,,,,,,,,599.4703274999993,599.9702008000004,600.6877946999994,None,599.9867747999997,600.6711589999995,601.1883718999998,None,right,1,0.1110912999993161,601.1883718999998,None,None,599.9867747999997,601.1719092000003,0.5115525000001071,0.5947758000002068,1.7132180000007793,1.7965683000002173,,,,,,oren_3,001,2020_Jan_29_1337,posner,3.1.5,59.873320029158215,
-0.5,180,0,left,2,3,2,0,2,0,6,3,51,4,,,,,,,,,601.3223768999997,601.8227564999997,602.5403822999997,None,601.8393828999997,602.5236306000006,603.0411009,None,left,1,0.29041119999965304,603.0411009,None,None,601.8393828999997,603.0243903999999,0.512303299999985,0.5958229000007123,1.7139157000001433,1.797250100000383,,,,,,oren_3,001,2020_Jan_29_1337,posner,3.1.5,59.873320029158215,
0.5,180,1,right,2,4,2,0,2,0,6,4,52,7,,,,,,,,,603.3591894000001,603.8586472999996,604.5766739999999,None,603.8756085000005,604.5599027999997,605.0771590000004,None,right,1,0.222338800000216,605.0771590000004,None,None,603.8756085000005,605.0604641999998,0.5111288999996759,0.5946261000008235,1.7129277999993064,1.7966188999998849,,,,,,oren_3,001,2020_Jan_29_1337,posner,3.1.5,59.873320029158215,
0.5,0,0,right,1,4,2,0,2,0,6,5,53,3,,,,,,,,,605.3277557000001,605.8282099000007,606.546027800001,None,605.8450560000001,606.5291533,607.0467492999996,None,left,0,0.20459239999945567,607.0467492999996,None,None,605.8450560000001,607.0298151000006,0.5119689999992261,0.5958154999989347,1.7135619000000588,1.7971569999990606,,,,,,oren_3,001,2020_Jan_29_1337,posner,3.1.5,59.873320029158215,
-0.5,0,1,left,1,3,2,0,2,0,6,6,54,1,,,,,,,,,607.2808387999994,607.7808679999998,608.4985445000002,None,607.7977030000002,608.4821171999993,608.9993321000002,None,left,1,0.26800659999935306,608.9993321000002,None,None,607.7977030000002,608.9827019000004,0.5115706999986287,0.5951200999988941,1.7133508999995684,1.7968588000003365,,,,,,oren_3,001,2020_Jan_29_1337,posner,3.1.5,59.873320029158215,
-0.5,0,1,left,1,3,2,0,2,0,6,7,55,2,,,,,,,,,609.2857046999998,609.7839426999999,610.5014033999996,None,609.8002448000007,610.4850757000004,611.0021809000009,None,left,1,0.2333515999998781,611.0021809000009,None,None,609.8002448000007,610.9853949999997,0.5103897999997571,0.5934962999999698,1.7118313999999373,1.7951978999990388,,,,,,oren_3,001,2020_Jan_29_1337,posner,3.1.5,59.873320029158215,
0.5,180,1,right,2,4,2,0,2,0,7,0,56,6,,,,,,,,,611.2527647000006,611.7531454,612.4707682999997,None,611.7698517000008,612.4541580000005,612.971657,None,right,1,0.3437560999991547,612.971657,None,None,611.7698517000008,612.9547387000002,0.512178999999378,0.595508799999152,1.7137490000004618,1.7971553999996104,,,,,,oren_3,001,2020_Jan_29_1337,posner,3.1.5,59.873320029158215,
0.5,180,1,right,2,4,2,0,2,0,7,1,57,5,,,,,,,,,613.3392533000006,613.8392285000009,614.5569465000008,None,613.8560297000004,614.5401056999999,615.0574988999997,None,right,1,0.13000319999991916,615.0574988999997,None,None,613.8560297000004,615.0408606000001,0.5112933999989764,0.5950709999997343,1.712908299999981,1.7965715999998793,,,,,,oren_3,001,2020_Jan_29_1337,posner,3.1.5,59.873320029158215,
-0.5,0,1,left,1,3,2,0,2,0,7,2,58,0,,,,,,,,,615.2084298999998,615.7084200999998,616.4262765999993,None,615.7252313999998,616.4098415000008,616.926931,None,left,1,0.05249010000079579,616.926931,None,None,615.7252313999998,616.9105761999999,0.511583999999857,0.5952982999988308,1.7137282000003324,1.7968963999992411,,,,,,oren_3,001,2020_Jan_29_1337,posner,3.1.5,59.873320029158215,
-0.5,180,0,left,2,3,2,0,2,0,7,3,59,4,,,,,,,,,617.0106271999994,617.5109888000006,618.2285644999993,None,617.5276135000004,618.2121007000005,618.7293009999994,None,right,0,0.17011689999890223,618.7293009999994,None,None,617.5276135000004,618.712837000001,0.5114893000009033,0.5950682000002416,1.7133152000005794,1.796679299999596,,,,,,oren_3,001,2020_Jan_29_1337,posner,3.1.5,59.873320029158215,
-0.5,0,1,left,1,3,2,0,2,0,7,4,60,1,,,,,,,,,618.9300540000004,619.4302499000005,620.1478122000008,None,619.4469694,620.1313372000004,620.6487562999991,None,left,1,0.15466099999866856,620.6487562999991,None,None,619.4469694,620.6321609999995,0.5115454000006139,0.595031700000618,1.7134392999996635,1.796872799999619,,,,,,oren_3,001,2020_Jan_29_1337,posner,3.1.5,59.873320029158215,
0.5,0,0,right,1,4,2,0,2,0,7,5,61,3,,,,,,,,,620.8330057999992,621.3330100999992,622.0506528999995,None,621.3497674000009,622.0340658000005,622.5513821999994,None,right,1,0.3481439999995928,622.5513821999994,None,None,621.3497674000009,622.5346382999996,0.5114449000011518,0.5949230000005628,1.7130627000005916,1.7963138000013714,,,,,,oren_3,001,2020_Jan_29_1337,posner,3.1.5,59.873320029158215,
-0.5,0,1,left,1,3,2,0,2,0,7,6,62,2,,,,,,,,,622.9192930000008,623.4191628999997,624.1368387999992,None,623.4359081999992,624.1200819999995,624.6374634000003,None,left,1,0.29402830000071845,624.6374634000003,None,None,623.4359081999992,624.6209373000002,0.5112118000015471,0.5949479999999312,1.7129677000011725,1.7963953000016772,,,,,,oren_3,001,2020_Jan_29_1337,posner,3.1.5,59.873320029158215,
0.5,180,1,right,2,4,2,0,2,0,7,7,63,7,,,,,,,,,624.9551360000005,625.4554157999992,626.1732790999995,None,625.4723118000002,626.1564591000006,626.6738344999994,None,right,1,0.19359369999983755,626.6738344999994,None,None,625.4723118000002,626.6569901999992,0.5118265000000974,0.5949870000004012,1.7133912999997847,1.7967515000000276,,,,,,oren_3,001,2020_Jan_29_1337,posner,3.1.5,59.873320029158215,
-0.5,0,1,left,1,3,2,0,2,0,8,0,64,1,,,,,,,,,626.8913343000004,627.3914693999996,628.1089787000001,None,627.4082698999991,628.0923652000001,628.6097038999997,None,left,1,0.08178529999895545,628.6097038999997,None,None,627.4082698999991,628.5931187000006,0.5119181999998546,0.595332299999427,1.713551599999846,1.7968588000003365,,,,,,oren_3,001,2020_Jan_29_1337,posner,3.1.5,59.873320029158215,
0.5,0,0,right,1,4,2,0,2,0,8,1,65,3,,,,,,,,,628.7107935999993,629.2105379999994,629.9281449000009,None,629.2271715999996,629.9117858000009,630.4287365,None,left,0,0.0707393000011507,630.4287365,None,None,629.2271715999996,630.4123665000006,0.5113465999984328,0.5948719999996683,1.713159999999334,1.7966071999999258,,,,,,oren_3,001,2020_Jan_29_1337,posner,3.1.5,59.873320029158215,
-0.5,0,1,left,1,3,2,0,2,0,8,2,66,0,,,,,,,,,630.5297136000008,631.0296137999994,631.7473554000007,None,631.0465277999992,631.7305995999996,632.2480586000001,None,left,1,0.2834162999988621,632.2480586000001,None,None,631.0465277999992,632.2313520000007,0.5112657999998191,0.5948442999997496,1.712981700000455,1.7964491000002454,,,,,,oren_3,001,2020_Jan_29_1337,posner,3.1.5,59.873320029158215,
-0.5,0,1,left,1,3,2,0,2,0,8,3,67,2,,,,,,,,,632.5493908000008,633.0490535000008,633.7669767999996,None,633.0659197999994,633.7501455000001,634.2675596999998,None,left,1,0.263905199999499,634.2675596999998,None,None,633.0659197999994,634.2509831000007,0.5114816999994218,0.5951416999996582,1.7133795999998256,1.7967640000006213,,,,,,oren_3,001,2020_Jan_29_1337,posner,3.1.5,59.873320029158215,
-0.5,180,0,left,2,3,2,0,2,0,8,4,68,4,,,,,,,,,634.5522103000003,635.0520864999999,635.7696546000006,None,635.0686034000009,635.7530454999996,636.2703228999999,None,right,0,0.18118710000089777,636.2703228999999,None,None,635.0686034000009,636.2535695000006,0.5118084000005183,0.5950993999995262,1.7132762000001094,1.7967705000010028,,,,,,oren_3,001,2020_Jan_29_1337,posner,3.1.5,59.873320029158215,
0.5,180,1,right,2,4,2,0,2,0,8,5,69,7,,,,,,,,,636.4708427999994,636.9713769000009,637.6888044000007,None,636.9878255000003,637.6725924999992,638.1895703000009,None,left,0,0.2781925000017509,638.1895703000009,None,None,636.9878255000003,638.1731409999993,0.5122929999997723,0.5955695000011474,1.7140343000010034,1.7972509999999602,,,,,,oren_3,001,2020_Jan_29_1337,posner,3.1.5,59.873320029158215,
0.5,180,1,right,2,4,2,0,2,0,8,6,70,5,,,,,,,,,638.4908687000006,638.9907156000008,639.7081995000008,None,639.0072970000001,639.6917142999991,640.2091032000008,None,right,1,0.24239620000116702,640.2091032000008,None,None,639.0072970000001,640.1924256999991,0.5112984999996115,0.594862899999498,1.7129908999995678,1.7965416000006371,,,,,,oren_3,001,2020_Jan_29_1337,posner,3.1.5,59.873320029158215,
0.5,180,1,right,2,4,2,0,2,0,8,7,71,6,,,,,,,,,640.4766720999996,640.9768091999995,641.6944844000009,None,640.9935114,641.6777848000002,642.1951948000005,None,right,1,0.12860509999882197,642.1951948000005,None,None,640.9935114,642.1784014999994,0.511679200000799,0.5951602999994066,1.7132614000001922,1.796772100000453,,,,,,oren_3,001,2020_Jan_29_1337,posner,3.1.5,59.873320029158215,
