targetX,cueOri,congr,corrAns,pin_cue,pin_target,block.thisRepN,block.thisTrialN,block.thisN,block.thisIndex,posner_task.thisRepN,posner_task.thisTrialN,posner_task.thisN,posner_task.thisIndex,port_start_block.started,port_start_block.stopped,text_2.started,text_2.stopped,p_port.started,p_port.stopped,text.started,text.stopped,fixation_1.started,fixation_1.stopped,fixation_2.started,fixation_2.stopped,cue.started,cue.stopped,target.started,target.stopped,correct_key_resp.keys,correct_key_resp.corr,correct_key_resp.rt,correct_key_resp.started,correct_key_resp.stopped,early_resp.keys,early_resp.started,early_resp.stopped,trigger_cue.started,trigger_cue.stopped,trigger_target.started,trigger_target.stopped,early_resp.rt,break_text.started,break_text.stopped,end_port.started,end_port.stopped,participant,session,date,expName,psychopyVersion,frameRate,
-0.5,0,1,left,1,3,0,0,0,0,0,0,0,2,1.739999970595818e-05,0.09710509999968053,29.17049109999971,None,1.4100000043981709e-05,0.09971730000052048,31.056303000000298,None,31.358341399999517,31.85757300000023,32.57493369999975,None,31.87426559999949,32.55855410000004,33.075700000000325,None,left,1,0.3742470000006506,33.075700000000325,None,None,31.87426559999949,33.059018099999776,0.5082691999996314,0.5914222999999765,1.7096976000002542,1.7933161999999356,,,,,,priya_3,001,2020_Feb_14_1233,posner,3.1.5,59.92602731184956,
0.5,0,0,right,1,4,0,0,0,0,0,1,1,3,,,,,,,,,33.49134589999994,33.977142800000365,34.69447839999975,None,33.99399009999979,34.678040099999635,35.195259299999634,None,right,1,0.35842289999982313,35.195259299999634,None,None,33.99399009999979,35.17886929999986,0.5105016999996224,0.5938398999996934,1.712195199999769,1.7954509000001053,,,,,,priya_3,001,2020_Feb_14_1233,posner,3.1.5,59.92602731184956,
-0.5,180,0,left,2,3,0,0,0,0,0,2,2,4,,,,,,,,,35.57965239999976,36.08025739999994,36.79781449999973,None,36.09650460000012,36.78080099999988,37.298261699999784,None,left,1,0.303634000000784,37.298261699999784,None,None,36.09650460000012,37.28164409999954,0.5119844999999259,0.5950296999999409,1.713363699999718,1.7965273999998317,,,,,,priya_3,001,2020_Feb_14_1233,posner,3.1.5,59.92602731184956,
0.5,180,1,right,2,4,0,0,0,0,0,3,3,5,,,,,,,,,37.632424999999785,38.13278199999968,38.85054149999996,None,38.149626600000374,38.833635299999514,39.35125150000022,None,right,1,0.2504339000006439,39.35125150000022,None,None,38.149626600000374,39.33444109999982,0.5118396999996548,0.5954383999996935,1.7134820000001127,1.797056800000064,,,,,,priya_3,001,2020_Feb_14_1233,posner,3.1.5,59.92602731184956,
-0.5,0,1,left,1,3,0,0,0,0,0,4,4,1,,,,,,,,,39.618980600000214,40.11887829999978,40.83640490000016,None,40.13524640000014,40.81974730000002,41.33729399999993,None,left,1,0.280437699999311,41.33729399999993,None,None,40.13524640000014,41.32058179999967,0.5114643999995678,0.5947704000000158,1.713153699999566,1.7963043999998263,,,,,,priya_3,001,2020_Feb_14_1233,posner,3.1.5,59.92602731184956,
-0.5,0,1,left,1,3,0,0,0,0,0,5,5,0,,,,,,,,,41.63795620000019,42.1383364000003,42.85597409999991,None,42.15498360000038,42.839129500000126,43.35685240000021,None,left,1,0.45279849999951693,43.35685240000021,None,None,42.15498360000038,43.3398643999999,0.512369399999443,0.5958128000002034,1.7138813000001392,1.797235400000318,,,,,,priya_3,001,2020_Feb_14_1233,posner,3.1.5,59.92602731184956,
0.5,180,1,right,2,4,0,0,0,0,0,6,6,6,,,,,,,,,43.84106080000038,44.341360200000054,45.05885000000035,None,44.35797850000017,45.0422294,45.55959530000018,43.84106080000038,right,1,0.2501269999993383,45.55959530000018,None,None,44.35797850000017,45.54278669999985,0.5117017000002306,0.5950831000000107,1.7131169000003865,1.7969978000000992,,,,,,priya_3,001,2020_Feb_14_1233,posner,3.1.5,59.92602731184956,
0.5,180,1,right,2,4,0,0,0,0,0,7,7,7,,,,,,,,,45.82774150000023,46.32740990000002,47.0447978000002,None,46.343988999999965,47.028437299999496,47.545557100000224,None,right,1,0.36810439999953815,47.545557100000224,None,None,46.343988999999965,47.528938800000105,0.5112958999998227,0.5946036000004824,1.712822899999992,1.7965281000006144,,,,,,priya_3,001,2020_Feb_14_1233,posner,3.1.5,59.92602731184956,
0.5,180,1,right,2,4,0,0,0,0,1,0,8,5,,,,,,,,,47.930371399999785,48.43044490000011,49.14797449999969,None,48.44701559999976,49.13154080000004,49.648494899999605,None,right,1,0.36115179999978864,49.648494899999605,None,None,48.44701559999976,49.631919299999936,0.5117639000000054,0.5947894000000815,1.7132265999998708,1.7966557999998258,,,,,,priya_3,001,2020_Feb_14_1233,posner,3.1.5,59.92602731184956,
-0.5,0,1,left,1,3,0,0,0,0,1,1,9,2,,,,,,,,,50.03309259999969,50.532975899999656,51.25107279999975,None,50.55010399999992,51.234017900000254,51.751524000000245,None,left,1,0.29811289999997825,51.751524000000245,None,None,50.55010399999992,51.734634299999925,0.5114345000001776,0.5951144000000568,1.713070200000402,1.7968947999997908,,,,,,priya_3,001,2020_Feb_14_1233,posner,3.1.5,59.92602731184956,
0.5,0,0,right,1,4,0,0,0,0,1,2,10,3,,,,,,,,,52.06949919999988,52.56922250000025,53.28701219999948,None,52.58603250000033,53.27031460000035,53.7877883000001,None,right,1,0.32582209999964107,53.7877883000001,None,None,52.58603250000033,53.77105819999997,0.511228299999857,0.594762400000036,1.7130859999997483,1.796465999999782,,,,,,priya_3,001,2020_Feb_14_1233,posner,3.1.5,59.92602731184956,
-0.5,0,1,left,1,3,0,0,0,0,1,3,11,1,,,,,,,,,54.140272200000254,54.63877429999957,55.35641180000039,None,54.65543350000007,55.33973950000018,55.85714189999999,None,left,1,0.2885355999997046,55.85714189999999,None,None,54.65543350000007,55.840408500000194,0.5097911000002568,0.593301099999735,1.7114025000000765,1.7948992999999973,,,,,,priya_3,001,2020_Feb_14_1233,posner,3.1.5,59.92602731184956,
0.5,180,1,right,2,4,0,0,0,0,1,4,12,7,,,,,,,,,56.17548360000001,56.674935500000174,57.39262099999996,None,56.69167329999982,57.37586949999968,57.89322949999951,None,right,1,0.27642610000020795,57.89322949999951,None,None,56.69167329999982,57.876653199999964,0.5115271999993638,0.5950918999997157,1.7132210999998279,1.7967294999998558,,,,,,priya_3,001,2020_Feb_14_1233,posner,3.1.5,59.92602731184956,
-0.5,0,1,left,1,3,0,0,0,0,1,5,13,0,,,,,,,,,58.194100400000025,58.69424210000034,59.412227699999676,None,58.711259800000335,59.39525719999983,59.912849399999686,60.39688079999996,None,0,,59.912849399999686,None,None,58.711259800000335,59.89612820000002,0.5113901999993686,0.5951233999994656,1.7132701000000452,1.7966364999992948,,,,,,priya_3,001,2020_Feb_14_1233,posner,3.1.5,59.92602731184956,
-0.5,180,0,left,2,3,0,0,0,0,1,6,14,4,,,,,,,,,60.897459300000264,61.39804430000004,62.11584119999952,60.897459300000264,61.414679100000285,62.09901329999957,62.6163190999996,None,left,1,0.41736540000056266,62.6163190999996,None,None,61.414679100000285,62.60000279999986,0.5143591999994896,0.5978556999998546,1.71629269999994,1.7995240999998714,,,,,,priya_3,001,2020_Feb_14_1233,posner,3.1.5,59.92602731184956,
0.5,180,1,right,2,4,0,0,0,0,1,7,15,6,,,,,,,,,63.051314999999704,63.551093899999614,64.26888950000011,None,63.568043399999624,64.2520955,64.76932109999962,None,right,1,0.28826870000011695,64.76932109999962,None,None,63.568043399999624,64.75285970000004,0.5114901999995709,0.5948782999994364,1.7132338000001255,1.7966394999994009,,,,,,priya_3,001,2020_Feb_14_1233,posner,3.1.5,59.92602731184956,
-0.5,0,1,left,1,3,0,0,0,0,2,0,16,1,,,,,,,,,65.08744139999999,65.5871672000003,66.30489070000021,None,65.60373230000005,66.2881582,66.80537649999951,None,left,1,0.26029019999987213,66.80537649999951,None,None,65.60373230000005,66.78884899999957,0.511471700000584,0.5949823000000833,1.7131381000008332,1.7965747000007468,,,,,,priya_3,001,2020_Feb_14_1233,posner,3.1.5,59.92602731184956,
0.5,180,1,right,2,4,0,0,0,0,2,1,17,7,,,,,,,,,67.08980020000035,67.59004619999996,68.30757079999967,None,67.60668890000034,68.29092349999974,68.8083674999998,69.29240260000006,right,1,0.5292617999994036,68.8083674999998,None,None,67.60668890000034,68.79181069999959,0.5116127999999662,0.5949907999993229,1.7133641000000353,1.796654299999318,,,,,,priya_3,001,2020_Feb_14_1233,posner,3.1.5,59.92602731184956,
-0.5,180,0,left,2,3,0,0,0,0,2,2,18,4,,,,,,,,,69.35990219999985,69.85979829999997,70.57770540000001,None,69.87658949999968,70.56068510000023,71.0781291000003,None,left,1,0.32356290000006993,71.0781291000003,None,None,69.87658949999968,71.06152519999978,0.5112383999994563,0.5947736999996778,1.7129430999993929,1.7962053999999625,,,,,,priya_3,001,2020_Feb_14_1233,posner,3.1.5,59.92602731184956,
-0.5,0,1,left,1,3,0,0,0,0,2,3,19,0,,,,,,,,,71.42891520000012,71.92936279999958,72.64704059999985,None,71.94598029999997,72.63032810000004,73.14764099999957,73.63178379999954,left,1,0.4941134000000602,73.14764099999957,None,None,71.94598029999997,73.1312267000003,0.5114418000002843,0.594645600000149,1.7132891999999629,1.7964560000000347,,,,,,priya_3,001,2020_Feb_14_1233,posner,3.1.5,59.92602731184956,
-0.5,0,1,left,1,3,0,0,0,0,2,4,20,2,,,,,,,,,73.66591890000018,74.1656869999997,74.88313749999998,None,74.18244649999997,74.86671469999965,75.38411420000011,None,left,1,0.417683699999543,75.38411420000011,None,None,74.18244649999997,75.36767349999991,0.5115009999999529,0.5948732999995627,1.7134603000004063,1.7967079999998532,,,,,,priya_3,001,2020_Feb_14_1233,posner,3.1.5,59.92602731184956,
0.5,0,0,right,1,4,0,0,0,0,2,5,21,3,,,,,,,,,75.81834230000004,76.31878599999982,77.03624949999994,None,76.33537299999989,77.01974530000007,77.53723100000025,None,right,1,0.38430109999990236,77.53723100000025,None,None,76.33537299999989,77.52049360000001,0.5119383999999627,0.5952810000007958,1.7136236000005738,1.7968420000006518,,,,,,priya_3,001,2020_Feb_14_1233,posner,3.1.5,59.92602731184956,
0.5,180,1,right,2,4,0,0,0,0,2,6,22,5,,,,,,,,,77.93848069999967,78.43826520000039,79.15581980000024,None,78.45500889999948,79.13948609999989,79.65647360000003,None,right,1,0.46517040000071574,79.65647360000003,None,None,78.45500889999948,79.63983730000018,0.5115002000002278,0.5949571999999534,1.7130489999999554,1.7964326999999685,,,,,,priya_3,001,2020_Feb_14_1233,posner,3.1.5,59.92602731184956,
0.5,180,1,right,2,4,0,0,0,0,2,7,23,6,,,,,,,,,80.14138960000037,80.64132599999994,81.3590564999995,None,80.65794470000037,81.34216930000002,81.85958120000032,82.34358890000021,right,1,0.5179305999999997,81.85958120000032,None,None,80.65794470000037,81.84283520000008,0.511648900000182,0.5950905999998213,1.713141899999755,1.79696580000018,,,,,,priya_3,001,2020_Feb_14_1233,posner,3.1.5,59.92602731184956,
0.5,180,1,right,2,4,0,0,0,0,3,0,24,6,,,,,,,,,82.39432620000025,82.89422709999963,83.61213399999997,None,82.91106969999964,83.59527330000037,84.11266849999993,None,right,1,0.4652306999996654,84.11266849999993,None,None,82.91106969999964,84.09602530000029,0.5115380999995978,0.5951072999996541,1.7133174999999028,1.796871900000042,,,,,,priya_3,001,2020_Feb_14_1233,posner,3.1.5,59.92602731184956,
-0.5,0,1,left,1,3,0,0,0,0,3,1,25,1,,,,,,,,,84.59787340000003,85.09736460000022,85.81517609999992,None,85.11396090000017,85.79851890000009,86.31582139999955,84.59787340000003,left,1,0.25383679999958986,86.31582139999955,None,None,85.11396090000017,86.29916469999989,0.5114313000003676,0.5951357000003554,1.713206899999932,1.7964357999999265,,,,,,priya_3,001,2020_Feb_14_1233,posner,3.1.5,59.92602731184956,
-0.5,0,1,left,1,3,0,0,0,0,3,2,26,2,,,,,,,,,86.60023170000022,87.10036450000007,87.81803589999981,None,87.11687979999988,87.80117700000028,88.31865329999982,88.80260629999975,left,1,0.475043899999946,88.31865329999982,None,None,87.11687979999988,88.30204369999956,0.5115570999996635,0.5947662999997192,1.7132230999995954,1.7962686000000758,,,,,,priya_3,001,2020_Feb_14_1233,posner,3.1.5,59.92602731184956,
-0.5,0,1,left,1,3,0,0,0,0,3,3,27,0,,,,,,,,,88.82025079999949,89.32019179999952,90.03768359999958,None,89.33670580000035,90.02095829999962,90.53835530000015,None,left,1,0.3191640000004554,90.53835530000015,None,None,89.33670580000035,90.52177089999986,0.5118192999998428,0.594861999999921,1.7133849000001646,1.7967784000002212,,,,,,priya_3,001,2020_Feb_14_1233,posner,3.1.5,59.92602731184956,
0.5,0,0,right,1,4,0,0,0,0,3,4,28,3,,,,,,,,,90.88889629999994,91.3894395999996,92.10704069999974,None,91.40584529999978,92.09048859999984,92.60786780000035,None,right,1,0.35375010000007023,92.60786780000035,None,None,91.40584529999978,92.59108769999966,0.5115786000005755,0.5948737000007895,1.7132142000000385,1.7966507000001002,,,,,,priya_3,001,2020_Feb_14_1233,posner,3.1.5,59.92602731184956,
0.5,180,1,right,2,4,0,0,0,0,3,5,29,7,,,,,,,,,92.9919030000001,93.49225630000001,94.20999909999955,None,93.5089552999998,94.19337449999966,94.71077409999998,95.19449059999988,right,1,0.5627355000005991,94.71077409999998,None,None,93.5089552999998,94.69381369999974,0.5116133000001355,0.595072799999798,1.7131445000004533,1.7967892000006032,,,,,,priya_3,001,2020_Feb_14_1233,posner,3.1.5,59.92602731184956,
-0.5,180,0,left,2,3,0,0,0,0,3,6,30,4,,,,,,,,,95.29481820000001,95.79540110000016,96.51328149999972,None,95.8120627999997,96.49682980000034,97.01371870000003,None,left,1,0.32391009999992093,97.01371870000003,None,None,95.8120627999997,96.9973256000003,0.5114824000002045,0.5947622000003321,1.7133558000004996,1.7967379000001529,,,,,,priya_3,001,2020_Feb_14_1233,posner,3.1.5,59.92602731184956,
0.5,180,1,right,2,4,0,0,0,0,3,7,31,5,,,,,,,,,97.36533489999965,97.86493080000037,98.58267569999953,None,97.88179490000039,98.56598860000031,99.08333680000032,None,right,1,0.3744475000003149,99.08333680000032,None,None,97.88179490000039,99.06675029999951,0.5115341000000626,0.5950525999996898,1.713329999999587,1.7966621999994459,,,,,,priya_3,001,2020_Feb_14_1233,posner,3.1.5,59.92602731184956,
0.5,180,1,right,2,4,0,0,0,0,4,0,32,7,,,,,,,,,99.48430019999978,99.98439059999964,100.70211749999999,None,100.00135070000033,100.68551000000025,101.20294999999987,None,right,1,0.3506680000000415,101.20294999999987,None,None,100.00135070000033,101.18627209999977,0.5114616000000751,0.5951576000006753,1.713348500000393,1.7967742999999246,,,,,,priya_3,001,2020_Feb_14_1233,posner,3.1.5,59.92602731184956,
-0.5,0,1,left,1,3,0,0,0,0,4,1,33,0,,,,,,,,,101.57096619999993,102.0708623999999,102.78844930000014,None,102.08755190000011,102.77197460000025,103.28907780000009,None,left,1,0.3765430000003107,103.28907780000009,None,None,102.08755190000011,103.27251739999974,0.5117028999993636,0.5950460999993084,1.713344199999483,1.7966985999992175,,,,,,priya_3,001,2020_Feb_14_1233,posner,3.1.5,59.92602731184956,
-0.5,0,1,left,1,3,0,0,0,0,4,2,34,1,,,,,,,,,103.6903913999995,104.19037819999994,104.90802729999996,None,104.2069733999997,104.89149530000032,105.40886119999959,None,left,1,0.4087526000002981,105.40886119999959,None,None,104.2069733999997,105.39206699999977,0.511561299999812,0.5947653000002902,1.7132480000000214,1.7965045999999347,,,,,,priya_3,001,2020_Feb_14_1233,posner,3.1.5,59.92602731184956,
-0.5,0,1,left,1,3,0,0,0,0,4,3,35,2,,,,,,,,,105.8431142999998,106.34312620000037,107.06109990000004,None,106.36000570000033,107.04408090000015,107.5617327,108.04553159999978,None,0,,107.5617327,None,None,106.36000570000033,107.54463980000037,0.5113952000001518,0.5950867000001381,1.7128953000001275,1.7968556000005265,,,,,,priya_3,001,2020_Feb_14_1233,posner,3.1.5,59.92602731184956,
0.5,180,1,right,2,4,0,0,0,0,4,4,36,5,,,,,,,,,108.54622829999971,109.0471464000002,109.76443560000007,108.54622829999971,109.06363280000005,109.74807729999975,110.26530360000015,None,right,1,0.32835869999962597,110.26530360000015,None,None,109.06363280000005,110.24874329999966,0.5135989000000336,0.5970281999998406,1.7151800000001458,1.7986473000000842,,,,,,priya_3,001,2020_Feb_14_1233,posner,3.1.5,59.92602731184956,
0.5,0,0,right,1,4,0,0,0,0,4,5,37,3,,,,,,,,,110.6169804000001,111.11661800000002,111.83416649999981,None,111.13328360000014,111.81755069999963,112.33490110000002,None,right,1,0.45078280000052473,112.33490110000002,None,None,111.13328360000014,112.31829139999991,0.5114472000004753,0.5950169000007008,1.7130913000000874,1.7964945000003354,,,,,,priya_3,001,2020_Feb_14_1233,posner,3.1.5,59.92602731184956,
0.5,180,1,right,2,4,0,0,0,0,4,6,38,6,,,,,,,,,112.80295999999998,113.30282069999976,114.02069149999988,None,113.31958889999987,114.00374939999983,114.52127000000019,115.0052098999995,right,1,0.512428799999725,114.52127000000019,None,None,113.31958889999987,114.50477130000036,0.5116735999999946,0.5955569999996442,1.7135986999992383,1.7967954999994618,,,,,,priya_3,001,2020_Feb_14_1233,posner,3.1.5,59.92602731184956,
-0.5,180,0,left,2,3,0,0,0,0,4,7,39,4,,,,,,,,,115.0564744000003,115.55613340000036,116.27352020000035,None,115.57233910000014,116.25684449999972,116.77433719999954,None,left,1,0.37913249999928667,116.77433719999954,None,None,115.57233910000014,116.7576982999999,0.5114440999996077,0.5948785000000498,1.7129824000003282,1.7964480999999068,,,,,,priya_3,001,2020_Feb_14_1233,posner,3.1.5,59.92602731184956,
-0.5,0,1,left,1,3,0,0,0,0,5,0,40,1,,,,,,,,,117.17571889999999,117.6754818999998,118.39335320000009,None,117.69227950000004,118.37668459999986,118.89389250000022,119.37802809999994,left,1,0.7636053999995056,118.89389250000022,None,None,117.69227950000004,118.87741399999959,0.5114178000003449,0.5950251000003846,1.7133270000003904,1.7964602000001832,,,,,,priya_3,001,2020_Feb_14_1233,posner,3.1.5,59.92602731184956,
0.5,180,1,right,2,4,0,0,0,0,5,1,41,6,,,,,,,,,119.6792802,120.17910670000037,120.89684920000036,None,120.19584669999949,120.88020159999996,121.39747119999993,None,right,1,0.4361622000005809,121.39747119999993,None,None,120.19584669999949,121.3807412999995,0.5113989000001311,0.5946204000001671,1.7130265999994663,1.7963309999995545,,,,,,priya_3,001,2020_Feb_14_1233,posner,3.1.5,59.92602731184956,
0.5,0,0,right,1,4,0,0,0,0,5,2,42,3,,,,,,,,,121.86492970000018,122.36507580000034,123.08285090000027,None,122.38217770000028,123.06649809999999,123.58354210000016,None,right,1,0.4341476999998122,123.58354210000016,None,None,122.38217770000028,123.5670497000001,0.5114133999995829,0.5951882999997906,1.7133672999998453,1.7970055999994656,,,,,,priya_3,001,2020_Feb_14_1233,posner,3.1.5,59.92602731184956,
0.5,180,1,right,2,4,0,0,0,0,5,3,43,7,,,,,,,,,124.03531039999962,124.53506360000029,125.25269440000011,None,124.5519263999995,125.23603889999958,125.7534958999995,None,right,1,0.40015589999984513,125.7534958999995,None,None,124.5519263999995,125.73684140000023,0.5114450999999463,0.59482509999998,1.713213299999552,1.7967548999995415,,,,,,priya_3,001,2020_Feb_14_1233,posner,3.1.5,59.92602731184956,
-0.5,0,1,left,1,3,0,0,0,0,5,4,44,2,,,,,,,,,126.17143800000031,126.67137129999992,127.38892469999973,None,126.68811610000012,127.37232839999979,127.88955600000008,None,left,1,0.3759467999998378,127.88955600000008,None,None,126.68811610000012,127.8727871000001,0.5116229000004751,0.595009000000573,1.713024000000587,1.7968919000004462,,,,,,priya_3,001,2020_Feb_14_1233,posner,3.1.5,59.92602731184956,
-0.5,0,1,left,1,3,0,0,0,0,5,5,45,0,,,,,,,,,128.29056320000018,128.79098439999962,129.50844320000033,None,128.80765520000023,129.49187079999956,130.0094094999995,None,left,1,0.36014479999994364,130.0094094999995,None,None,128.80765520000023,129.99279529999967,0.5115678000001935,0.5948633000007248,1.7133630000007543,1.796592900000178,,,,,,priya_3,001,2020_Feb_14_1233,posner,3.1.5,59.92602731184956,
-0.5,180,0,left,2,3,0,0,0,0,5,6,46,4,,,,,,,,,130.39356919999955,130.89369410000018,131.61156570000003,None,130.91069719999996,131.59464479999951,132.1125450999998,None,left,1,0.40892489999987447,132.1125450999998,None,None,130.91069719999996,132.0954173,0.5117596000000049,0.5955118000001676,1.713463099999899,1.796886899999663,,,,,,priya_3,001,2020_Feb_14_1233,posner,3.1.5,59.92602731184956,
0.5,180,1,right,2,4,0,0,0,0,5,7,47,5,,,,,,,,,132.5467453000001,133.0468608000001,133.7642968,None,133.06335339999987,133.74790370000028,134.2649782999997,None,right,1,0.28847510000014154,134.2649782999997,None,None,133.06335339999987,134.24833810000018,0.5115897000005134,0.5950162000008277,1.7130423000007795,1.796469600000819,,,,,,priya_3,001,2020_Feb_14_1233,posner,3.1.5,59.92602731184956,
-0.5,0,1,left,1,3,0,0,0,0,6,0,48,1,,,,,,,,,134.5828488999996,135.0828021999996,135.80089309999948,None,135.09982920000039,135.7838910999999,136.3011416999998,None,left,1,0.2923438999996506,136.3011416999998,None,None,135.09982920000039,136.28454280000005,0.5114632999993773,0.5950680999994802,1.7131847000000562,1.7966126000001168,,,,,,priya_3,001,2020_Feb_14_1233,posner,3.1.5,59.92602731184956,
-0.5,180,0,left,2,3,0,0,0,0,6,1,49,4,,,,,,,,,136.61914549999983,137.11911429999964,137.8368429000002,None,137.1356909999995,137.82033799999954,138.3373759999995,None,left,1,0.400296800000433,138.3373759999995,None,None,137.1356909999995,138.32067769999958,0.5114346999998816,0.5948182000001907,1.712985000000117,1.79634520000036,,,,,,priya_3,001,2020_Feb_14_1233,posner,3.1.5,59.92602731184956,
-0.5,0,1,left,1,3,0,0,0,0,6,2,50,2,,,,,,,,,138.7552982999996,139.2553472999998,139.97294789999978,None,139.2720349000001,139.95630749999964,140.4734940999997,None,left,1,0.447965700000168,140.4734940999997,None,None,139.2720349000001,140.45701999999983,0.5118991000008464,0.5953102000003128,1.7135471999999936,1.7969583000003695,,,,,,priya_3,001,2020_Feb_14_1233,posner,3.1.5,59.92602731184956,
-0.5,0,1,left,1,3,0,0,0,0,6,3,51,0,,,,,,,,,140.94162080000024,141.44163539999954,142.15941039999962,None,141.45856699999968,142.14272600000004,142.66008129999955,None,left,1,0.309485499999937,142.66008129999955,None,None,141.45856699999968,142.64324599999964,0.5115399999995134,0.5948594999999841,1.7131383999994796,1.7967389999994339,,,,,,priya_3,001,2020_Feb_14_1233,posner,3.1.5,59.92602731184956,
0.5,0,0,right,1,4,0,0,0,0,6,4,52,3,,,,,,,,,142.99417919999996,143.49472090000017,144.21209799999997,None,143.5112078000002,144.19538399999965,144.71268249999957,None,right,1,0.40876900000057503,144.71268249999957,None,None,143.5112078000002,144.69614300000012,0.5125828999998703,0.5958789000005709,1.7139924000002793,1.79736690000027,,,,,,priya_3,001,2020_Feb_14_1233,posner,3.1.5,59.92602731184956,
0.5,180,1,right,2,4,0,0,0,0,6,5,53,6,,,,,,,,,145.14764430000014,145.64752469999985,146.36499689999982,None,145.66409910000039,146.34848919999968,146.8658058000001,None,right,1,0.3677182999999786,146.8658058000001,None,None,145.66409910000039,146.8491481000001,0.5115687999996226,0.5950385999994978,1.7131788999995479,1.7967316999993272,,,,,,priya_3,001,2020_Feb_14_1233,posner,3.1.5,59.92602731184956,
0.5,180,1,right,2,4,0,0,0,0,6,6,54,7,,,,,,,,,147.2502515999995,147.75032929999998,148.46812359999967,None,147.76711760000035,148.45155669999986,148.96857610000006,None,right,1,0.35283090000029915,148.96857610000006,None,None,147.76711760000035,148.95213609999973,0.5115520999997898,0.5950909999992291,1.7133368999993763,1.7964494999996532,,,,,,priya_3,001,2020_Feb_14_1233,posner,3.1.5,59.92602731184956,
0.5,180,1,right,2,4,0,0,0,0,6,7,55,5,,,,,,,,,149.3528256999998,149.85329509999974,150.57096980000006,None,149.86987080000017,150.55419679999977,151.07165729999997,None,right,1,0.2818705999998201,151.07165729999997,None,None,149.86987080000017,151.0550274999996,0.5120567999993,0.595476299999973,1.7137709999997242,1.7970851999998558,,,,,,priya_3,001,2020_Feb_14_1233,posner,3.1.5,59.92602731184956,
-0.5,0,1,left,1,3,0,0,0,0,7,0,56,1,,,,,,,,,151.37248650000038,151.87323250000009,152.59051079999972,None,151.8893710000002,152.57365730000038,153.09209350000037,None,left,1,0.27727839999988646,153.09209350000037,None,None,151.8893710000002,153.07429409999986,0.5121937999992952,0.5951990999992631,1.7132486000000426,1.796761599999627,,,,,,priya_3,001,2020_Feb_14_1233,posner,3.1.5,59.92602731184956,
-0.5,180,0,left,2,3,0,0,0,0,7,1,57,4,,,,,,,,,153.39364490000025,153.8923775000003,154.60982479999984,None,153.9089385999996,154.59331810000003,155.11156440000013,None,left,1,0.41788939999969443,155.11156440000013,None,None,153.9089385999996,155.09452690000035,0.5118474000000788,0.5948842999996486,1.713989599999877,1.7967737999997553,,,,,,priya_3,001,2020_Feb_14_1233,posner,3.1.5,59.92602731184956,
0.5,180,1,right,2,4,0,0,0,0,7,2,58,6,,,,,,,,,155.56153230000018,156.06174660000033,156.7796218000003,None,156.07837010000003,156.762788,157.28029030000016,None,right,1,0.2811061000002155,157.28029030000016,None,None,156.07837010000003,157.26348849999977,0.5114750999991884,0.5948912999992899,1.7132062000000587,1.796604699999989,,,,,,priya_3,001,2020_Feb_14_1233,posner,3.1.5,59.92602731184956,
-0.5,0,1,left,1,3,0,0,0,0,7,3,59,0,,,,,,,,,157.58121980000033,158.08164560000023,158.79885029999969,None,158.09799029999976,158.78208619999987,159.2998534999997,None,left,1,0.42948989999968035,159.2998534999997,None,None,158.09799029999976,159.28285700000015,0.5119104000004882,0.5959022000006371,1.7131057000005967,1.7968667000004643,,,,,,priya_3,001,2020_Feb_14_1233,posner,3.1.5,59.92602731184956,
0.5,180,1,right,2,4,0,0,0,0,7,4,60,5,,,,,,,,,159.7509369999998,160.25097430000005,160.96859229999973,None,160.26770659999966,160.95194439999977,161.4693285000003,None,right,1,0.3561367000002065,161.4693285000003,None,None,160.26770659999966,161.45234319999963,0.5116906000002928,0.5949092999999266,1.713039000000208,1.7968878000001496,,,,,,priya_3,001,2020_Feb_14_1233,posner,3.1.5,59.92602731184956,
0.5,180,1,right,2,4,0,0,0,0,7,5,61,7,,,,,,,,,161.85395330000028,162.35390869999992,163.07158419999996,None,162.3708160999995,163.05464759999995,163.57214980000026,None,right,1,0.42124599999988277,163.57214980000026,None,None,162.3708160999995,163.5553473,0.5116290000005392,0.5951403999997638,1.7130450000004203,1.7965002000000823,,,,,,priya_3,001,2020_Feb_14_1233,posner,3.1.5,59.92602731184956,
0.5,0,0,right,1,4,0,0,0,0,7,6,62,3,,,,,,,,,164.02302359999976,164.5232973000002,165.2411075,None,164.54027599999972,165.22456799999964,165.74191979999978,166.22606639999958,right,1,0.6434673000003386,165.74191979999978,None,left,164.54027599999972,165.7252258999997,0.5115982999996049,0.5951987999997073,1.713511899999503,1.7969257999993715,1.0130687000000762,,,,,priya_3,001,2020_Feb_14_1233,posner,3.1.5,59.92602731184956,
-0.5,0,1,left,1,3,0,0,0,0,7,7,63,2,,,,,,,,,166.40998229999968,166.91016800000034,167.62781989999985,None,166.9267989,167.61102839999967,168.12857509999958,None,left,1,0.42484849999982544,168.12857509999958,None,None,166.9267989,168.1116161,0.5116850000003978,0.5954204999998183,1.7131201000001965,1.796405699999923,,,,,,priya_3,001,2020_Feb_14_1233,posner,3.1.5,59.92602731184956,
-0.5,0,1,left,1,3,0,0,0,0,8,0,64,2,,,,,,,,,168.57955479999964,169.07984490000035,169.7973910999999,None,169.09649290000016,169.78043760000037,170.29818069999965,None,left,1,0.39923670000007405,170.29818069999965,None,None,169.09649290000016,170.2815271999998,0.5117270999999164,0.5949721999995745,1.713386200000059,1.796682499999406,,,,,,priya_3,001,2020_Feb_14_1233,posner,3.1.5,59.92602731184956,
-0.5,0,1,left,1,3,0,0,0,0,8,1,65,1,,,,,,,,,170.71556390000023,171.21598989999984,171.9337158999997,None,171.2326211999998,171.91722240000036,172.4342117999995,None,left,1,0.3431004000003668,172.4342117999995,None,None,171.2326211999998,172.41765759999998,0.5118188999995255,0.5953380000000834,1.7134455999994316,1.796903100000236,,,,,,priya_3,001,2020_Feb_14_1233,posner,3.1.5,59.92602731184956,
-0.5,0,1,left,1,3,0,0,0,0,8,2,66,0,,,,,,,,,172.8019806000002,173.30222249999952,174.01975740000034,None,173.3190869,174.00317540000015,174.52084209999975,None,left,1,0.34447329999966314,174.52084209999975,None,None,173.3190869,174.50381930000003,0.5116775000005873,0.5951154000003953,1.7132604000007632,1.7967899000004763,,,,,,priya_3,001,2020_Feb_14_1233,posner,3.1.5,59.92602731184956,
0.5,0,0,right,1,4,0,0,0,0,8,3,67,3,,,,,,,,,174.8888377000003,175.38858979999986,176.10599410000032,None,175.40510410000024,176.08958040000016,176.6068210000003,None,right,1,0.33864399999947636,176.6068210000003,None,None,175.40510410000024,176.58997869999985,0.5115402000001268,0.5946518999999171,1.7129175000000032,1.7963767000001098,,,,,,priya_3,001,2020_Feb_14_1233,posner,3.1.5,59.92602731184956,
0.5,180,1,right,2,4,0,0,0,0,8,4,68,7,,,,,,,,,176.97478219999994,177.47464239999954,178.19224500000018,None,177.4913679000001,178.17550889999984,178.69296399999985,None,right,1,0.28431389999968815,178.69296399999985,None,None,177.4913679000001,178.67672130000028,0.5116795000003549,0.5950959000001603,1.713735500000439,1.7967827000002217,,,,,,priya_3,001,2020_Feb_14_1233,posner,3.1.5,59.92602731184956,
-0.5,180,0,left,2,3,0,0,0,0,8,5,69,4,,,,,,,,,178.99431679999998,179.4944931,180.21176230000037,None,179.51084600000013,180.19498639999983,180.7123905999997,181.1964293000001,left,1,0.49701359999926353,180.7123905999997,None,None,179.51084600000013,180.69579900000008,0.5119406000003437,0.5951614000005065,1.7132387000001472,1.7966290000003937,,,,,,priya_3,001,2020_Feb_14_1233,posner,3.1.5,59.92602731184956,
0.5,180,1,right,2,4,0,0,0,0,8,6,70,5,,,,,,,,,181.23052689999986,181.7305637999998,182.4480580999998,None,181.74728359999972,182.43151560000024,182.9489840999995,None,right,1,0.2764504999995552,182.9489840999995,None,None,181.74728359999972,182.9320426000004,0.5116618000001836,0.5948521000000255,1.7131292000003668,1.7966793000005055,,,,,,priya_3,001,2020_Feb_14_1233,posner,3.1.5,59.92602731184956,
0.5,180,1,right,2,4,0,0,0,0,8,7,71,6,,,,,,,,,183.24974569999995,183.75020979999954,184.4678090999996,None,183.76658169999973,184.45104559999982,184.96846689999984,None,right,1,0.40086540000083914,184.96846689999984,None,None,183.76658169999973,184.9518011,0.5119353000000046,0.5953059000003122,1.713512900000751,1.7964939000003142,,,,,,priya_3,001,2020_Feb_14_1233,posner,3.1.5,59.92602731184956,
0.5,180,1,right,2,4,0,0,0,0,9,0,72,7,,,,,,,,,185.38626209999984,185.88625599999978,186.6039641999996,None,185.90275240000028,186.58729760000006,187.10465180000028,None,right,1,0.3366796999998769,187.10465180000028,None,None,185.90275240000028,187.08799670000008,0.5115934000004927,0.5950734000007287,1.7133143000000928,1.7965988000005382,,,,,,priya_3,001,2020_Feb_14_1233,posner,3.1.5,59.92602731184956,
-0.5,0,1,left,1,3,0,0,0,0,9,1,73,1,,,,,,,,,187.47217869999986,187.97238079999988,188.6900974,None,187.98932220000006,188.6732439999996,189.19096519999948,None,left,1,0.33833229999981995,189.19096519999948,None,None,187.98932220000006,189.17407269999967,0.5115483999998105,0.5951021000000765,1.7132228000000396,1.7966784000000189,,,,,,priya_3,001,2020_Feb_14_1233,posner,3.1.5,59.92602731184956,
-0.5,180,0,left,2,3,0,0,0,0,9,2,74,4,,,,,,,,,189.55849339999986,190.05859020000025,190.77633109999988,None,190.0751137999996,190.75965519999954,191.27706659999967,191.76114309999957,left,1,0.5163060000004407,191.27706659999967,None,None,190.0751137999996,191.26032490000034,0.5113847000002352,0.5948253000005934,1.7131086000008509,1.7964034000005995,,,,,,priya_3,001,2020_Feb_14_1233,posner,3.1.5,59.92602731184956,
-0.5,0,1,left,1,3,0,0,0,0,9,3,75,2,,,,,,,,,191.8114198000003,192.31185279999954,193.02940510000008,None,192.3284365999998,193.01259539999955,193.5301096000003,194.0139879999997,left,1,0.4872540000005756,193.5301096000003,None,None,192.3284365999998,193.5133490999997,0.5116637000000992,0.5948566000006394,1.7131497000000309,1.7967066999999588,,,,,,priya_3,001,2020_Feb_14_1233,posner,3.1.5,59.92602731184956,
-0.5,0,1,left,1,3,0,0,0,0,9,4,76,0,,,,,,,,,194.04791810000006,194.54821110000012,195.26575150000008,None,194.56469329999982,195.2490147999997,195.76659889999974,None,left,1,0.33875019999959477,195.76659889999974,None,None,194.56469329999982,195.7497000000003,0.5117707999997947,0.5950236999997287,1.7132281000003786,1.7967380000000048,,,,,,priya_3,001,2020_Feb_14_1233,posner,3.1.5,59.92602731184956,
0.5,180,1,right,2,4,0,0,0,0,9,5,77,6,,,,,,,,,196.13415150000037,196.6344223999995,197.35200739999982,None,196.6511760000003,197.3352402999999,197.8526452999995,None,right,1,0.31684490000043297,197.8526452999995,None,None,196.6511760000003,197.8362373,0.5118292999995901,0.5951402999999118,1.7136154999998325,1.7968126999994638,,,,,,priya_3,001,2020_Feb_14_1233,posner,3.1.5,59.92602731184956,
0.5,180,1,right,2,4,0,0,0,0,9,6,78,5,,,,,,,,,198.18741249999948,198.68705450000016,199.4046589999998,None,198.7037282000001,199.38809430000038,199.90551479999976,None,right,1,0.3759087999997064,199.90551479999976,None,None,198.7037282000001,199.88893120000012,0.5113660999995773,0.595004699999663,1.7132225999994262,1.7966734000001452,,,,,,priya_3,001,2020_Feb_14_1233,posner,3.1.5,59.92602731184956,
0.5,0,0,right,1,4,0,0,0,0,9,7,79,3,,,,,,,,,200.30690309999954,200.80672219999997,201.52439520000007,None,200.82318169999962,201.5078069000001,202.0248948999997,None,right,1,0.4565818000000945,202.0248948999997,None,None,200.82318169999962,202.0084684000003,0.5114055000003646,0.5946321999999782,1.7131287000001976,1.7965729999996256,,,,,,priya_3,001,2020_Feb_14_1233,posner,3.1.5,59.92602731184956,
0.5,180,1,right,2,4,0,0,0,0,10,0,80,6,,,,,,,,,202.5101152999996,203.0098969999999,203.72762489999968,None,203.0264903999996,203.71065660000022,204.22832159999962,202.5101152999996,right,1,0.3250481999994008,204.22832159999962,None,None,203.0264903999996,204.21154279999973,0.5110848999993323,0.5943544000001566,1.7127144999994925,1.7960446999995838,,,,,,priya_3,001,2020_Feb_14_1233,posner,3.1.5,59.92602731184956,
0.5,0,0,right,1,4,0,0,0,0,10,1,81,3,,,,,,,,,204.57904359999975,205.0793275999995,205.79663549999987,None,205.09576649999963,205.78031499999997,206.29772539999976,None,right,1,0.3837181999997483,206.29772539999976,None,None,205.09576649999963,206.28093489999992,0.5115579000002981,0.5948699000000488,1.713152600000285,1.7965394000002561,,,,,,priya_3,001,2020_Feb_14_1233,posner,3.1.5,59.92602731184956,
0.5,180,1,right,2,4,0,0,0,0,10,2,82,7,,,,,,,,,206.69870449999962,207.19885239999985,207.9165135000003,None,207.21545200000037,207.8998604999997,208.41722519999985,208.90138620000016,right,1,0.48814579999998386,208.41722519999985,None,None,207.21545200000037,208.40054039999995,0.5115364000002955,0.5949421000004804,1.7132131000007575,1.7966203000005407,,,,,,priya_3,001,2020_Feb_14_1233,posner,3.1.5,59.92602731184956,
-0.5,0,1,left,1,3,0,0,0,0,10,3,83,1,,,,,,,,,208.93500779999977,209.43518210000002,210.15297290000035,None,209.4520233000003,210.13629029999993,210.65357529999983,None,left,1,0.3316989000004469,210.65357529999983,None,None,209.4520233000003,210.6369195999996,0.5115547000004881,0.5951266000001851,1.7132730000002994,1.7966265000004569,,,,,,priya_3,001,2020_Feb_14_1233,posner,3.1.5,59.92602731184956,
-0.5,0,1,left,1,3,0,0,0,0,10,4,84,2,,,,,,,,,211.00514459999977,211.50464889999967,212.22229909999987,None,211.5215736,212.20574529999976,212.72305179999967,None,left,1,0.45422939999934897,212.72305179999967,None,None,211.5215736,212.706416,0.5111888000001272,0.5947157000000516,1.712937199999942,1.796416300000601,,,,,,priya_3,001,2020_Feb_14_1233,posner,3.1.5,59.92602731184956,
-0.5,180,0,left,2,3,0,0,0,0,10,5,85,4,,,,,,,,,213.2079533999995,213.7079659000001,214.42606270000033,None,213.72447300000022,214.40882320000037,214.92621129999952,213.2079533999995,left,1,0.41099389999999403,214.92621129999952,None,None,213.72447300000022,214.90965340000002,0.5114484999994602,0.5948754000000918,1.7131166999997731,1.7964809999994031,,,,,,priya_3,001,2020_Feb_14_1233,posner,3.1.5,59.92602731184956,
-0.5,0,1,left,1,3,0,0,0,0,10,6,86,0,,,,,,,,,215.36049249999996,215.86072309999963,216.5783868999997,None,215.87773089999973,216.5616775999997,217.07914739999978,None,left,1,0.3860813999999664,217.07914739999978,None,None,215.87773089999973,217.0623760999997,0.5117630999993708,0.5952311000000918,1.7134062999994057,1.7969076999997924,,,,,,priya_3,001,2020_Feb_14_1233,posner,3.1.5,59.92602731184956,
0.5,180,1,right,2,4,0,0,0,0,10,7,87,5,,,,,,,,,217.49744389999978,217.99762099999953,218.71455249999963,None,218.01363700000002,218.69804180000028,219.21534880000036,None,right,1,0.36991459999990184,219.21534880000036,None,None,218.01363700000002,219.1987468999996,0.5119121000006999,0.5948715000004086,1.7130256000000372,1.796414299999924,,,,,,priya_3,001,2020_Feb_14_1233,posner,3.1.5,59.92602731184956,
,,,,,,0,0,0,0,,,,,,,,,,,,,,,,,,,,,,,,,,,,,,,,,,219.6173146000001,None,1.8799999452312477e-05,0.9959056999996392,priya_3,001,2020_Feb_14_1233,posner,3.1.5,59.92602731184956,
-0.5,0,1,left,1,3,1,0,1,0,0,0,0,1,1.2599999536178075e-05,0.0976236999995308,280.6331193999995,None,1.539999993838137e-05,0.09756089999973483,282.7362470999997,None,283.0129913999999,283.5207244000003,284.2216602999997,None,283.5207244000003,284.2216602999997,284.72238019999986,None,left,1,0.35872939999990194,284.72238019999986,None,None,283.5207244000003,284.72238019999986,0.5004817999997613,0.6006889999998748,1.7022595999997066,1.8026222999997117,,,,,,priya_3,001,2020_Feb_14_1233,posner,3.1.5,59.92602731184956,
0.5,180,1,right,2,4,1,0,1,0,0,1,1,7,,,,,,,,,285.1070770999995,285.60675100000026,286.324439,None,285.6233818999999,286.30801390000033,286.8251282000001,None,right,1,0.3760482999996384,286.8251282000001,None,None,285.6233818999999,286.80856140000014,0.5106747999998333,0.59404319999976,1.7124686999995902,1.795778199999404,,,,,,priya_3,001,2020_Feb_14_1233,posner,3.1.5,59.92602731184956,
-0.5,0,1,left,1,3,1,0,1,0,0,2,2,2,,,,,,,,,287.22689979999996,287.72653269999955,288.4440747999997,None,287.74313150000035,288.42747959999997,288.9445875000001,None,left,1,0.28857030000017403,288.9445875000001,None,None,287.74313150000035,288.92801169999984,0.5114863000007972,0.5946954000000915,1.712947200000599,1.7966003000001365,,,,,,priya_3,001,2020_Feb_14_1233,posner,3.1.5,59.92602731184956,
-0.5,0,1,left,1,3,1,0,1,0,0,3,3,0,,,,,,,,,289.2621713999997,289.7625889000001,290.48007419999976,None,289.7792939000001,290.46333890000005,290.9810402000003,None,left,1,0.4439962000005835,290.9810402000003,None,None,289.7792939000001,290.96423219999997,0.5116360000001805,0.5951002000001608,1.7132637000004252,1.796780800000306,,,,,,priya_3,001,2020_Feb_14_1233,posner,3.1.5,59.92602731184956,
-0.5,180,0,left,2,3,1,0,1,0,0,4,4,4,,,,,,,,,291.4491388999995,291.94887110000036,292.6664033999996,None,291.96584410000014,292.64994490000026,293.1674657000003,None,left,1,0.4096479999998337,293.1674657000003,None,None,291.96584410000014,293.1507961999996,0.5113726000008683,0.5947173000004113,1.7132983000001332,1.7962875000002896,,,,,,priya_3,001,2020_Feb_14_1233,posner,3.1.5,59.92602731184956,
0.5,0,0,right,1,4,1,0,1,0,0,5,5,3,,,,,,,,,293.6023003,294.10201959999995,294.8193769999998,None,294.11869509999997,294.80266349999965,295.3202620000002,None,right,1,0.33668609999949695,295.3202620000002,None,None,294.11869509999997,295.3035725,0.5113814999995157,0.5946868999999424,1.7128936999997677,1.796433800000159,,,,,,priya_3,001,2020_Feb_14_1233,posner,3.1.5,59.92602731184956,
0.5,180,1,right,2,4,1,0,1,0,0,6,6,6,,,,,,,,,295.6882349999996,296.18821670000034,296.90578389999973,None,296.2045386,296.88906769999994,297.4065075999997,None,right,1,0.31456920000073296,297.4065075999997,None,None,296.2045386,297.3895934000002,0.5112535999996908,0.5945899999996982,1.7126171999998405,1.7959184999999707,,,,,,priya_3,001,2020_Feb_14_1233,posner,3.1.5,59.92602731184956,
0.5,180,1,right,2,4,1,0,1,0,0,7,7,5,,,,,,,,,297.74053829999957,298.2408395000002,298.9586938000002,None,298.25763129999996,298.94175389999964,299.4594541999995,None,right,1,0.37385530000028666,299.4594541999995,None,None,298.25763129999996,299.4424097000001,0.5115546999995786,0.594944100000248,1.7130992000002152,1.7971059999999852,,,,,,priya_3,001,2020_Feb_14_1233,posner,3.1.5,59.92602731184956,
-0.5,0,1,left,1,3,1,0,1,0,1,0,8,2,,,,,,,,,299.8602304999995,300.36035040000024,301.0782589999999,None,300.3770849000002,301.0613037000003,301.5787865000002,None,left,1,0.3103001999998014,301.5787865000002,None,None,300.3770849000002,301.56202630000007,0.511610099999416,0.5950181999996857,1.7132693999992625,1.7967999999991662,,,,,,priya_3,001,2020_Feb_14_1233,posner,3.1.5,59.92602731184956,
0.5,180,1,right,2,4,1,0,1,0,1,1,9,5,,,,,,,,,301.91363,302.41316689999985,303.1310854000003,None,302.4301095999999,303.11415750000015,303.6316471,None,right,1,0.06552529999953549,303.6316471,None,None,302.4301095999999,303.61481379999987,0.5113662999992812,0.5955010999996375,1.7129889999996522,1.7966232999997374,,,,,,priya_3,001,2020_Feb_14_1233,posner,3.1.5,59.92602731184956,
-0.5,0,1,left,1,3,1,0,1,0,1,2,10,0,,,,,,,,,303.7157428999999,304.21573530000023,304.9332005999995,None,304.23228910000034,304.9167502999999,305.4340377999997,None,left,1,0.29506229999969946,305.4340377999997,None,None,304.23228910000034,305.41757229999985,0.5118382000000565,0.595123600000079,1.7133478999994622,1.7967071999992186,,,,,,priya_3,001,2020_Feb_14_1233,posner,3.1.5,59.92602731184956,
-0.5,0,1,left,1,3,1,0,1,0,1,3,11,1,,,,,,,,,305.7516507999999,306.25200029999996,306.9697176999998,None,306.26876379999976,306.95293310000034,307.47050709999985,None,left,1,0.39466559999982564,307.47050709999985,None,None,306.26876379999976,307.4537100999996,0.5116418999996313,0.5949275000002672,1.713343200000054,1.7967705999999453,,,,,,priya_3,001,2020_Feb_14_1233,posner,3.1.5,59.92602731184956,
-0.5,180,0,left,2,3,1,0,1,0,1,4,12,4,,,,,,,,,307.88857279999957,308.38822210000035,309.1060121999999,None,308.40490130000035,309.0892709,309.6064230000002,None,left,1,0.4427003999999215,309.6064230000002,None,None,308.40490130000035,309.5899561999995,0.5113212999995085,0.5949221999999281,1.7130297999992763,1.7961692999997467,,,,,,priya_3,001,2020_Feb_14_1233,posner,3.1.5,59.92602731184956,
0.5,180,1,right,2,4,1,0,1,0,1,5,13,6,,,,,,,,,310.0744599999998,310.5743728999996,311.29214299999967,None,310.59126190000006,311.2754838000001,311.79281040000023,312.2768372999999,right,1,0.47229169999991427,311.79281040000023,None,None,310.59126190000006,311.7761737000001,0.5115851000000475,0.5951291999999739,1.7133732000002055,1.79695189999984,,,,,,priya_3,001,2020_Feb_14_1233,posner,3.1.5,59.92602731184956,
0.5,0,0,right,1,4,1,0,1,0,1,6,14,3,,,,,,,,,312.29412330000014,312.79414410000027,313.5117594000003,None,312.81106139999974,313.49541299999964,314.01264379999975,None,right,1,0.4524290999997902,314.01264379999975,None,None,312.81106139999974,313.99643300000025,0.5115409999998519,0.5951347000000169,1.713805099999263,1.7965912999998181,,,,,,priya_3,001,2020_Feb_14_1233,posner,3.1.5,59.92602731184956,
0.5,180,1,right,2,4,1,0,1,0,1,7,15,7,,,,,,,,,314.48049530000026,314.98053700000037,315.6981201999997,None,314.99766960000034,315.68156519999957,316.19899669999995,None,right,1,0.3379784999997355,316.19899669999995,None,None,314.99766960000034,316.18225170000005,0.511737599999833,0.5950563999995211,1.7134334000002127,1.7968952999999601,,,,,,priya_3,001,2020_Feb_14_1233,posner,3.1.5,59.92602731184956,
0.5,180,1,right,2,4,1,0,1,0,2,0,16,7,,,,,,,,,316.56663130000015,317.06693300000006,317.78432580000026,None,317.0833150999997,317.7679097,318.2851588000003,None,right,1,0.3319880999997622,318.2851588000003,None,None,317.0833150999997,318.2686652000002,0.5117626999999629,0.5951938999996855,1.7134792999995625,1.79678739999963,,,,,,priya_3,001,2020_Feb_14_1233,posner,3.1.5,59.92602731184956,
0.5,0,0,right,1,4,1,0,1,0,2,1,17,3,,,,,,,,,318.6365618,319.13631650000025,319.85404759999983,None,319.1528969000001,319.83727120000003,320.35474840000006,320.8386264999999,right,1,0.486330600000656,320.35474840000006,None,None,319.1528969000001,320.3381330000002,0.511654500000077,0.5951684999999998,1.7134533999997075,1.796741799999836,,,,,,priya_3,001,2020_Feb_14_1233,posner,3.1.5,59.92602731184956,
-0.5,0,1,left,1,3,1,0,1,0,2,2,18,0,,,,,,,,,320.8724903000002,321.37257839999984,322.0904479000001,None,321.3894994000002,322.07375729999967,322.5911103999997,None,left,1,0.3140886999999566,322.5911103999997,None,None,321.3894994000002,322.5742177000002,0.5113529999998718,0.5950671999999031,1.7129770000001372,1.7966237999999066,,,,,,priya_3,001,2020_Feb_14_1233,posner,3.1.5,59.92602731184956,
-0.5,0,1,left,1,3,1,0,1,0,2,3,19,2,,,,,,,,,322.92604630000005,323.4254976000002,324.14329220000036,None,323.4424616999995,324.1266966000003,324.64393740000014,None,left,1,0.39714570000069216,324.64393740000014,None,None,323.4424616999995,324.6272479999998,0.5115205000001879,0.5947430999995049,1.712991399999737,1.7964869999996154,,,,,,priya_3,001,2020_Feb_14_1233,posner,3.1.5,59.92602731184956,
-0.5,180,0,left,2,3,1,0,1,0,2,4,20,4,,,,,,,,,325.0619982999997,325.5617714,326.2794285,None,325.5786833000002,326.2626446000004,326.7803322,None,left,1,0.4045994999996765,326.7803322,None,None,325.5786833000002,326.76343259999976,0.5114717999995264,0.5948993000001792,1.7131202999999005,1.796684599999935,,,,,,priya_3,001,2020_Feb_14_1233,posner,3.1.5,59.92602731184956,
0.5,180,1,right,2,4,1,0,1,0,2,5,21,6,,,,,,,,,327.2144724,327.7147414000001,328.4323085999995,None,327.7315896,328.41574260000016,328.9330477000003,None,right,1,0.31593209999937244,328.9330477000003,None,None,327.7315896,328.91673209999954,0.5115259999993214,0.5951107999999294,1.713497599999755,1.7964636999995491,,,,,,priya_3,001,2020_Feb_14_1233,posner,3.1.5,59.92602731184956,
-0.5,0,1,left,1,3,1,0,1,0,2,6,22,1,,,,,,,,,329.2680698000004,329.7677008999999,330.48534870000003,None,329.7843947000001,330.46857290000025,330.9862913999996,None,left,1,0.30278760000055627,330.9862913999996,None,None,329.7843947000001,330.96929329999966,0.5113019999998869,0.5949204999997164,1.712880099999893,1.796301599999424,,,,,,priya_3,001,2020_Feb_14_1233,posner,3.1.5,59.92602731184956,
0.5,180,1,right,2,4,1,0,1,0,2,7,23,5,,,,,,,,,331.3204748999997,331.82056660000035,332.5379377999998,None,331.8370143000002,332.52153629999975,333.03885850000006,None,right,1,0.4020282000001316,333.03885850000006,None,None,331.8370143000002,333.0221352999997,0.5116178999996919,0.5948295999996844,1.7131710000003295,1.7966139999998632,,,,,,priya_3,001,2020_Feb_14_1233,posner,3.1.5,59.92602731184956,
0.5,180,1,right,2,4,1,0,1,0,3,0,24,6,,,,,,,,,333.4570174999999,333.95662509999966,334.6744155999995,None,333.9733250999998,334.6576659000002,335.1751369000003,335.65921249999974,right,1,0.49787130000004254,335.1751369000003,None,None,333.9733250999998,335.1584874,0.5114776000000347,0.5950006000002759,1.7133156999998391,1.7968353999995088,,,,,,priya_3,001,2020_Feb_14_1233,posner,3.1.5,59.92602731184956,
0.5,180,1,right,2,4,1,0,1,0,3,1,25,7,,,,,,,,,335.69265600000017,336.1931598000001,336.91097759999957,None,336.21000470000035,336.8941202999995,337.41170429999966,None,right,1,0.34130869999989955,337.41170429999966,None,None,336.21000470000035,337.3946500000002,0.5122750000000451,0.5959473000002617,1.7137503000003562,1.7974898000002213,,,,,,priya_3,001,2020_Feb_14_1233,posner,3.1.5,59.92602731184956,
-0.5,0,1,left,1,3,1,0,1,0,3,2,26,2,,,,,,,,,337.77925739999955,338.2794195999995,338.9971991000002,None,338.29609679999976,338.9803243999995,339.4979290000001,None,left,1,0.3270916000001307,339.4979290000001,None,None,338.29609679999976,339.48102389999985,0.5116754999999102,0.5950525999996898,1.7132659999997486,1.7967574999993303,,,,,,priya_3,001,2020_Feb_14_1233,posner,3.1.5,59.92602731184956,
0.5,0,0,right,1,4,1,0,1,0,3,3,27,3,,,,,,,,,339.84878690000005,340.3488435999998,341.06652920000033,None,340.3658415,341.04989430000023,341.56733819999954,None,right,1,0.41754190000028757,341.56733819999954,None,None,340.3658415,341.55068930000016,0.5112522999997964,0.594643299999916,1.7130903999996008,1.7962138000002597,,,,,,priya_3,001,2020_Feb_14_1233,posner,3.1.5,59.92602731184956,
-0.5,180,0,left,2,3,1,0,1,0,3,4,28,4,,,,,,,,,342.0020083999998,342.5019014999998,343.21938489999957,None,342.5184827000003,343.20281929999965,343.7203609999997,None,left,1,0.38459510000029695,343.7203609999997,None,None,342.5184827000003,343.70357049999984,0.5119071999997686,0.5950475999998162,1.7135561999994025,1.7970563999997466,,,,,,priya_3,001,2020_Feb_14_1233,posner,3.1.5,59.92602731184956,
-0.5,0,1,left,1,3,1,0,1,0,3,5,29,0,,,,,,,,,344.1212882,344.62157300000035,345.3390978999996,None,344.6382112000001,345.3222095000001,345.83982240000023,None,left,1,0.46528309999939665,345.83982240000023,None,None,344.6382112000001,345.82308569999987,0.5117383999995582,0.595109599999887,1.713241100000232,1.7965120999997453,,,,,,priya_3,001,2020_Feb_14_1233,posner,3.1.5,59.92602731184956,
-0.5,0,1,left,1,3,1,0,1,0,3,6,30,1,,,,,,,,,346.32463149999967,346.8244158999996,347.5422755999998,None,346.8411294999996,347.5253861000001,348.04265769999984,346.32463149999967,left,1,0.3741818999997122,348.04265769999984,None,None,346.8411294999996,348.02637219999997,0.5114567999999053,0.5950343000004068,1.7133907999996154,1.7966426000002684,,,,,,priya_3,001,2020_Feb_14_1233,posner,3.1.5,59.92602731184956,
0.5,180,1,right,2,4,1,0,1,0,3,7,31,5,,,,,,,,,348.4441790000001,348.9439476999996,349.66186709999965,None,348.9607898000004,349.64491949999956,350.1624479000002,None,right,1,0.45451300000058836,350.1624479000002,None,None,348.9607898000004,350.14568580000014,0.5115394000004017,0.5950713000001997,1.71326930000032,1.796499899999617,,,,,,priya_3,001,2020_Feb_14_1233,posner,3.1.5,59.92602731184956,
-0.5,180,0,left,2,3,1,0,1,0,4,0,32,4,,,,,,,,,350.6469632999997,351.1471945000003,351.8645227999996,None,351.1636421000003,351.84812839999995,352.36564739999994,352.8496366999998,left,1,0.7312953000000562,352.36564739999994,None,None,351.1636421000003,352.3487019000004,0.5116288999997778,0.5948935999995228,1.713102799999433,1.7966012999995655,,,,,,priya_3,001,2020_Feb_14_1233,posner,3.1.5,59.92602731184956,
0.5,180,1,right,2,4,1,0,1,0,4,1,33,6,,,,,,,,,353.1175691999997,353.6172051000003,354.3346838999996,None,353.6337203000003,354.3178906000003,354.8356748999995,None,right,1,0.36535189999995055,354.8356748999995,None,None,353.6337203000003,354.81881069999963,0.5115743999995175,0.5949467999998888,1.7131642999993346,1.796573399999943,,,,,,priya_3,001,2020_Feb_14_1233,posner,3.1.5,59.92602731184956,
0.5,180,1,right,2,4,1,0,1,0,4,2,34,5,,,,,,,,,355.2198155999995,355.72017909999977,356.4375097000002,None,355.7370461999999,356.4209528000001,356.93834379999953,None,right,1,0.33449339999970107,356.93834379999953,None,None,355.7370461999999,356.92156030000024,0.511725899999874,0.5954154000000926,1.713093200000003,1.7967318999999407,,,,,,priya_3,001,2020_Feb_14_1233,posner,3.1.5,59.92602731184956,
-0.5,0,1,left,1,3,1,0,1,0,4,3,35,1,,,,,,,,,357.2898212,357.78952449999997,358.50735069999973,None,357.8062917999996,358.49067730000024,359.0077745999997,359.4918074999996,left,1,0.7931768999997075,359.0077745999997,None,None,357.8062917999996,358.99112239999977,0.5114011999994545,0.5946182999996381,1.7129647999990993,1.7964081999998598,,,,,,priya_3,001,2020_Feb_14_1233,posner,3.1.5,59.92602731184956,
0.5,0,0,right,1,4,1,0,1,0,4,4,36,3,,,,,,,,,359.8260715999995,360.3264475999995,361.0439672000002,None,360.3428938999996,361.02748640000027,361.5446351999999,None,right,1,0.4003023999994184,361.5446351999999,None,None,360.3428938999996,361.52788770000006,0.5117964999999458,0.5953924999994342,1.7132168999996793,1.7969492000001992,,,,,,priya_3,001,2020_Feb_14_1233,posner,3.1.5,59.92602731184956,
-0.5,0,1,left,1,3,1,0,1,0,4,5,37,2,,,,,,,,,361.96277980000013,362.4625219999998,363.18029920000026,None,362.4794038,363.16339249999965,363.68095710000034,None,left,1,0.2879541000002064,363.68095710000034,None,None,362.4794038,363.6642192999998,0.5114677000001393,0.5951120999998238,1.7131482000004326,1.7966362000006484,,,,,,priya_3,001,2020_Feb_14_1233,posner,3.1.5,59.92602731184956,
-0.5,0,1,left,1,3,1,0,1,0,4,6,38,0,,,,,,,,,363.99833359999957,364.49908419999974,365.21625609999955,None,364.5152809000001,365.19973889999983,365.71716839999954,366.2013036999997,left,1,0.4758317999994688,365.71716839999954,None,None,364.5152809000001,365.7002978999999,0.5117841999999655,0.5947946000005686,1.7129910000003292,1.7965099000002738,,,,,,priya_3,001,2020_Feb_14_1233,posner,3.1.5,59.92602731184956,
0.5,180,1,right,2,4,1,0,1,0,4,7,39,7,,,,,,,,,366.2187598999999,366.71859330000007,367.4362166000001,None,366.7351233999998,367.41958129999966,367.93705769999997,None,right,1,0.1840308000000732,367.93705769999997,None,None,366.7351233999998,367.92012590000013,0.5114320000002408,0.5949990999997681,1.712951699999394,1.7964709999996558,,,,,,priya_3,001,2020_Feb_14_1233,posner,3.1.5,59.92602731184956,
0.5,180,1,right,2,4,1,0,1,0,5,0,40,7,,,,,,,,,368.1379674,368.63770680000016,369.35545139999977,None,368.6544316999998,369.3387942999998,369.8561724000001,370.34033069999987,right,1,0.5368305999991207,369.8561724000001,None,None,368.6544316999998,369.83960019999995,0.5112747000002855,0.5949149999996735,1.7131517999996504,1.796334200000274,,,,,,priya_3,001,2020_Feb_14_1233,posner,3.1.5,59.92602731184956,
-0.5,0,1,left,1,3,1,0,1,0,5,1,41,0,,,,,,,,,370.4239448999997,370.9243693999997,371.64189239999996,None,370.94105949999994,371.6251107999997,372.1425774999998,None,left,1,0.29839369999990595,372.1425774999998,None,None,370.94105949999994,372.12601689999974,0.5117663999999422,0.5951420000001235,1.7133900000007998,1.796870900000613,,,,,,priya_3,001,2020_Feb_14_1233,posner,3.1.5,59.92602731184956,
-0.5,0,1,left,1,3,1,0,1,0,5,2,42,2,,,,,,,,,372.4604965999997,372.9604172999998,373.67806779999955,None,372.97724279999966,373.66145640000013,374.1788985000003,None,left,1,0.3820003999999244,374.1788985000003,None,None,372.97724279999966,374.1621404999996,0.5114854999992531,0.5947206999999253,1.71319289999974,1.7967658999996274,,,,,,priya_3,001,2020_Feb_14_1233,posner,3.1.5,59.92602731184956,
0.5,180,1,right,2,4,1,0,1,0,5,3,43,6,,,,,,,,,374.57960209999965,375.0801058999996,375.79780519999986,None,375.09696470000017,375.7810566999997,376.2984403999999,None,right,1,0.37441860000035376,376.2984403999999,None,None,375.09696470000017,376.2816713000002,0.5116430999996737,0.5949780999999348,1.713195700000142,1.7968129999999292,,,,,,priya_3,001,2020_Feb_14_1233,posner,3.1.5,59.92602731184956,
0.5,180,1,right,2,4,1,0,1,0,5,4,44,5,,,,,,,,,376.69957090000025,377.1997819999997,377.917418,None,377.2163037999999,377.9008090999996,378.41805810000005,None,right,1,0.35091600000032486,378.41805810000005,None,None,377.2163037999999,378.4014269999998,0.5117682000000059,0.5950112000000445,1.7133954999999332,1.7964907999994466,,,,,,priya_3,001,2020_Feb_14_1233,posner,3.1.5,59.92602731184956,
-0.5,0,1,left,1,3,1,0,1,0,5,5,45,1,,,,,,,,,378.7861217999998,379.2859976999998,380.00352329999987,None,379.30262649999986,379.9869669999998,380.5040610999995,None,left,1,0.3609499999993204,380.5040610999995,None,None,379.30262649999986,380.4876678999999,0.5117115999992166,0.594885699999395,1.713366599999972,1.7967144999993252,,,,,,priya_3,001,2020_Feb_14_1233,posner,3.1.5,59.92602731184956,
0.5,0,0,right,1,4,1,0,1,0,5,6,46,3,,,,,,,,,380.8888208999997,381.3886884000003,382.10645320000003,None,381.4052837999998,382.0898137000004,382.6071915000002,None,right,1,0.28993869999976596,382.6071915000002,None,None,381.4052837999998,382.59040240000013,0.511320199999318,0.5947701999994024,1.7130231999999523,1.79622499999914,,,,,,priya_3,001,2020_Feb_14_1233,posner,3.1.5,59.92602731184956,
-0.5,180,0,left,2,3,1,0,1,0,5,7,47,4,,,,,,,,,382.92513959999997,383.42489920000025,384.1423407000002,None,383.4415235999995,384.1258584999996,384.64299010000013,None,left,1,0.38192499999968277,384.64299010000013,None,None,383.4415235999995,384.626526,0.5116774999996778,0.5951525999998921,1.7132711999993262,1.7965494000000035,,,,,,priya_3,001,2020_Feb_14_1233,posner,3.1.5,59.92602731184956,
-0.5,0,1,left,1,3,1,0,1,0,6,0,48,1,,,,,,,,,385.0453539,385.5443271000004,386.26190289999977,None,385.56112529999973,386.2452876999996,386.76258359999974,None,left,1,0.3662457999998878,386.76258359999974,None,None,385.56112529999973,386.74592349999966,0.5111569999999119,0.5948181000003387,1.7130440000000817,1.796357100000023,,,,,,priya_3,001,2020_Feb_14_1233,posner,3.1.5,59.92602731184956,
0.5,180,1,right,2,4,1,0,1,0,6,1,49,7,,,,,,,,,387.1477124000003,387.64717740000015,388.3652247,None,387.6639600999997,388.3484007999996,388.8660842999998,None,right,1,0.4468893000002936,388.8660842999998,None,None,387.6639600999997,388.84917829999995,0.5113209000001007,0.594846800000596,1.7133013000002393,1.7964345000000321,,,,,,priya_3,001,2020_Feb_14_1233,posner,3.1.5,59.92602731184956,
-0.5,0,1,left,1,3,1,0,1,0,6,2,50,0,,,,,,,,,389.3341522999999,389.8337034999995,390.5515212,None,389.8505835999995,390.5346268000003,391.05205899999964,None,left,1,0.32482249999975465,391.05205899999964,None,None,389.8505835999995,391.03533789999983,0.51119910000034,0.5945571000002019,1.7128241999998863,1.7961334000001443,,,,,,priya_3,001,2020_Feb_14_1233,posner,3.1.5,59.92602731184956,
0.5,0,0,right,1,4,1,0,1,0,6,3,51,3,,,,,,,,,391.4028992000003,391.9032175000002,392.6209001999996,None,391.9198375999995,392.60428520000005,393.1215741999995,None,right,1,0.35927149999952235,393.1215741999995,None,None,391.9198375999995,393.10489899999993,0.5119080999993457,0.5955341999997472,1.7135786999997435,1.7969349999993938,,,,,,priya_3,001,2020_Feb_14_1233,posner,3.1.5,59.92602731184956,
0.5,180,1,right,2,4,1,0,1,0,6,4,52,6,,,,,,,,,393.50598059999993,394.0061132999999,394.7235988000002,None,394.02263310000035,394.70692469999995,395.2244105999998,None,right,1,0.46451989999968646,395.2244105999998,None,None,394.02263310000035,395.2078689,0.5118099999999686,0.5954366000005393,1.713553000000502,1.7969135000003007,,,,,,priya_3,001,2020_Feb_14_1233,posner,3.1.5,59.92602731184956,
0.5,180,1,right,2,4,1,0,1,0,6,5,53,5,,,,,,,,,395.70882640000036,396.2092407,396.9266969,None,396.2257854999998,396.91014689999975,397.4274511000003,397.9114106999996,right,1,0.4853425999999672,397.4274511000003,None,None,396.2257854999998,397.4108261000001,0.5118488000007346,0.5952001000005112,1.7134238000007826,1.7970486000003802,,,,,,priya_3,001,2020_Feb_14_1233,posner,3.1.5,59.92602731184956,
-0.5,180,0,left,2,3,1,0,1,0,6,6,54,4,,,,,,,,,397.92879639999956,398.4289318000001,399.14628319999974,None,398.44553910000013,399.1298033000003,399.64731800000027,None,left,1,0.38548030000038125,399.64731800000027,None,None,398.44553910000013,399.63034940000034,0.5116756999996142,0.5950361999994129,1.713082199999917,1.7965811999993093,,,,,,priya_3,001,2020_Feb_14_1233,posner,3.1.5,59.92602731184956,
-0.5,0,1,left,1,3,1,0,1,0,6,7,55,2,,,,,,,,,400.0480856000004,400.54849680000007,401.2660503999996,None,400.56516009999996,401.2495276999998,401.76686450000034,None,left,1,0.44997719999992114,401.76686450000034,None,None,400.56516009999996,401.75015129999974,0.5115717999997287,0.5948082999993858,1.7132105000000593,1.7965756999992664,,,,,,priya_3,001,2020_Feb_14_1233,posner,3.1.5,59.92602731184956,
-0.5,0,1,left,1,3,1,0,1,0,7,0,56,1,,,,,,,,,402.23484050000025,402.73468070000035,403.45242679999956,None,402.75139430000036,403.43585619999976,403.95318320000024,None,left,1,0.42366989999936777,403.95318320000024,None,None,402.75139430000036,403.93654249999963,0.5114233000003878,0.5948866000007911,1.7132629000007,1.7966933000006975,,,,,,priya_3,001,2020_Feb_14_1233,posner,3.1.5,59.92602731184956,
0.5,180,1,right,2,4,1,0,1,0,7,1,57,5,,,,,,,,,404.4044778999996,404.90431890000036,405.6220057999999,None,404.9210807999998,405.6052260999995,406.12261769999986,None,right,1,0.24613760000011098,406.12261769999986,None,None,404.9210807999998,406.1061917999996,0.5115456000003178,0.5952051000003848,1.7133898000001864,1.7968625000003158,,,,,,priya_3,001,2020_Feb_14_1233,posner,3.1.5,59.92602731184956,
-0.5,180,0,left,2,3,1,0,1,0,7,2,58,4,,,,,,,,,406.3905611,406.8905103999996,407.60814649999975,None,406.90731140000025,407.59159629999976,408.1089543999997,None,left,1,0.39579779999985476,408.1089543999997,None,None,406.90731140000025,408.0920034999999,0.5115660000001299,0.5950762000002214,1.7130428999998912,1.796733099999983,,,,,,priya_3,001,2020_Feb_14_1233,posner,3.1.5,59.92602731184956,
-0.5,0,1,left,1,3,1,0,1,0,7,3,59,0,,,,,,,,,408.52649589999965,409.0269423,409.7443444999999,None,409.04346989999976,409.7275037999998,410.24521259999983,410.72899080000025,left,1,0.4756157000001622,410.24521259999983,None,None,409.04346989999976,410.2285899999997,0.512315199999648,0.5956478999996762,1.7139452999999776,1.7971503999997367,,,,,,priya_3,001,2020_Feb_14_1233,posner,3.1.5,59.92602731184956,
0.5,180,1,right,2,4,1,0,1,0,7,4,60,7,,,,,,,,,410.7466105000003,411.2465725000002,411.96400710000034,None,411.26291370000035,411.94734960000005,412.4647517000003,None,right,1,0.384160200000224,412.4647517000003,None,None,411.26291370000035,412.4481512000002,0.5119197000003624,0.5953893000005337,1.7134859000007054,1.7968504000000394,,,,,,priya_3,001,2020_Feb_14_1233,posner,3.1.5,59.92602731184956,
-0.5,0,1,left,1,3,1,0,1,0,7,5,61,2,,,,,,,,,412.8661570000004,413.3660070999995,414.0837550999995,None,413.38265130000036,414.06716589999996,414.58444429999963,None,left,1,0.38423190000048635,414.58444429999963,None,None,413.38265130000036,414.56785390000005,0.5118320000001404,0.5954324999993332,1.713651299999583,1.7968542999997226,,,,,,priya_3,001,2020_Feb_14_1233,posner,3.1.5,59.92602731184956,
0.5,0,0,right,1,4,1,0,1,0,7,6,62,3,,,,,,,,,414.98586239999986,415.4857173999999,416.20332919999964,None,415.5021514,416.18624139999974,416.70409889999974,None,right,1,0.44081869999990886,416.70409889999974,None,None,415.5021514,416.68744719999995,0.5117097999991529,0.5952083999991373,1.7134112999992794,1.796710599999642,,,,,,priya_3,001,2020_Feb_14_1233,posner,3.1.5,59.92602731184956,
0.5,180,1,right,2,4,1,0,1,0,7,7,63,6,,,,,,,,,417.1722493999996,417.6718965,418.38984509999955,None,417.68871519999993,418.37294980000024,418.89035239999976,419.3742578000001,right,1,0.6064409000000524,418.89035239999976,None,None,417.68871519999993,418.8735117999995,0.5113897000001089,0.5952466999997341,1.7129901999996946,1.7965076999998928,,,,,,priya_3,001,2020_Feb_14_1233,posner,3.1.5,59.92602731184956,
0.5,180,1,right,2,4,1,0,1,0,8,0,64,5,,,,,,,,,419.5256297999995,420.0255318999998,420.7428477000003,None,420.0419254999997,420.72622260000026,421.24357189999955,421.7276574999996,right,1,0.6454260000000431,421.24357189999955,None,None,420.0419254999997,421.22708909999983,0.511901100000614,0.5951874000002135,1.7134522000005745,1.7967310000003636,,,,,,priya_3,001,2020_Feb_14_1233,posner,3.1.5,59.92602731184956,
0.5,180,1,right,2,4,1,0,1,0,8,1,65,7,,,,,,,,,421.9115670000001,422.4119109000003,423.1295207000003,None,422.42857709999953,423.11262369999986,423.63040100000035,424.11405829999967,right,1,0.506518799999867,423.63040100000035,None,None,422.42857709999953,423.6133645,0.511942099999942,0.5956667999998899,1.7133773999994446,1.7971471000000747,,,,,,priya_3,001,2020_Feb_14_1233,posner,3.1.5,59.92602731184956,
0.5,180,1,right,2,4,1,0,1,0,8,2,66,6,,,,,,,,,424.1648392999996,424.66489960000035,425.38249240000005,None,424.6816657999998,425.36591130000033,425.8832758999997,None,right,1,0.32553010000083304,425.8832758999997,None,None,424.6816657999998,425.8666205999998,0.5118193999996947,0.595303199999762,1.7135207999999693,1.797347599999739,,,,,,priya_3,001,2020_Feb_14_1233,posner,3.1.5,59.92602731184956,
-0.5,0,1,left,1,3,1,0,1,0,8,3,67,0,,,,,,,,,426.23435659999996,426.7344916000002,427.4522125000003,None,426.75119170000016,427.43543039999986,427.9528005000002,428.43696530000034,None,0,,427.9528005000002,None,None,426.75119170000016,427.93642199999977,0.511455400000159,0.5948952999997346,1.713363699999718,1.796581900000092,,,,,,priya_3,001,2020_Feb_14_1233,posner,3.1.5,59.92602731184956,
-0.5,180,0,left,2,3,1,0,1,0,8,4,68,4,,,,,,,,,428.93757000000005,429.43819859999985,430.15607230000023,428.93757000000005,429.4549713999995,430.1392807000002,430.65650370000003,431.14062550000017,left,1,0.5122533000003386,430.65650370000003,None,None,429.4549713999995,430.6399070999996,0.5135099999997692,0.5968128999993496,1.7151991999999154,1.7985118999995393,,,,,,priya_3,001,2020_Feb_14_1233,posner,3.1.5,59.92602731184956,
0.5,0,0,right,1,4,1,0,1,0,8,5,69,3,,,,,,,,,431.19143090000034,431.69140659999994,432.4090851000001,None,431.70814280000013,432.39225799999986,432.9096459000002,433.39361720000034,right,1,0.6750763000000006,432.9096459000002,None,None,431.70814280000013,432.89290079999955,0.5116094999993948,0.5949043999999049,1.7130913000000874,1.7966590999994878,,,,,,priya_3,001,2020_Feb_14_1233,posner,3.1.5,59.92602731184956,
-0.5,0,1,left,1,3,1,0,1,0,8,6,70,2,,,,,,,,,433.6111781999998,434.1113250999997,434.8289335999998,None,434.1281067,434.8121179,435.32971499999985,None,left,1,0.3350622999996631,435.32971499999985,None,None,434.1281067,435.31288310000036,0.5116420999993352,0.5949590999998691,1.7131842999997389,1.7969499000000724,,,,,,priya_3,001,2020_Feb_14_1233,posner,3.1.5,59.92602731184956,
-0.5,0,1,left,1,3,1,0,1,0,8,7,71,1,,,,,,,,,435.6808609999998,436.18092869999964,436.8986782000002,None,436.1975633000002,436.88180850000026,437.39931419999994,437.8831376999997,left,1,0.5056563000007372,437.39931419999994,None,None,436.1975633000002,437.3825675999997,0.511692199999743,0.594898600000306,1.713320500000009,1.7967140999999174,,,,,,priya_3,001,2020_Feb_14_1233,posner,3.1.5,59.92602731184956,
0.5,180,1,right,2,4,1,0,1,0,9,0,72,7,,,,,,,,,437.93400740000016,438.43379670000013,439.15167329999986,None,438.45066700000007,439.1347446999998,439.6523937000002,None,right,1,0.3643131999997422,439.6523937000002,None,None,438.45066700000007,439.63563299999987,0.5112865000000966,0.5949319000001196,1.7131038999996235,1.7965618999996877,,,,,,priya_3,001,2020_Feb_14_1233,posner,3.1.5,59.92602731184956,
0.5,0,0,right,1,4,1,0,1,0,9,1,73,3,,,,,,,,,440.03715920000013,440.5369719999999,441.25431149999986,None,440.55363769999985,441.2378998000004,441.75512030000027,None,left,0,0.46184919999996055,441.75512030000027,None,None,440.55363769999985,441.73840759999985,0.51149869999972,0.594748299999992,1.712916000000405,1.796393600000556,,,,,,priya_3,001,2020_Feb_14_1233,posner,3.1.5,59.92602731184956,
0.5,180,1,right,2,4,1,0,1,0,9,2,74,6,,,,,,,,,442.2398529000002,442.7400796000002,443.4576248000003,None,442.75656809999964,443.44069299999956,443.95827219999956,444.44228459999977,right,1,0.722570299999461,443.95827219999956,None,None,442.75656809999964,443.9414753000001,0.5116478999998435,0.5948147999997673,1.7130259000005026,1.7964547999999922,,,,,,priya_3,001,2020_Feb_14_1233,posner,3.1.5,59.92602731184956,
-0.5,180,0,left,2,3,1,0,1,0,9,3,75,4,,,,,,,,,444.70927870000014,445.21004059999996,445.92770649999966,None,445.2267587999995,445.91091529999994,446.4282726000001,446.9123542999996,None,0,,446.4282726000001,None,None,445.2267587999995,446.4115549999997,0.5125416999999288,0.5958622999996805,1.7140426999994816,1.7979169999998703,,,,,,priya_3,001,2020_Feb_14_1233,posner,3.1.5,59.92602731184956,
-0.5,0,1,left,1,3,1,0,1,0,9,4,76,1,,,,,,,,,447.41294039999957,447.91354880000017,448.6312796000002,447.41294039999957,447.93048050000016,448.61457919999975,449.1318441000003,None,left,1,0.3570243999993181,449.1318441000003,None,None,447.93048050000016,449.11569599999984,0.5132201000005807,0.597057500000119,1.7153404000000592,1.7986361000002944,,,,,,priya_3,001,2020_Feb_14_1233,posner,3.1.5,59.92602731184956,
-0.5,0,1,left,1,3,1,0,1,0,9,5,77,2,,,,,,,,,449.5166884,450.0166628999996,450.7340715,None,450.0332234999996,450.71751889999996,451.23477040000034,None,left,1,0.39801450000049954,451.23477040000034,None,None,450.0332234999996,451.2182654999997,0.5116507999991882,0.5955016999996587,1.7132452999994712,1.7966134999996939,,,,,,priya_3,001,2020_Feb_14_1233,posner,3.1.5,59.92602731184956,
0.5,180,1,right,2,4,1,0,1,0,9,6,78,5,,,,,,,,,451.6532239999997,452.1528392,452.8706009999996,None,452.1697489999997,452.85371750000013,453.3712052000001,None,right,1,0.34944240000004356,453.3712052000001,None,None,452.1697489999997,453.3544297999997,0.5115646000003835,0.5951461000004201,1.7131392000001142,1.7964616999997816,,,,,,priya_3,001,2020_Feb_14_1233,posner,3.1.5,59.92602731184956,
-0.5,0,1,left,1,3,1,0,1,0,9,7,79,0,,,,,,,,,453.73926440000014,454.23903379999956,454.95683199999985,None,454.25594,454.94011299999966,455.4572896999998,None,left,1,0.2875001999991582,455.4572896999998,None,None,454.25594,455.4405909999996,0.5113234000000375,0.5945332999999664,1.7128576999994038,1.7963962999992873,,,,,,priya_3,001,2020_Feb_14_1233,posner,3.1.5,59.92602731184956,
0.5,180,1,right,2,4,1,0,1,0,10,0,80,6,,,,,,,,,455.77531629999976,456.27497070000027,456.99276050000026,None,456.2921043999995,456.9762062,457.4937973999995,None,right,1,0.4428770999993503,457.4937973999995,None,None,456.2921043999995,457.4770423,0.5113095999995494,0.5949829999999565,1.7133640000001833,1.7969987999995283,,,,,,priya_3,001,2020_Feb_14_1233,posner,3.1.5,59.92602731184956,
-0.5,0,1,left,1,3,1,0,1,0,10,1,81,1,,,,,,,,,457.96148579999954,458.46159480000006,459.1792781000004,None,458.47829900000033,459.1624818999999,459.6798196999998,None,left,1,0.29679720000058296,459.6798196999998,None,None,458.47829900000033,459.6630217000002,0.5116892999994889,0.5949148999998215,1.7131012999998347,1.7967588999999862,,,,,,priya_3,001,2020_Feb_14_1233,posner,3.1.5,59.92602731184956,
-0.5,0,1,left,1,3,1,0,1,0,10,2,82,2,,,,,,,,,459.99819430000025,460.49798420000025,461.21523929999967,None,460.5143245999998,461.19863840000016,461.7161596999995,None,left,1,0.3887427999998181,461.7161596999995,None,None,460.5143245999998,461.69925330000024,0.5115051000002495,0.5945789000006698,1.7128150000007736,1.796015300000363,,,,,,priya_3,001,2020_Feb_14_1233,posner,3.1.5,59.92602731184956,
-0.5,180,0,left,2,3,1,0,1,0,10,3,83,4,,,,,,,,,462.13392120000026,462.6339801000004,463.35173399999985,None,462.65088449999985,463.3348070000002,463.8523150000001,464.3364104000002,left,1,0.516336699999556,463.8523150000001,None,None,462.65088449999985,463.83542750000015,0.5117964000000939,0.5951752000000852,1.7132314999998925,1.7968112999997174,,,,,,priya_3,001,2020_Feb_14_1233,posner,3.1.5,59.92602731184956,
0.5,180,1,right,2,4,1,0,1,0,10,4,84,7,,,,,,,,,464.38697760000014,464.8869883999996,465.60468130000027,None,464.9036881000002,465.5880567000004,466.1052303999995,None,right,1,0.34338670000033744,466.1052303999995,None,None,464.9036881000002,466.0887223999998,0.5120974000001297,0.5957286000002568,1.7138057000001936,1.7971689000005426,,,,,,priya_3,001,2020_Feb_14_1233,posner,3.1.5,59.92602731184956,
0.5,180,1,right,2,4,1,0,1,0,10,5,85,5,,,,,,,,,466.47309570000016,466.97316169999976,467.6910792999997,None,466.9901141999999,467.67415710000023,468.1916031999999,468.6757114000002,right,1,0.5210402000002432,468.1916031999999,None,None,466.9901141999999,468.1749996999997,0.5116077000002406,0.5952417999997124,1.7134651999995185,1.7967498999996678,,,,,,priya_3,001,2020_Feb_14_1233,posner,3.1.5,59.92602731184956,
0.5,0,0,right,1,4,1,0,1,0,10,6,86,3,,,,,,,,,468.74271729999964,469.24286649999976,469.9606580999998,None,469.25952549999965,469.94393279999986,470.4613903999998,None,right,1,0.4433608000008462,470.4613903999998,None,None,469.25952549999965,470.44457499999953,0.5114183000005141,0.5950613000004523,1.7131113000004916,1.7966863999999987,,,,,,priya_3,001,2020_Feb_14_1233,posner,3.1.5,59.92602731184956,
-0.5,0,1,left,1,3,1,0,1,0,10,7,87,0,,,,,,,,,470.92938140000024,471.4293611000003,472.14702039999975,None,471.4461451999996,472.1303693,472.6475967999995,473.1315558999995,left,1,0.473259300000791,472.6475967999995,None,None,471.4461451999996,472.63118120000036,0.5114987999995719,0.5947502999997596,1.7133013000002393,1.7965039000000615,,,,,,priya_3,001,2020_Feb_14_1233,posner,3.1.5,59.92602731184956,
,,,,,,1,0,1,0,,,,,,,,,,,,,,,,,,,,,,,,,,,,,,,,,,473.1483271999996,None,1.6799999684735667e-05,0.995723299999554,priya_3,001,2020_Feb_14_1233,posner,3.1.5,59.92602731184956,
0.5,180,1,right,2,4,2,0,2,0,0,0,0,7,1.249999968422344e-05,0.09743479999997362,534.1657245999995,None,1.4899999769113492e-05,0.09841249999954016,536.2687776000002,None,536.5509738000001,537.0529146999997,537.7708079000004,None,537.0690138999998,537.7540314999997,538.2716158000003,None,right,1,0.3768325000000914,538.2716158000003,None,None,537.0690138999998,538.2546689000001,0.5114168999998583,0.5949712999999974,1.7131509999999253,1.79657109999971,,,,,,priya_3,001,2020_Feb_14_1233,posner,3.1.5,59.92602731184956,
0.5,180,1,right,2,4,2,0,2,0,0,1,1,6,,,,,,,,,538.6727743000001,539.1725429999997,539.8903079000002,None,539.1895162000001,539.8735833000001,540.3910049999995,None,right,1,0.3214024999997491,540.3910049999995,None,None,539.1895162000001,540.3741776999996,0.5108774999998786,0.5944131999995079,1.7124976999994033,1.7960542000000714,,,,,,priya_3,001,2020_Feb_14_1233,posner,3.1.5,59.92602731184956,
-0.5,180,0,left,2,3,2,0,2,0,0,2,2,4,,,,,,,,,540.7420144999996,541.2420946000002,541.9600112999997,None,541.2589882000002,541.9429956000004,542.4604422000002,None,left,1,0.38811789999999746,542.4604422000002,None,None,541.2589882000002,542.4436753999998,0.511549400000149,0.5950940000002447,1.7131118999996033,1.796523299999535,,,,,,priya_3,001,2020_Feb_14_1233,posner,3.1.5,59.92602731184956,
-0.5,0,1,left,1,3,2,0,2,0,0,3,3,2,,,,,,,,,542.8781835999998,543.3785207000001,544.0962490000002,None,543.3953767000003,544.0794814999999,544.5969617999999,None,left,1,0.3074919000000591,544.5969617999999,None,None,543.3953767000003,544.5801799999999,0.5113726999998107,0.5946762000003218,1.713025099999868,1.7962655000001178,,,,,,priya_3,001,2020_Feb_14_1233,posner,3.1.5,59.92602731184956,
-0.5,0,1,left,1,3,2,0,2,0,0,4,4,1,,,,,,,,,544.9311157000002,545.4313521000004,546.1490216000002,None,545.4478803000002,546.1320231999998,546.6497114000003,None,left,1,0.29483970000001136,546.6497114000003,None,None,545.4478803000002,546.6328530999999,0.5115907000008519,0.594853300000068,1.7130831000004036,1.796589400000812,,,,,,priya_3,001,2020_Feb_14_1233,posner,3.1.5,59.92602731184956,
-0.5,0,1,left,1,3,2,0,2,0,0,5,5,0,,,,,,,,,546.9676008999995,547.4675460999997,548.1849671999998,None,547.4839310999996,548.1684366999998,548.6857737,None,left,1,0.30688259999988077,548.6857737,None,None,547.4839310999996,548.6688592,0.5114880000000994,0.5948637000001327,1.712788300000284,1.7962155000004714,,,,,,priya_3,001,2020_Feb_14_1233,posner,3.1.5,59.92602731184956,
0.5,180,1,right,2,4,2,0,2,0,0,6,6,5,,,,,,,,,549.0202228999997,549.5204431000002,550.2376838999999,None,549.5371374999995,550.2212941999996,550.7386532,None,right,1,0.34178889999930107,550.7386532,None,None,549.5371374999995,550.7218874,0.51183729999957,0.5948709999993298,1.713269599999876,1.7971816999997827,,,,,,priya_3,001,2020_Feb_14_1233,posner,3.1.5,59.92602731184956,
0.5,0,0,right,1,4,2,0,2,0,0,7,7,3,,,,,,,,,551.1066487999997,551.6065253999996,552.3240279000001,None,551.6229918999998,552.3075717000002,552.8247431999998,None,right,1,0.3837857999997141,552.8247431999998,None,left,551.6229918999998,552.8081585,0.5117714999996679,0.5951735999997254,1.7133975999995528,1.7965186999999787,0.45752230000016425,,,,,priya_3,001,2020_Feb_14_1233,posner,3.1.5,59.92602731184956,
0.5,180,1,right,2,4,2,0,2,0,1,0,8,5,,,,,,,,,553.2265983999996,553.7260448999996,554.4435000000003,None,553.7426224999999,554.4269894999998,554.9443042000003,None,right,1,0.3042001000003438,554.9443042000003,None,None,553.7426224999999,554.9275589999997,0.5111770000003162,0.5945334000007279,1.71267220000027,1.7962532000001374,,,,,,priya_3,001,2020_Feb_14_1233,posner,3.1.5,59.92602731184956,
-0.5,0,1,left,1,3,2,0,2,0,1,1,9,1,,,,,,,,,555.2784001,555.7789553000002,556.4967574000002,None,555.7955351,556.4797447999999,556.9974359999997,None,left,1,0.34715589999996155,556.9974359999997,None,None,555.7955351,556.9805199000002,0.5117747000003874,0.5951282000005449,1.713320100000601,1.7964928999999756,,,,,,priya_3,001,2020_Feb_14_1233,posner,3.1.5,59.92602731184956,
-0.5,0,1,left,1,3,2,0,2,0,1,2,10,0,,,,,,,,,557.3651632000001,557.8649591000003,558.5825978000003,None,557.8816641000003,558.5658872000004,559.0831416999999,None,left,1,0.2932394999997996,559.0831416999999,None,None,557.8816641000003,559.0668183999996,0.5116103000000294,0.5953147999998691,1.7134251999996195,1.796997100000226,,,,,,priya_3,001,2020_Feb_14_1233,posner,3.1.5,59.92602731184956,
0.5,0,0,right,1,4,2,0,2,0,1,3,11,3,,,,,,,,,559.4011828000002,559.9012868999998,560.6189791999996,None,559.9179017999995,560.6021816000002,561.1195275,561.6035323999995,right,1,0.5290156999999454,561.1195275,None,None,559.9179017999995,561.1026069,0.5116082000004099,0.5947069000003466,1.7129096999997273,1.7966362999995908,,,,,,priya_3,001,2020_Feb_14_1233,posner,3.1.5,59.92602731184956,
-0.5,0,1,left,1,3,2,0,2,0,1,4,12,2,,,,,,,,,561.6710276000003,562.1710615000002,562.8887881,None,562.1878221999996,562.8717895,563.3892047999998,None,left,1,0.2512999000000491,563.3892047999998,None,None,562.1878221999996,563.3724100999998,0.5116362999997364,0.594950499999868,1.712963499999205,1.7966461999994863,,,,,,priya_3,001,2020_Feb_14_1233,posner,3.1.5,59.92602731184956,
0.5,180,1,right,2,4,2,0,2,0,1,5,13,7,,,,,,,,,563.6570191999999,564.1573778000002,564.8746508000004,None,564.1738955000001,564.8579338999998,565.3755738,None,right,1,0.40890529999978753,565.3755738,None,None,564.1738955000001,565.3586905000002,0.5119684999999663,0.5951116000005641,1.7132683999998335,1.796633699999802,,,,,,priya_3,001,2020_Feb_14_1233,posner,3.1.5,59.92602731184956,
0.5,180,1,right,2,4,2,0,2,0,1,6,14,6,,,,,,,,,565.8098569000003,566.3101966000004,567.0276039999999,None,566.3268310000003,567.0109884000003,567.5284498999999,None,right,1,0.3440136999997776,567.5284498999999,None,None,566.3268310000003,567.5116808000002,0.5118118999998842,0.5950935999999274,1.7132934999999634,1.7966434999998455,,,,,,priya_3,001,2020_Feb_14_1233,posner,3.1.5,59.92602731184956,
-0.5,180,0,left,2,3,2,0,2,0,1,7,15,4,,,,,,,,,567.8965212000003,568.3962043000001,569.1139126999997,None,568.4127073,569.0973347999998,569.6147191999999,None,left,1,0.36981050000031246,569.6147191999999,None,None,568.4127073,569.5978665000002,0.5114051000000472,0.5948059000002104,1.7130551000000196,1.7963768000008713,,,,,,priya_3,001,2020_Feb_14_1233,posner,3.1.5,59.92602731184956,
0.5,180,1,right,2,4,2,0,2,0,2,0,16,5,,,,,,,,,570.0166505999996,570.5159382000002,571.2333564,None,570.5324591999997,571.2168732999999,571.7340925999997,None,right,1,0.29843630000050325,571.7340925999997,None,None,570.5324591999997,571.7173327999999,0.5108086000000185,0.59409179999966,1.7121686999998929,1.7957815999998274,,,,,,priya_3,001,2020_Feb_14_1233,posner,3.1.5,59.92602731184956,
-0.5,0,1,left,1,3,2,0,2,0,2,1,17,0,,,,,,,,,572.0521935999996,572.5518828000004,573.2696409,None,572.5688379000003,573.2529429999995,573.7703137999997,None,left,1,0.32619489999979123,573.7703137999997,None,None,572.5688379000003,573.7535908,0.5112688999997772,0.5950455000001966,1.712959100000262,1.7965234000002965,,,,,,priya_3,001,2020_Feb_14_1233,posner,3.1.5,59.92602731184956,
0.5,0,0,right,1,4,2,0,2,0,2,2,18,3,,,,,,,,,574.1214622999996,574.6211406000002,575.3392578000003,None,574.6379249000001,575.3223497999998,575.8398635000003,576.3236422999998,right,1,0.5365546999992148,575.8398635000003,None,None,574.6379249000001,575.8229031999999,0.5112901000002239,0.5953801000005114,1.713033600000017,1.7966430000005857,,,,,,priya_3,001,2020_Feb_14_1233,posner,3.1.5,59.92602731184956,
0.5,180,1,right,2,4,2,0,2,0,2,3,19,6,,,,,,,,,576.4077283999995,576.9080033,577.6256357000002,None,576.9248046000002,577.608905,578.1262863000002,578.6103935000001,right,1,0.778036499999871,578.1262863000002,None,None,576.9248046000002,578.1096694999997,0.5117196999999578,0.5950303999998141,1.7133683000001838,1.79665870000008,,,,,,priya_3,001,2020_Feb_14_1233,posner,3.1.5,59.92602731184956,
-0.5,0,1,left,1,3,2,0,2,0,2,4,20,1,,,,,,,,,578.9275688999996,579.4280820000004,580.1457881999995,None,579.4446006999997,580.1291301000001,580.6465750999996,None,left,1,0.29003370000009454,580.6465750999996,None,None,579.4446006999997,580.6297763000002,0.511871699999574,0.595180999999684,1.7135528999997405,1.7969141999992644,,,,,,priya_3,001,2020_Feb_14_1233,posner,3.1.5,59.92602731184956,
0.5,180,1,right,2,4,2,0,2,0,2,5,21,7,,,,,,,,,580.9645608999999,581.4642351000002,582.1818083999997,None,581.4809601999996,582.1652106000001,582.6823447999996,583.1664129000001,right,1,0.6940895999996428,582.6823447999996,None,None,581.4809601999996,582.6657857999999,0.5116468000005625,0.5952437000005375,1.7131703000004563,1.7965788999999859,,,,,,priya_3,001,2020_Feb_14_1233,posner,3.1.5,59.92602731184956,
-0.5,180,0,left,2,3,2,0,2,0,2,6,22,4,,,,,,,,,583.4012163999996,583.9010378000003,584.6186158999999,None,583.9174845999996,584.6019428999998,585.1194872999995,None,left,1,0.4007616999997481,585.1194872999995,None,None,583.9174845999996,585.1026255999996,0.511731200000213,0.5949697999994896,1.713304099999732,1.7970924999999625,,,,,,priya_3,001,2020_Feb_14_1233,posner,3.1.5,59.92602731184956,
-0.5,0,1,left,1,3,2,0,2,0,2,7,23,2,,,,,,,,,585.5371103999996,586.0372329000002,586.7549485,None,586.0540215999999,586.7381300999996,587.2554330000003,None,left,1,0.3528358000003209,587.2554330000003,None,None,586.0540215999999,587.2388137999997,0.5116065000001981,0.5949490000002697,1.7131596999997782,1.7966245999996318,,,,,,priya_3,001,2020_Feb_14_1233,posner,3.1.5,59.92602731184956,
-0.5,0,1,left,1,3,2,0,2,0,3,0,24,0,,,,,,,,,587.6396139999997,588.1400941000002,588.8578009000003,None,588.1567760999997,588.8410531,589.3585364999999,None,left,1,0.4498312999994596,589.3585364999999,None,None,588.1567760999997,589.3415022999998,0.5117356000000655,0.5951355000006515,1.7131259000007049,1.7972100000006321,,,,,,priya_3,001,2020_Feb_14_1233,posner,3.1.5,59.92602731184956,
-0.5,180,0,left,2,3,2,0,2,0,3,1,25,4,,,,,,,,,589.8268023999999,590.3266602000003,591.0440329000003,None,590.3430581000002,591.0274901000003,591.5446671,None,left,1,0.39977429999999003,591.5446671,None,None,590.3430581000002,591.5282459,0.5117035000002943,0.5948808000002828,1.713272599999982,1.7964677999998457,,,,,,priya_3,001,2020_Feb_14_1233,posner,3.1.5,59.92602731184956,
0.5,180,1,right,2,4,2,0,2,0,3,2,26,6,,,,,,,,,591.9625567000003,592.4625918000002,593.1804183000004,None,592.4795600999996,593.1635989999995,593.6811707999996,None,right,1,0.42318859999977576,593.6811707999996,None,None,592.4795600999996,593.6641055,0.5114633000002868,0.5951023999996323,1.7129579000002195,1.7965985999999248,,,,,,priya_3,001,2020_Feb_14_1233,posner,3.1.5,59.92602731184956,
0.5,0,0,right,1,4,2,0,2,0,3,3,27,3,,,,,,,,,594.1320302000004,594.6321202999998,595.3501205000002,None,594.6491231,595.3332788999996,595.8507553,None,left,0,0.11759639999945648,595.8507553,None,None,594.6491231,595.8340236000004,0.5117307999998957,0.5953632999999172,1.713619699999981,1.7971747999999934,,,,,,priya_3,001,2020_Feb_14_1233,posner,3.1.5,59.92602731184956,
-0.5,0,1,left,1,3,2,0,2,0,3,4,28,1,,,,,,,,,595.9850053999999,596.4848400000001,597.2023673000003,None,596.5017189,597.1867777999996,597.7030783,None,left,1,0.30527840000013384,597.7030783,None,None,596.5017189,597.6866977,0.5115554000003613,0.5952178000006825,1.7133791000005658,1.7967701000006855,,,,,,priya_3,001,2020_Feb_14_1233,posner,3.1.5,59.92602731184956,
0.5,180,1,right,2,4,2,0,2,0,3,5,29,7,,,,,,,,,598.0378756,598.5378342000004,599.2556316,None,598.5543614999997,599.2388911999997,599.7563100999996,None,right,1,0.33223980000002484,599.7563100999996,None,None,598.5543614999997,599.7393994000004,0.5115929999992659,0.5949056999997993,1.7131405999998606,1.7965934999992896,,,,,,priya_3,001,2020_Feb_14_1233,posner,3.1.5,59.92602731184956,
0.5,180,1,right,2,4,2,0,2,0,3,6,30,5,,,,,,,,,600.1073973000002,600.6071830000001,601.3250053000002,None,600.6238326000002,601.3081703999997,601.8256417000002,None,right,1,0.3426663999998709,601.8256417000002,None,None,600.6238326000002,601.8089495000004,0.5112718000000314,0.5945722000005844,1.7130094000003737,1.7963390000004438,,,,,,priya_3,001,2020_Feb_14_1233,posner,3.1.5,59.92602731184956,
-0.5,0,1,left,1,3,2,0,2,0,3,7,31,2,,,,,,,,,602.1934401999997,602.6933897999997,603.4110407999997,None,602.7100973999995,603.3942114000001,603.9117884999996,None,left,1,0.27256149999993795,603.9117884999996,None,None,602.7100973999995,603.8951071000001,0.5114974999996775,0.5951249999998254,1.7131916999996974,1.7966488000001846,,,,,,priya_3,001,2020_Feb_14_1233,posner,3.1.5,59.92602731184956,
0.5,180,1,right,2,4,2,0,2,0,4,0,32,6,,,,,,,,,604.2130608999996,604.7127875999995,605.4305917000002,None,604.7293538000004,605.413783,605.9313528000002,None,right,1,0.27704070000072534,605.9313528000002,None,None,604.7293538000004,605.9144709000002,0.5112521999999444,0.594830600000023,1.712931999999455,1.7965976999994382,,,,,,priya_3,001,2020_Feb_14_1233,posner,3.1.5,59.92602731184956,
0.5,180,1,right,2,4,2,0,2,0,4,1,33,5,,,,,,,,,606.2320625000002,606.7321142000001,607.4499667999999,None,606.7489090999998,607.4331917,607.9508423999996,None,right,1,0.4095110999996905,607.9508423999996,None,None,606.7489090999998,607.9338454999997,0.5114430000003267,0.5951640000002953,1.7131552999999258,1.7968428000003769,,,,,,priya_3,001,2020_Feb_14_1233,posner,3.1.5,59.92602731184956,
0.5,180,1,right,2,4,2,0,2,0,4,2,34,7,,,,,,,,,608.3854334999996,608.8853597999996,609.6029209999997,None,608.9020227999999,609.5864712000002,610.1037161000004,None,right,1,0.33662960000037856,610.1037161000004,None,None,608.9020227999999,610.087012,0.5116128999998182,0.5949936000006346,1.7132527000003392,1.796947700000601,,,,,,priya_3,001,2020_Feb_14_1233,posner,3.1.5,59.92602731184956,
-0.5,0,1,left,1,3,2,0,2,0,4,3,35,0,,,,,,,,,610.4711989999996,610.9715073999996,611.6892934999996,None,610.9881561000002,611.6724839999997,612.1899807999998,None,left,1,0.2982792000002519,612.1899807999998,None,None,610.9881561000002,612.1731467999998,0.5116011999998591,0.5949784000004001,1.7132267999995747,1.796709700000065,,,,,,priya_3,001,2020_Feb_14_1233,posner,3.1.5,59.92602731184956,
-0.5,180,0,left,2,3,2,0,2,0,4,4,36,4,,,,,,,,,612.5077757999998,613.0077978999998,613.7254117000002,None,613.0243129999999,613.7087155999998,614.2260379999998,614.7101461000002,left,1,0.5023040000005494,614.2260379999998,None,None,613.0243129999999,614.2094828999998,0.5116105999995852,0.5949375999998665,1.7132823000001736,1.7964577000002464,,,,,,priya_3,001,2020_Feb_14_1233,posner,3.1.5,59.92602731184956,
0.5,0,0,right,1,4,2,0,2,0,4,5,37,3,,,,,,,,,614.7440983999995,615.2440246999995,615.9615617,None,615.2608345999997,615.9449997000002,616.4623109000004,None,right,1,0.3619251999998596,616.4623109000004,None,None,615.2608345999997,616.445882,0.5114981999995507,0.5948566999995819,1.7133315999999468,1.7966036999996504,,,,,,priya_3,001,2020_Feb_14_1233,posner,3.1.5,59.92602731184956,
-0.5,0,1,left,1,3,2,0,2,0,4,6,38,1,,,,,,,,,616.8474384000001,617.3472484000004,618.0643962000004,None,617.3635642999998,618.0480157000002,618.5653548,None,left,1,0.3309333000006518,618.5653548,None,None,617.3635642999998,618.5486164000004,0.5114002000000255,0.5946830000002592,1.712754400000449,1.796059399999649,,,,,,priya_3,001,2020_Feb_14_1233,posner,3.1.5,59.92602731184956,
-0.5,0,1,left,1,3,2,0,2,0,4,7,39,2,,,,,,,,,618.9161156,619.4163614999998,620.1340907000003,None,619.4330142999997,620.1174934999999,620.6349133000003,621.1189260000001,left,1,0.4774632000007841,620.6349133000003,None,None,619.4330142999997,620.6181453999998,0.5122259999998278,0.595723999999791,1.7139846000000034,1.7975409999999101,,,,,,priya_3,001,2020_Feb_14_1233,posner,3.1.5,59.92602731184956,
-0.5,0,1,left,1,3,2,0,2,0,5,0,40,1,,,,,,,,,621.1360226999996,621.6361870999999,622.3540078999995,None,621.6528582000001,622.3371537000003,622.8545686999996,None,left,1,0.32192140000006475,622.8545686999996,None,None,621.6528582000001,622.8378831,0.5121403000002829,0.5956614000006084,1.7138136000003215,1.797179000000142,,,,,,priya_3,001,2020_Feb_14_1233,posner,3.1.5,59.92602731184956,
0.5,180,1,right,2,4,2,0,2,0,5,1,41,7,,,,,,,,,623.2057623999999,623.7059366000003,624.4232753999995,None,623.7225264999997,624.4067586000001,624.9240288999999,None,right,1,0.2602200000001176,624.9240288999999,None,None,623.7225264999997,624.9074731999999,0.5117594999992434,0.5948626999997941,1.7132793999999194,1.7967039999994086,,,,,,priya_3,001,2020_Feb_14_1233,posner,3.1.5,59.92602731184956,
-0.5,180,0,left,2,3,2,0,2,0,5,2,42,4,,,,,,,,,625.2085061999996,625.7086386999999,626.4261094000003,None,625.7252792999998,626.4096995999998,626.9270085999997,None,left,1,0.35323950000019977,626.9270085999997,None,None,625.7252792999998,626.9100718,0.5117912999994587,0.5950884000003498,1.7132125999996788,1.7970678000001499,,,,,,priya_3,001,2020_Feb_14_1233,posner,3.1.5,59.92602731184956,
-0.5,0,1,left,1,3,2,0,2,0,5,3,43,2,,,,,,,,,627.3110944999999,627.8114640000003,628.5291332999996,None,627.8280457000001,628.5123127999996,629.0297585999997,None,left,1,0.3624626000000717,629.0297585999997,None,None,627.8280457000001,629.0130276999998,0.5118007999999463,0.5950963000004776,1.713340799999969,1.7967004000001907,,,,,,priya_3,001,2020_Feb_14_1233,posner,3.1.5,59.92602731184956,
0.5,0,0,right,1,4,2,0,2,0,5,4,44,3,,,,,,,,,629.4146683999998,629.9141702999996,630.6318351999998,None,629.9309755000004,630.6155299000002,631.1324691,None,right,1,0.4119202000001678,631.1324691,None,None,629.9309755000004,631.1160211999995,0.5113706000001912,0.595012300000235,1.7131875000004584,1.7968994000002567,,,,,,priya_3,001,2020_Feb_14_1233,posner,3.1.5,59.92602731184956,
0.5,180,1,right,2,4,2,0,2,0,5,5,45,5,,,,,,,,,631.5668947000004,632.0674284999996,632.7848776999999,None,632.0839728999999,632.7680638000002,633.2856816000003,None,right,1,0.4424927000000025,633.2856816000003,None,None,632.0839728999999,633.2690911999998,0.5121985999994649,0.5954633999999714,1.7138454999994792,1.7969875999997384,,,,,,priya_3,001,2020_Feb_14_1233,posner,3.1.5,59.92602731184956,
0.5,180,1,right,2,4,2,0,2,0,5,6,46,6,,,,,,,,,633.7537565000002,634.2534530000003,634.9713196000002,None,634.2701983999996,634.9544033000002,635.4719451000001,635.9562035999998,right,1,0.5043154999993931,635.4719451000001,None,None,634.2701983999996,635.4554238999999,0.5114537999997992,0.5949444999996558,1.7134016999998494,1.7967837999995027,,,,,,priya_3,001,2020_Feb_14_1233,posner,3.1.5,59.92602731184956,
-0.5,0,1,left,1,3,2,0,2,0,5,7,47,0,,,,,,,,,636.0066035,636.5067137999995,637.2241954000001,None,636.5233257999998,637.2077214999999,637.7248983,None,left,1,0.3153947999999218,637.7248983,None,None,636.5233257999998,637.7084155000002,0.5114775000001828,0.594924600000013,1.713160400000561,1.7963243000003786,,,,,,priya_3,001,2020_Feb_14_1233,posner,3.1.5,59.92602731184956,
-0.5,0,1,left,1,3,2,0,2,0,6,0,48,1,,,,,,,,,638.0594866000001,638.5594117,639.2771431000001,None,638.5764231000003,639.2602742999998,639.7778926000001,None,left,1,0.34229940000022907,639.7778926000001,None,None,638.5764231000003,639.7612604999995,0.511591600000429,0.5950901000005615,1.7134232000007614,1.7970672999999806,,,,,,priya_3,001,2020_Feb_14_1233,posner,3.1.5,59.92602731184956,
-0.5,180,0,left,2,3,2,0,2,0,6,1,49,4,,,,,,,,,640.1456376999995,640.6457424999999,641.3633190999999,None,640.6624308999999,641.3467592999996,641.8638838999996,None,left,1,0.36838840000018536,641.8638838999996,None,None,640.6624308999999,641.8474053,0.5118169000006674,0.5951524000001882,1.7134593999999197,1.797067600000446,,,,,,priya_3,001,2020_Feb_14_1233,posner,3.1.5,59.92602731184956,
-0.5,0,1,left,1,3,2,0,2,0,6,2,50,2,,,,,,,,,642.2485488000002,642.7485473999996,643.4663284999997,None,642.7653842,643.4498328999998,643.9669888999997,None,left,1,0.37728879999940546,643.9669888999997,None,None,642.7653842,643.950535,0.5114284999999654,0.5949022000004334,1.7134030999995957,1.79669339999964,,,,,,priya_3,001,2020_Feb_14_1233,posner,3.1.5,59.92602731184956,
0.5,0,0,right,1,4,2,0,2,0,6,3,51,3,,,,,,,,,644.3685266000002,644.8682050999996,645.5859074,None,644.8849289999998,645.5693725000001,646.0866477999998,None,right,1,0.41745870000067953,646.0866477999998,None,None,644.8849289999998,646.0699568999999,0.5113573999997243,0.5947427000000971,1.7130928999995376,1.796342999999979,,,,,,priya_3,001,2020_Feb_14_1233,posner,3.1.5,59.92602731184956,
0.5,180,1,right,2,4,2,0,2,0,6,4,52,5,,,,,,,,,646.5212762000001,647.0211325,647.7387671999995,None,647.0379852999995,647.7220066999998,648.2397027999996,None,right,1,0.42459229999985837,648.2397027999996,None,None,647.0379852999995,648.2226364999997,0.5114700000003722,0.5949382000007972,1.712950200000705,1.796495400000822,,,,,,priya_3,001,2020_Feb_14_1233,posner,3.1.5,59.92602731184956,
-0.5,0,1,left,1,3,2,0,2,0,6,5,53,0,,,,,,,,,648.6906339999996,649.1909174000002,649.9083915000001,None,649.2075895999997,649.8917292999995,650.4093991,None,left,1,0.3668183999998291,650.4093991,None,None,649.2075895999997,650.3923948000001,0.511948499999562,0.5952692999999272,1.7134132999999565,1.79704589999983,,,,,,priya_3,001,2020_Feb_14_1233,posner,3.1.5,59.92602731184956,
0.5,180,1,right,2,4,2,0,2,0,6,6,54,7,,,,,,,,,650.7949048999999,651.2936168999995,652.0115551999997,None,651.3103793,651.9950522999998,652.5120264999996,None,right,1,0.29605960000026244,652.5120264999996,None,None,651.3103793,652.4958878999996,0.5103799999997136,0.5940395999996326,1.7126275000000533,1.7955265999999028,,,,,,priya_3,001,2020_Feb_14_1233,posner,3.1.5,59.92602731184956,
0.5,180,1,right,2,4,2,0,2,0,6,7,55,6,,,,,,,,,652.8298369000004,653.3299795000003,654.0476037999997,None,653.3466829999998,654.0307806000001,654.5482479000002,None,right,1,0.3561485999998695,654.5482479000002,None,None,653.3466829999998,654.5313507000001,0.5115975999997318,0.5948008000004847,1.7129531000000497,1.796948400000474,,,,,,priya_3,001,2020_Feb_14_1233,posner,3.1.5,59.92602731184956,
0.5,180,1,right,2,4,2,0,2,0,7,0,56,5,,,,,,,,,654.9325194000003,655.4327303,656.1503728999996,None,655.4497201000004,656.1336577000002,656.6511345999998,None,right,1,0.3570748000001913,656.6511345999998,None,None,655.4497201000004,656.6342943999998,0.5118473000002268,0.5951893999999811,1.7133449000002656,1.7968972999997277,,,,,,priya_3,001,2020_Feb_14_1233,posner,3.1.5,59.92602731184956,
0.5,180,1,right,2,4,2,0,2,0,7,1,57,6,,,,,,,,,657.0360049999999,657.5356217999997,658.2532719999999,None,657.5523024000004,658.2368134999997,658.7540849999996,None,right,1,0.37417740000000776,658.7540849999996,None,None,657.5523024000004,658.7372974,0.5116105000006428,0.5949880000007397,1.7132572000000437,1.7968147000001409,,,,,,priya_3,001,2020_Feb_14_1233,posner,3.1.5,59.92602731184956,
0.5,180,1,right,2,4,2,0,2,0,7,2,58,7,,,,,,,,,659.1551841999999,659.6555134999999,660.3728672999996,None,659.6717816,660.3561587000004,660.8734607999995,None,right,1,0.3107307000000219,660.8734607999995,None,None,659.6717816,660.8569158999999,0.5119253000002573,0.5950420999997732,1.7133090999996057,1.7967169000003196,,,,,,priya_3,001,2020_Feb_14_1233,posner,3.1.5,59.92602731184956,
-0.5,180,0,left,2,3,2,0,2,0,7,3,59,4,,,,,,,,,661.2081688999997,661.7081316000003,662.4256459999997,None,661.7249055000002,662.4089629999999,662.9262976,None,left,1,0.36186170000019047,662.9262976,None,None,661.7249055000002,662.9098295000003,0.5115900000000693,0.594967899999574,1.7132678999996642,1.7970978000003015,,,,,,priya_3,001,2020_Feb_14_1233,posner,3.1.5,59.92602731184956,
-0.5,0,1,left,1,3,2,0,2,0,7,4,60,1,,,,,,,,,663.3107962000004,663.8109917000002,664.5286268999998,None,663.8276257999996,664.5117577000001,665.0294346000001,None,left,1,0.32294850000016595,665.0294346000001,None,None,663.8276257999996,665.0123874999999,0.5118375000001834,0.5950177999993684,1.713220999999976,1.796977899999547,,,,,,priya_3,001,2020_Feb_14_1233,posner,3.1.5,59.92602731184956,
0.5,0,0,right,1,4,2,0,2,0,7,5,61,3,,,,,,,,,665.3800522000001,665.8804497000001,666.5980886999996,None,665.8974072000001,666.5815153000003,667.0990228999999,None,right,1,0.4131475000003775,667.0990228999999,None,None,665.8974072000001,667.0819088999997,0.5123218999997334,0.5955549999998766,1.7137700000002951,1.7974737000004097,,,,,,priya_3,001,2020_Feb_14_1233,posner,3.1.5,59.92602731184956,
-0.5,0,1,left,1,3,2,0,2,0,7,6,62,0,,,,,,,,,667.53341,668.0332857000003,668.7510134000004,None,668.0500223999998,668.7343130999998,669.2517667000002,None,left,1,0.3484577999997782,669.2517667000002,None,None,668.0500223999998,669.2350629000002,0.5113202000002275,0.5949000999999043,1.7130776000003607,1.7967287999999826,,,,,,priya_3,001,2020_Feb_14_1233,posner,3.1.5,59.92602731184956,
-0.5,0,1,left,1,3,2,0,2,0,7,7,63,2,,,,,,,,,669.6194519000001,670.1196564000002,670.8370937999998,None,670.1363588000004,670.8206647999996,671.3380915999996,None,left,1,0.35008840000045893,671.3380915999996,None,None,670.1363588000004,671.3213353000001,0.5117466000001514,0.5951543000001038,1.7134087000004001,1.7967341000003216,,,,,,priya_3,001,2020_Feb_14_1233,posner,3.1.5,59.92602731184956,
0.5,0,0,right,1,4,2,0,2,0,8,0,64,3,,,,,,,,,671.7060685999995,672.2058722000002,672.9234262,None,672.2224195999997,672.9067815999997,673.4242367999996,None,right,1,0.335928800000147,673.4242367999996,None,None,672.2224195999997,673.4077291000003,0.511641399999462,0.5950121999994735,1.7134871999996903,1.796562499999709,,,,,,priya_3,001,2020_Feb_14_1233,posner,3.1.5,59.92602731184956,
-0.5,0,1,left,1,3,2,0,2,0,8,1,65,0,,,,,,,,,673.7914797000003,674.2919327999998,675.0096760999995,None,674.3088439000003,674.9931141999996,675.5101908999995,None,left,1,0.39406099999996513,675.5101908999995,None,None,674.3088439000003,675.4939532999997,0.5121861999996327,0.5957440000001952,1.7141916000000492,1.7975231999998869,,,,,,priya_3,001,2020_Feb_14_1233,posner,3.1.5,59.92602731184956,
0.5,180,1,right,2,4,2,0,2,0,8,2,66,5,,,,,,,,,675.9279254000003,676.4284910999995,677.1460342,None,676.4451098,677.1295066000002,677.6467460000003,None,right,1,0.32932610000079876,677.6467460000003,None,None,676.4451098,677.6300000000001,0.5123310999997557,0.5953036000000793,1.713832100000218,1.7970867000003636,,,,,,priya_3,001,2020_Feb_14_1233,posner,3.1.5,59.92602731184956,
-0.5,0,1,left,1,3,2,0,2,0,8,3,67,2,,,,,,,,,677.9982332,678.4979643999995,679.2155356000003,None,678.5144883000003,679.1989050000002,679.7162523999996,680.2002141000003,left,1,0.5077926000003572,679.7162523999996,None,None,678.5144883000003,679.6997506999996,0.5115435999996407,0.5948484000000462,1.7133082999998805,1.7963214999999764,,,,,,priya_3,001,2020_Feb_14_1233,posner,3.1.5,59.92602731184956,
-0.5,180,0,left,2,3,2,0,2,0,8,4,68,4,,,,,,,,,680.2509791000002,680.7508191999996,681.4685139000003,None,680.7677168999999,681.4517453999997,681.9693502999999,682.4531138000002,left,1,0.48676849999992555,681.9693502999999,None,None,680.7677168999999,681.9526088000002,0.5115218999999342,0.5950755999992907,1.7132913999994344,1.796761499999775,,,,,,priya_3,001,2020_Feb_14_1233,posner,3.1.5,59.92602731184956,
0.5,180,1,right,2,4,2,0,2,0,8,5,69,6,,,,,,,,,682.4873276999997,682.9873521,683.7051473000001,None,683.0040896999999,683.6885069,684.2058346000003,None,right,1,0.3063105999999607,684.2058346000003,None,None,683.0040896999999,684.1887116999997,0.5113707999998951,0.5948373000001084,1.7127171000001908,1.7963529999997263,,,,,,priya_3,001,2020_Feb_14_1233,posner,3.1.5,59.92602731184956,
0.5,180,1,right,2,4,2,0,2,0,8,6,70,7,,,,,,,,,684.5399454999997,685.0402559000004,685.7579350999995,None,685.0570141999997,685.7413143000003,686.2585335000003,None,right,1,0.37373849999949016,686.2585335000003,None,None,685.0570141999997,686.2416566000002,0.5118377999997392,0.59521229999973,1.7132228999998915,1.7968731000000844,,,,,,priya_3,001,2020_Feb_14_1233,posner,3.1.5,59.92602731184956,
-0.5,0,1,left,1,3,2,0,2,0,8,7,71,1,,,,,,,,,686.6597283000001,687.1597120999995,687.8775513,None,687.1764805000003,687.8607353999996,688.3782080000001,None,left,1,0.30195220000041445,688.3782080000001,None,None,687.1764805000003,688.3614900000002,0.5114298999997118,0.5948862999994162,1.7131924999994226,1.7965366999997059,,,,,,priya_3,001,2020_Feb_14_1233,posner,3.1.5,59.92602731184956,
