targetX,cueOri,congr,corrAns,pin_cue,pin_target,block.thisRepN,block.thisTrialN,block.thisN,block.thisIndex,posner_task.thisRepN,posner_task.thisTrialN,posner_task.thisN,posner_task.thisIndex,port_start_block.started,port_start_block.stopped,text_2.started,text_2.stopped,p_port.started,p_port.stopped,text.started,text.stopped,fixation_1.started,fixation_1.stopped,fixation_2.started,fixation_2.stopped,cue.started,cue.stopped,target.started,target.stopped,correct_key_resp.keys,correct_key_resp.corr,correct_key_resp.rt,correct_key_resp.started,correct_key_resp.stopped,early_resp.keys,early_resp.rt,early_resp.started,early_resp.stopped,trigger_cue.started,trigger_cue.stopped,trigger_target.started,trigger_target.stopped,break_text.started,break_text.stopped,end_port.started,end_port.stopped,participant,session,date,expName,psychopyVersion,frameRate,
0.5,180,1,right,2,4,0,0,0,0,0,0,0,6,1.6599999980826396e-05,0.10241630000018631,24.570269900000312,None,1.3699999726668466e-05,0.09953270000005432,26.47267069999998,None,26.811232900000505,27.307336700000633,28.02505999999994,None,27.324230400000488,28.008420000000115,28.52562610000041,None,right,1,0.2507306999996217,28.52562610000041,None,right,0.5002885999992941,27.324230400000488,28.509127299999818,0.505571300000156,0.5888835000005201,1.7073387000000366,1.790530199999921,,,,,lucie_2,001,2020_Feb_06_1329,posner,3.1.5,59.990449520171325,
0.5,180,1,right,2,4,0,0,0,0,0,1,1,7,,,,,,,,,28.794410500000595,29.293397500000538,30.011019800000213,None,29.30998929999987,29.99455130000024,30.511803899999904,None,right,1,0.3125258000000031,30.511803899999904,None,None,,29.30998929999987,30.495040700000573,0.5107537000003504,0.5941544000006616,1.7123781999998755,1.7958982000000105,,,,,lucie_2,001,2020_Feb_06_1329,posner,3.1.5,59.990449520171325,
-0.5,180,0,left,2,3,0,0,0,0,0,2,2,4,,,,,,,,,30.8464242,31.34625910000068,32.063958300000195,None,31.362871299999824,32.047284900000705,32.56483500000013,None,left,1,0.29968080000071495,32.56483500000013,None,None,,31.362871299999824,32.54783490000045,0.5113830000000235,0.5946015000008629,1.7129462000002604,1.7962913000001208,,,,,lucie_2,001,2020_Feb_06_1329,posner,3.1.5,59.990449520171325,
0.5,0,0,right,1,4,0,0,0,0,0,3,3,3,,,,,,,,,32.88223259999995,33.3823194000006,34.09986750000007,None,33.39934979999998,34.083394500000395,34.60058500000014,None,right,1,0.263841400000274,34.60058500000014,None,None,,33.39934979999998,34.58409800000027,0.5114788000000772,0.5951156999999512,1.7132303000007596,1.7965853000005154,,,,,lucie_2,001,2020_Feb_06_1329,posner,3.1.5,59.990449520171325,
0.5,180,1,right,2,4,0,0,0,0,0,4,4,5,,,,,,,,,34.885220400000435,35.38518500000009,36.1027396999998,None,35.40188300000045,36.086069699999825,36.603508500000316,None,right,1,0.26086320000013075,36.603508500000316,None,None,,35.40188300000045,36.58691900000031,0.5114346000000296,0.5947388999993564,1.7131516999997984,1.7963867999997092,,,,,lucie_2,001,2020_Feb_06_1329,posner,3.1.5,59.990449520171325,
-0.5,0,1,left,1,3,0,0,0,0,0,5,5,1,,,,,,,,,36.8876906000005,37.38804810000056,38.105493600000045,None,37.404644900000676,38.088963400000466,38.60635210000055,None,left,1,0.24204620000000432,38.60635210000055,None,None,,37.404644900000676,38.58951320000051,0.5118128000003708,0.5950006000002759,1.7132689000000028,1.7968813000006776,,,,,lucie_2,001,2020_Feb_06_1329,posner,3.1.5,59.990449520171325,
-0.5,0,1,left,1,3,0,0,0,0,0,6,6,2,,,,,,,,,38.874188499999946,39.373983899999985,40.09157080000023,None,39.39056340000025,40.074904699999934,40.5923186,None,left,1,0.23217789999944216,40.5923186,None,None,,39.39056340000025,40.57567900000049,0.5116793999995934,0.5950874999998632,1.7133522000003722,1.7967281000001094,,,,,lucie_2,001,2020_Feb_06_1329,posner,3.1.5,59.990449520171325,
-0.5,0,1,left,1,3,0,0,0,0,0,7,7,0,,,,,,,,,40.84350750000067,41.34347109999999,42.06108380000023,None,41.35990690000017,42.04427360000045,42.56156069999997,None,left,1,0.22298209999917162,42.56156069999997,None,None,,41.35990690000017,42.54503149999982,0.5116188000001785,0.5949007999997775,1.7131719999997586,1.7966925999999148,,,,,lucie_2,001,2020_Feb_06_1329,posner,3.1.5,59.990449520171325,
-0.5,0,1,left,1,3,0,0,0,0,1,0,8,2,,,,,,,,,42.81262380000044,43.312570699999924,44.030271900000116,None,43.32964830000037,44.013802399999804,44.53091370000038,None,right,0,0.08555869999963761,44.53091370000038,None,None,,43.32964830000037,44.514573100000234,0.5115083999999115,0.595069599999988,1.713486899999225,1.796852499999659,,,,,lucie_2,001,2020_Feb_06_1329,posner,3.1.5,59.990449520171325,
-0.5,180,0,left,2,3,0,0,0,0,1,1,9,4,,,,,,,,,44.632153700000345,45.13179840000066,45.84955050000008,None,45.14882780000062,45.83314750000045,46.350065700000414,None,left,1,0.2503876000000673,46.350065700000414,None,None,,45.14882780000062,46.333593700000165,0.5114172999992661,0.5950175999996645,1.7131853999999294,1.7967035000001488,,,,,lucie_2,001,2020_Feb_06_1329,posner,3.1.5,59.990449520171325,
0.5,180,1,right,2,4,0,0,0,0,1,2,10,6,,,,,,,,,46.618159300000116,47.11796709999999,47.83580810000058,None,47.134685300000456,47.81895150000037,48.336318499999834,None,right,1,0.16009690000009869,48.336318499999834,None,None,,47.134685300000456,48.319541500000014,0.511601499999415,0.5948613999998997,1.7131543999994392,1.796545199999855,,,,,lucie_2,001,2020_Feb_06_1329,posner,3.1.5,59.990449520171325,
-0.5,0,1,left,1,3,0,0,0,0,1,3,11,1,,,,,,,,,48.520115299999816,49.020442699999876,49.73831580000024,None,49.037428999999975,49.72139479999987,50.238861499999985,None,left,1,0.257479300000341,50.238861499999985,None,None,,49.037428999999975,50.222200900000644,0.511944200000471,0.5956436000005851,1.7136873999997988,1.7972261000004437,,,,,lucie_2,001,2020_Feb_06_1329,posner,3.1.5,59.990449520171325,
0.5,180,1,right,2,4,0,0,0,0,1,4,12,5,,,,,,,,,50.52366489999986,51.02335829999993,51.7410018999999,None,51.040013400000134,51.72444290000021,52.24162820000038,None,right,1,0.32671510000000126,52.24162820000038,None,None,,51.040013400000134,52.22492839999995,0.5115717000007862,0.5949921999999788,1.7131328000004942,1.7969278000000486,,,,,lucie_2,001,2020_Feb_06_1329,posner,3.1.5,59.990449520171325,
0.5,180,1,right,2,4,0,0,0,0,1,5,13,7,,,,,,,,,52.5923685000007,53.09284730000036,53.81057670000064,None,53.10960900000009,53.793847599999935,54.31110410000019,None,right,1,0.24134200000025885,54.31110410000019,None,None,,53.10960900000009,54.29461489999994,0.511961600000177,0.5953896999999415,1.7136920000002647,1.7971838000003117,,,,,lucie_2,001,2020_Feb_06_1329,posner,3.1.5,59.990449520171325,
-0.5,0,1,left,1,3,0,0,0,0,1,6,14,0,,,,,,,,,54.5790276000007,55.0789676000004,55.79661180000039,None,55.09581479999997,55.779823800000486,56.29743529999996,None,left,1,0.2071562000000995,56.29743529999996,None,None,,55.09581479999997,56.28046820000054,0.5115282999995543,0.5948472000000038,1.7130199999992328,1.7966985999992175,,,,,lucie_2,001,2020_Feb_06_1329,posner,3.1.5,59.990449520171325,
0.5,0,0,right,1,4,0,0,0,0,1,7,15,3,,,,,,,,,56.53194690000055,57.031600700000126,57.749303300000065,None,57.048668200000066,57.73250569999982,58.24994380000044,None,right,1,0.318485700000565,58.24994380000044,None,None,,57.048668200000066,58.23330040000019,0.5113944000004267,0.5948534999997719,1.7130732000005082,1.7965542000001733,,,,,lucie_2,001,2020_Feb_06_1329,posner,3.1.5,59.990449520171325,
0.5,0,0,right,1,4,0,0,0,0,2,0,16,3,,,,,,,,,58.584109100000205,59.084581300000536,59.80202210000061,None,59.10099650000029,59.78537620000043,60.3028161000002,None,right,1,0.2575261000001774,60.3028161000002,None,None,,59.10099650000029,60.286258300000554,0.5123026000001119,0.5958063999996739,1.7139631000000008,1.7971800000004805,,,,,lucie_2,001,2020_Feb_06_1329,posner,3.1.5,59.990449520171325,
-0.5,180,0,left,2,3,0,0,0,0,2,1,17,4,,,,,,,,,60.58702489999996,61.08735070000057,61.804974600000605,None,61.10388950000015,61.78825400000005,62.3057675,None,left,1,0.3027260999997452,62.3057675,None,None,,61.10388950000015,62.2889253000003,0.5117829000000711,0.5949823000000833,1.713340799999969,1.7966421999999511,,,,,lucie_2,001,2020_Feb_06_1329,posner,3.1.5,59.990449520171325,
-0.5,0,1,left,1,3,0,0,0,0,2,2,18,0,,,,,,,,,62.639833199999885,63.13994340000045,63.85775410000042,None,63.1568184000007,63.840917600000466,64.35840740000003,None,left,1,0.29798830000072485,64.35840740000003,None,None,,63.1568184000007,64.34163390000049,0.5116849999994884,0.5952884999996968,1.7133567000000767,1.7970238999996582,,,,,lucie_2,001,2020_Feb_06_1329,posner,3.1.5,59.990449520171325,
-0.5,0,1,left,1,3,0,0,0,0,2,3,19,1,,,,,,,,,64.6762048999999,65.17618390000007,65.8938134,None,65.1928539999999,65.87730809999994,66.39462340000046,None,left,1,0.29403670000010607,66.39462340000046,None,None,,65.1928539999999,66.37787260000005,0.5113962999994328,0.5947589999996126,1.7130761999997048,1.796472499999254,,,,,lucie_2,001,2020_Feb_06_1329,posner,3.1.5,59.990449520171325,
0.5,180,1,right,2,4,0,0,0,0,2,4,20,6,,,,,,,,,66.71229940000012,67.21253849999994,67.92992830000003,None,67.22911810000005,67.9135040000001,68.4306314000005,None,right,1,0.24181550000048446,68.4306314000005,None,None,,67.22911810000005,68.41418260000046,0.512470900000153,0.5957167999995363,1.7140668000001824,1.7972938000002614,,,,,lucie_2,001,2020_Feb_06_1329,posner,3.1.5,59.990449520171325,
0.5,180,1,right,2,4,0,0,0,0,2,5,21,7,,,,,,,,,68.69820359999994,69.1986536000004,69.91601919999994,None,69.21530560000065,69.89940209999986,70.41694460000053,None,right,1,0.3515927999997075,70.41694460000053,None,None,,69.21530560000065,70.40004250000038,0.5120483000000604,0.5953607999999804,1.713428600000043,1.7970159999995303,,,,,lucie_2,001,2020_Feb_06_1329,posner,3.1.5,59.990449520171325,
-0.5,0,1,left,1,3,0,0,0,0,2,6,22,2,,,,,,,,,70.78480200000013,71.28468450000037,72.00227630000063,None,71.30119930000001,71.98567530000037,72.50316680000014,None,left,1,0.3452962999999727,72.50316680000014,None,None,,71.30119930000001,72.48622070000056,0.5113240999999107,0.5947697999999946,1.712843399999656,1.796311600000081,,,,,lucie_2,001,2020_Feb_06_1329,posner,3.1.5,59.990449520171325,
0.5,180,1,right,2,4,0,0,0,0,2,7,23,5,,,,,,,,,72.8708545999998,73.3707185000003,74.08860809999987,None,73.38745759999983,74.07176100000015,74.58923940000022,None,right,1,0.3872263999992356,74.58923940000022,None,None,,73.38745759999983,74.5723724999998,0.5114852000006067,0.5950501000006625,1.7131357000007483,1.7967332000007445,,,,,lucie_2,001,2020_Feb_06_1329,posner,3.1.5,59.990449520171325,
0.5,0,0,right,1,4,0,0,0,0,3,0,24,3,,,,,,,,,75.00679930000024,75.50722810000025,76.22482410000066,None,75.52391220000027,76.20862420000049,76.72567710000021,None,right,1,0.28284739999980957,76.72567710000021,None,None,,75.52391220000027,76.70906500000001,0.5120170999998663,0.5952282999996896,1.7138371000000916,1.7970070999999734,,,,,lucie_2,001,2020_Feb_06_1329,posner,3.1.5,59.990449520171325,
0.5,180,1,right,2,4,0,0,0,0,3,1,25,7,,,,,,,,,77.0265444000006,77.5267971000003,78.2443245000004,None,77.54354599999988,78.22784210000009,78.74505180000051,None,right,1,0.2793632000002617,78.74505180000051,None,None,,77.54354599999988,78.72826290000012,0.5115150000001449,0.5946275000005699,1.712970800000221,1.7963645999998334,,,,,lucie_2,001,2020_Feb_06_1329,posner,3.1.5,59.990449520171325,
-0.5,180,0,left,2,3,0,0,0,0,3,2,26,4,,,,,,,,,79.0467091999999,79.5464464000006,80.26397400000042,None,79.56270210000002,80.24701730000015,80.7647151000001,None,left,1,0.31584229999953095,80.7647151000001,None,None,,79.56270210000002,80.74779579999995,0.5114352999999028,0.5944036999999298,1.7127544999993916,1.795979200000147,,,,,lucie_2,001,2020_Feb_06_1329,posner,3.1.5,59.990449520171325,
-0.5,0,1,left,1,3,0,0,0,0,3,3,27,1,,,,,,,,,81.0990098000002,81.59903209999993,82.31672350000008,None,81.61575840000023,82.29971830000068,82.81734289999986,None,left,1,0.2871423999995386,82.81734289999986,None,None,,81.61575840000023,82.80045789999986,0.5116340999993554,0.5950156999997489,1.713051199999427,1.796690099999978,,,,,lucie_2,001,2020_Feb_06_1329,posner,3.1.5,59.990449520171325,
0.5,180,1,right,2,4,0,0,0,0,3,4,28,6,,,,,,,,,83.13502700000026,83.63505350000014,84.35269030000018,None,83.65170279999984,84.33602840000003,84.85352969999985,None,right,1,0.30681249999997817,84.85352969999985,None,None,,83.65170279999984,84.83674090000022,0.5113713000000644,0.5948576999999204,1.7130452999999761,1.7963759999993272,,,,,lucie_2,001,2020_Feb_06_1329,posner,3.1.5,59.990449520171325,
0.5,180,1,right,2,4,0,0,0,0,3,5,29,5,,,,,,,,,85.1877285999999,85.68800420000025,86.40555510000013,None,85.70464900000024,86.3889237000003,86.90626560000055,None,right,1,0.33408849999977974,86.90626560000055,None,None,,85.70464900000024,86.88948470000014,0.511732299999494,0.5948775999995632,1.7131961999994019,1.7967400999996244,,,,,lucie_2,001,2020_Feb_06_1329,posner,3.1.5,59.990449520171325,
-0.5,0,1,left,1,3,0,0,0,0,3,6,30,2,,,,,,,,,87.25699760000043,87.75744450000002,88.47507959999984,None,87.77420840000013,88.45848620000015,88.97583279999981,None,left,1,0.2646625999996104,88.97583279999981,None,None,,87.77420840000013,88.9589218000001,0.5116152999999031,0.5948602999997092,1.713079999999536,1.7966051999992487,,,,,lucie_2,001,2020_Feb_06_1329,posner,3.1.5,59.990449520171325,
-0.5,0,1,left,1,3,0,0,0,0,3,7,31,0,,,,,,,,,89.26010290000067,89.76015700000062,90.47777920000044,None,89.77687210000022,90.4612431000005,90.97843809999995,None,left,1,0.29407650000030117,90.97843809999995,None,None,,89.77687210000022,90.96188419999999,0.5116072000000713,0.5951451999999335,1.7133155000001352,1.7966775000004418,,,,,lucie_2,001,2020_Feb_06_1329,posner,3.1.5,59.990449520171325,
-0.5,0,1,left,1,3,0,0,0,0,4,0,32,1,,,,,,,,,91.29635020000023,91.7963909,92.51421459999983,None,91.81300890000057,92.49724060000062,93.01477830000022,None,left,1,0.2656528999996226,93.01477830000022,None,None,,91.81300890000057,92.99820570000065,0.5113842999999179,0.5945295000001352,1.7131726000006893,1.7962422999999035,,,,,lucie_2,001,2020_Feb_06_1329,posner,3.1.5,59.990449520171325,
-0.5,180,0,left,2,3,0,0,0,0,4,1,33,4,,,,,,,,,93.29912890000014,93.79914319999989,94.51673980000032,None,93.81592570000066,94.49993320000067,95.0173932000007,None,left,1,0.35101570000006177,95.0173932000007,None,None,,93.81592570000066,95.00064900000052,0.5114894999996977,0.59469960000024,1.712982600000032,1.7966352000003099,,,,,lucie_2,001,2020_Feb_06_1329,posner,3.1.5,59.990449520171325,
-0.5,0,1,left,1,3,0,0,0,0,4,2,34,0,,,,,,,,,95.3852968000001,95.88526420000017,96.6029107000004,None,95.90210730000035,96.58626710000044,97.10369210000044,None,right,0,0.1687212000006184,97.10369210000044,None,None,,95.90210730000035,97.0872731999998,0.5113492000000406,0.5947736999996778,1.713348500000393,1.79639700000007,,,,,lucie_2,001,2020_Feb_06_1329,posner,3.1.5,59.990449520171325,
0.5,180,1,right,2,4,0,0,0,0,4,3,35,6,,,,,,,,,97.28777170000012,97.78800709999996,98.5056027999999,None,97.80473040000015,98.4888877000003,99.00623900000028,None,right,1,0.41818740000053367,99.00623900000028,None,None,,97.80473040000015,98.98945780000031,0.5117718999999852,0.5951353999998901,1.713209100000313,1.7970326000004206,,,,,lucie_2,001,2020_Feb_06_1329,posner,3.1.5,59.990449520171325,
-0.5,0,1,left,1,3,0,0,0,0,4,4,36,2,,,,,,,,,99.44019110000045,99.9405925000001,100.65857589999996,None,99.9573491000001,100.6417849999998,101.15926880000006,None,left,1,0.2092210000000705,101.15926880000006,None,None,,99.9573491000001,101.14244409999992,0.5119923000002018,0.5958675000001676,1.7138249999998152,1.7974316999998337,,,,,lucie_2,001,2020_Feb_06_1329,posner,3.1.5,59.990449520171325,
0.5,180,1,right,2,4,0,0,0,0,4,5,37,5,,,,,,,,,101.39359779999995,101.89358580000044,102.61123730000054,None,101.91010670000014,102.59449870000026,103.1119832000004,None,right,1,0.2244196000001466,103.1119832000004,None,None,,101.91010670000014,103.0952500000003,0.5116186000004745,0.5950681000003897,1.7132621999999174,1.7966827999998713,,,,,lucie_2,001,2020_Feb_06_1329,posner,3.1.5,59.990449520171325,
0.5,180,1,right,2,4,0,0,0,0,4,6,38,7,,,,,,,,,103.36315290000039,103.86315430000013,104.5804332000007,None,103.87941130000036,104.56399770000007,105.08119170000009,None,right,1,0.28715100000044913,105.08119170000009,None,None,,103.87941130000036,105.06473230000029,0.5117521000001943,0.5949596000000383,1.7133156999998391,1.7967164000001503,,,,,lucie_2,001,2020_Feb_06_1329,posner,3.1.5,59.990449520171325,
0.5,0,0,right,1,4,0,0,0,0,4,7,39,3,,,,,,,,,105.39873090000037,105.899093,106.6169319999999,None,105.91601160000027,106.59998030000042,107.11763599999995,None,right,1,0.23491270000067743,107.11763599999995,None,None,,105.91601160000027,107.10063750000063,0.5116726000005656,0.5949620999999752,1.7132031000001007,1.7966288000006898,,,,,lucie_2,001,2020_Feb_06_1329,posner,3.1.5,59.990449520171325,
0.5,180,1,right,2,4,0,0,0,0,5,0,40,5,,,,,,,,,107.36841679999998,107.86830830000054,108.58613479999985,None,107.8853293000002,108.56926840000051,109.08671630000026,None,right,1,0.27364330000000336,109.08671630000026,None,None,,107.8853293000002,109.0699955,0.5115822000007029,0.5951134000006277,1.7132461000001058,1.796962500000518,,,,,lucie_2,001,2020_Feb_06_1329,posner,3.1.5,59.990449520171325,
-0.5,180,0,left,2,3,0,0,0,0,5,1,41,4,,,,,,,,,109.38778700000057,109.88802639999994,110.60561860000053,None,109.90462900000057,110.58898959999988,111.10631040000044,None,left,1,0.31028890000015963,111.10631040000044,None,None,,109.90462900000057,111.08953370000017,0.511818800000583,0.5949620999999752,1.71331790000022,1.7968485000001237,,,,,lucie_2,001,2020_Feb_06_1329,posner,3.1.5,59.990449520171325,
0.5,180,1,right,2,4,0,0,0,0,5,2,42,6,,,,,,,,,111.44001430000026,111.94068890000017,112.6584511000001,None,111.95752940000057,112.64181410000037,113.15912759999992,None,right,1,0.281354900000224,113.15912759999992,None,None,,111.95752940000057,113.14250750000065,0.5123790999996345,0.5959664000001794,1.7142069000001356,1.7975390000001426,,,,,lucie_2,001,2020_Feb_06_1329,posner,3.1.5,59.990449520171325,
0.5,0,0,right,1,4,0,0,0,0,5,3,43,3,,,,,,,,,113.46018000000004,113.9602089,114.67798260000018,None,113.97687649999989,114.66111770000043,115.17863100000068,None,right,1,0.3739473999994516,115.17863100000068,None,None,,113.97687649999989,115.16183460000047,0.5116815999999744,0.5951743999994505,1.7132916999998997,1.7968915999999808,,,,,lucie_2,001,2020_Feb_06_1329,posner,3.1.5,59.990449520171325,
0.5,180,1,right,2,4,0,0,0,0,5,4,44,7,,,,,,,,,115.58006149999983,116.07964970000012,116.7976134999999,None,116.09635010000056,116.78066750000016,117.2983248999999,None,right,1,0.2782301000006555,117.2983248999999,None,None,,116.09635010000056,117.28140650000023,0.5112129999997705,0.5947399999995469,1.7129604000001564,1.7964356000002226,,,,,lucie_2,001,2020_Feb_06_1329,posner,3.1.5,59.990449520171325,
-0.5,0,1,left,1,3,0,0,0,0,5,5,45,1,,,,,,,,,117.59936990000006,118.09902640000018,118.81690350000008,None,118.11596240000017,118.80006870000034,119.31750210000064,None,left,1,0.24295919999985927,119.31750210000064,None,None,,118.11596240000017,119.30069009999988,0.5112842999997156,0.5950182999995377,1.7129348999997092,1.796712899999875,,,,,lucie_2,001,2020_Feb_06_1329,posner,3.1.5,59.990449520171325,
-0.5,0,1,left,1,3,0,0,0,0,5,6,46,2,,,,,,,,,119.5854147,120.08541890000015,120.80289290000019,None,120.10186880000037,120.78639740000017,121.3036148000001,None,left,1,0.3048105999996551,121.3036148000001,None,None,,120.10186880000037,121.28706120000061,0.5114968000007138,0.5948990000006233,1.713113499999963,1.7964005000003453,,,,,lucie_2,001,2020_Feb_06_1329,posner,3.1.5,59.990449520171325,
-0.5,0,1,left,1,3,0,0,0,0,5,7,47,0,,,,,,,,,121.63769620000039,122.13828009999997,122.85584980000021,None,122.15501300000051,122.83896730000015,123.35662400000001,None,left,1,0.2918819999995321,123.35662400000001,None,None,,122.15501300000051,123.33980430000065,0.512171300000773,0.5954025000000911,1.7136798999999883,1.7972828000001755,,,,,lucie_2,001,2020_Feb_06_1329,posner,3.1.5,59.990449520171325,
0.5,180,1,right,2,4,0,0,0,0,6,0,48,7,,,,,,,,,123.6739419000005,124.17449080000006,124.89193350000005,None,124.1908540000004,124.87514900000042,125.39252160000069,None,right,1,0.29586939999990136,125.39252160000069,None,None,,124.1908540000004,125.37604550000015,0.5125790000001871,0.5958630000004632,1.7141051000007792,1.7972341000004235,,,,,lucie_2,001,2020_Feb_06_1329,posner,3.1.5,59.990449520171325,
-0.5,0,1,left,1,3,0,0,0,0,6,1,49,0,,,,,,,,,125.71034400000008,126.21100900000056,126.92821770000046,None,126.22703960000035,126.91142089999994,127.42884370000047,None,left,1,0.22752219999983936,127.42884370000047,None,None,,126.22703960000035,127.41216660000009,0.5122831999997288,0.594993799999429,1.7134220999996614,1.7967367999999624,,,,,lucie_2,001,2020_Feb_06_1329,posner,3.1.5,59.990449520171325,
0.5,180,1,right,2,4,0,0,0,0,6,2,50,6,,,,,,,,,127.67985159999989,128.1797889999998,128.89757820000068,None,128.19665130000067,128.88072569999986,129.3981977000003,None,right,1,0.25832420000006096,129.3981977000003,None,None,,128.19665130000067,129.38137300000017,0.5115470999999161,0.5953623999994306,1.7131132999993497,1.7968652999998085,,,,,lucie_2,001,2020_Feb_06_1329,posner,3.1.5,59.990449520171325,
0.5,0,0,right,1,4,0,0,0,0,6,3,51,3,,,,,,,,,129.6828555000002,130.18260330000066,130.90018380000038,None,130.19932810000046,130.8836596000001,131.40077970000038,None,right,1,0.3516838999994434,131.40077970000038,None,None,,130.19932810000046,131.38429450000058,0.5115832999999839,0.5951445000000604,1.7132437999998729,1.796647699999994,,,,,lucie_2,001,2020_Feb_06_1329,posner,3.1.5,59.990449520171325,
-0.5,180,0,left,2,3,0,0,0,0,6,4,52,4,,,,,,,,,131.76867860000038,132.26889029999984,132.98638540000047,None,132.28547849999995,132.96960149999995,133.4871103000005,None,right,0,0.10537339999973483,133.4871103000005,None,None,,132.28547849999995,133.4702926,0.511825300000055,0.595198199999686,1.7132138999995732,1.7969069000000673,,,,,lucie_2,001,2020_Feb_06_1329,posner,3.1.5,59.990449520171325,
0.5,180,1,right,2,4,0,0,0,0,6,5,53,5,,,,,,,,,133.6215144000007,134.1213112000005,134.8390448,None,134.1381253999998,134.8221979,135.33961739999995,None,right,1,0.2768122999996194,135.33961739999995,None,None,,134.1381253999998,135.32300860000032,0.5114206999996895,0.5949027999995451,1.7131077999993067,1.7965758999998798,,,,,lucie_2,001,2020_Feb_06_1329,posner,3.1.5,59.990449520171325,
-0.5,0,1,left,1,3,0,0,0,0,6,6,54,1,,,,,,,,,135.64027810000061,136.14075310000044,136.85853170000064,None,136.15774039999997,136.8416274000001,137.35921380000036,None,left,1,0.2174246000004132,137.35921380000036,None,None,,136.15774039999997,137.3425057000004,0.5120734000001903,0.5955776999999216,1.7138115999996444,1.7972181999994064,,,,,lucie_2,001,2020_Feb_06_1329,posner,3.1.5,59.990449520171325,
-0.5,0,1,left,1,3,0,0,0,0,6,7,55,2,,,,,,,,,137.5937702000001,138.09348200000022,138.81101630000012,None,138.1100193000002,138.7946264000002,139.31174499999997,None,left,1,0.20877560000008089,139.31174499999997,None,None,,138.1100193000002,139.29531980000047,0.5113037999999506,0.5948711999999432,1.7131177000001117,1.79649100000006,,,,,lucie_2,001,2020_Feb_06_1329,posner,3.1.5,59.990449520171325,
-0.5,180,0,left,2,3,0,0,0,0,7,0,56,4,,,,,,,,,139.54605429999992,140.04617920000055,140.7639766000002,None,140.0627943999998,140.7472028000002,141.2647162000003,None,left,1,0.23184180000043852,141.2647162000003,None,None,,140.0627943999998,141.24780460000056,0.5116159999997762,0.5949122000001807,1.7132290999998077,1.796590500000093,,,,,lucie_2,001,2020_Feb_06_1329,posner,3.1.5,59.990449520171325,
0.5,0,0,right,1,4,0,0,0,0,7,1,57,3,,,,,,,,,141.51623280000058,142.01525880000008,142.73373400000037,None,142.03224080000018,142.71668660000068,143.23397340000065,None,right,1,0.27847320000000764,143.23397340000065,None,None,,142.03224080000018,143.21737339999981,0.5109423000003517,0.5949774999999136,1.7130342999998902,1.7962946999996348,,,,,lucie_2,001,2020_Feb_06_1329,posner,3.1.5,59.990449520171325,
-0.5,0,1,left,1,3,0,0,0,0,7,2,58,1,,,,,,,,,143.53514499999983,144.0350238000001,144.75260190000063,None,144.05152369999996,144.7361860000001,145.25345079999988,None,left,1,0.21123979999993026,145.25345079999988,None,None,,144.05152369999996,145.23666680000042,0.5113009999995484,0.5948625999999422,1.7129307999994126,1.796195599999919,,,,,lucie_2,001,2020_Feb_06_1329,posner,3.1.5,59.990449520171325,
0.5,180,1,right,2,4,0,0,0,0,7,3,59,5,,,,,,,,,145.48780260000058,145.9878591000006,146.7053601000007,None,146.0043427999999,146.6887110000007,147.20618819999981,None,right,1,0.24226050000015675,147.20618819999981,None,None,,146.0043427999999,147.18944220000049,0.511594999999943,0.5948148000006768,1.713161300000138,1.7966822000007596,,,,,lucie_2,001,2020_Feb_06_1329,posner,3.1.5,59.990449520171325,
-0.5,0,1,left,1,3,0,0,0,0,7,4,60,0,,,,,,,,,147.4738494000003,147.97384210000018,148.69130140000016,None,147.9902774000002,148.67470680000042,None,None,left,1,1.7141666999996232,None,None,None,,147.9902774000002,149.1755804000004,0.5117990999997346,0.595137799999975,1.713522500000181,None,,,,,lucie_2,001,2020_Feb_06_1329,posner,3.1.5,59.990449520171325,
0.5,180,1,right,2,4,0,0,0,0,7,5,61,7,,,,,,,,,149.19288180000058,149.69266169999992,150.4103439999999,None,149.7097220000005,150.3937477999998,150.9111001000001,None,right,1,0.17732629999954952,150.9111001000001,None,None,,149.7097220000005,150.8944089000006,0.5110703000000285,0.5947335000000749,1.7127682000000277,1.7965487000001303,,,,,lucie_2,001,2020_Feb_06_1329,posner,3.1.5,59.990449520171325,
-0.5,0,1,left,1,3,0,0,0,0,7,6,62,2,,,,,,,,,151.11247670000012,151.6120815000004,152.32975380000062,None,151.62892830000055,152.31315080000059,152.83051270000033,None,left,1,0.25007929999992484,152.83051270000033,None,None,,151.62892830000055,152.81403480000063,0.5113638000002538,0.5949684999995952,1.713295499999731,1.7965265000002546,,,,,lucie_2,001,2020_Feb_06_1329,posner,3.1.5,59.990449520171325,
0.5,180,1,right,2,4,0,0,0,0,7,7,63,6,,,,,,,,,153.09803030000057,153.59820260000015,154.31603150000046,None,153.61500290000004,154.29918850000013,154.8165409000003,None,right,1,0.10402789999989182,154.8165409000003,None,None,,153.61500290000004,154.79974310000034,0.5116798000008203,0.5950222999999824,1.71319720000065,1.7968202000001838,,,,,lucie_2,001,2020_Feb_06_1329,posner,3.1.5,59.990449520171325,
0.5,0,0,right,1,4,0,0,0,0,8,0,64,3,,,,,,,,,154.95017910000024,155.4507407000001,156.16848870000013,None,155.46739930000058,156.15168110000013,156.66919469999993,None,right,1,0.35525159999997413,156.66919469999993,None,None,,155.46739930000058,156.65232660000038,0.511813400000392,0.5953163000003769,1.7133823000003758,1.7969160000002375,,,,,lucie_2,001,2020_Feb_06_1329,posner,3.1.5,59.990449520171325,
-0.5,0,1,left,1,3,0,0,0,0,8,1,65,2,,,,,,,,,157.05343129999983,157.5536546000003,158.27118620000056,None,157.5701409000003,158.2547467000004,158.77196110000023,None,left,1,0.220444900000075,158.77196110000023,None,None,,157.5701409000003,158.75547050000023,0.5116629000003741,0.5952354999999443,1.7134561000002577,1.7969737000003079,,,,,lucie_2,001,2020_Feb_06_1329,posner,3.1.5,59.990449520171325,
-0.5,180,0,left,2,3,0,0,0,0,8,2,66,4,,,,,,,,,159.02319369999987,159.52294950000032,160.24055320000025,None,159.5397098000003,160.22404900000038,160.74124530000063,None,left,1,0.2833326999998462,160.74124530000063,None,None,,159.5397098000003,160.72482639999998,0.5115433000000849,0.5950826999996934,1.7133767999994234,1.7966868999992585,,,,,lucie_2,001,2020_Feb_06_1329,posner,3.1.5,59.990449520171325,
-0.5,0,1,left,1,3,0,0,0,0,8,3,67,0,,,,,,,,,161.04275169999983,161.54258320000008,162.2600710000006,None,161.5591273,162.24341530000038,162.7608708000007,None,left,1,0.30358849999993254,162.7608708000007,None,None,,161.5591273,162.74385110000003,0.5116646999995282,0.5950413999999,1.7129096999997273,1.7969210999999632,,,,,lucie_2,001,2020_Feb_06_1329,posner,3.1.5,59.990449520171325,
0.5,180,1,right,2,4,0,0,0,0,8,4,68,5,,,,,,,,,163.09486730000026,163.59530760000052,164.31329390000064,None,163.61192930000016,164.29638200000045,164.81382490000033,None,right,1,0.2586363000000347,164.81382490000033,None,None,,163.61192930000016,164.79712560000007,0.5120157999999719,0.5955291000000216,1.7138126999998349,1.79696899999999,,,,,lucie_2,001,2020_Feb_06_1329,posner,3.1.5,59.990449520171325,
0.5,180,1,right,2,4,0,0,0,0,8,5,69,7,,,,,,,,,165.09786859999986,165.59807809999984,166.31580759999997,None,165.61488000000008,166.29915489999985,166.81637750000027,None,right,1,0.36813339999935124,166.81637750000027,None,None,,165.61488000000008,166.79979420000018,0.5117067999999563,0.5950039999997898,1.7134018999995533,1.7968181999995068,,,,,lucie_2,001,2020_Feb_06_1329,posner,3.1.5,59.990449520171325,
0.5,180,1,right,2,4,0,0,0,0,8,6,70,6,,,,,,,,,167.20108880000043,167.7009951,168.41867280000042,None,167.71770379999998,168.4020873999998,168.91924780000045,None,right,1,0.33726649999971414,168.91924780000045,None,None,,167.71770379999998,168.9025513000006,0.5115561000002344,0.5950697999996919,1.7130958999996437,1.7967879999996512,,,,,lucie_2,001,2020_Feb_06_1329,posner,3.1.5,59.990449520171325,
-0.5,0,1,left,1,3,0,0,0,0,8,7,71,1,,,,,,,,,169.2868593000003,169.7875038000002,170.50480740000057,None,169.80399949999992,170.48809729999994,171.00564980000036,None,left,1,0.22690330000023096,171.00564980000036,None,None,,169.80399949999992,170.98891880000065,0.5119407000001956,0.5949632000001657,1.713337799999863,1.7966027000002214,,,,,lucie_2,001,2020_Feb_06_1329,posner,3.1.5,59.990449520171325,
-0.5,0,1,left,1,3,0,0,0,0,9,0,72,1,,,,,,,,,171.25625410000066,171.75661910000053,172.4743054999999,None,171.77340370000002,172.45761910000056,172.9750311000007,None,left,1,0.24150229999941075,172.9750311000007,None,None,,171.77340370000002,172.95821830000023,0.5116212000002633,0.594907300000159,1.7132123999999749,1.7965963999995438,,,,,lucie_2,001,2020_Feb_06_1329,posner,3.1.5,59.990449520171325,
0.5,180,1,right,2,4,0,0,0,0,9,1,73,7,,,,,,,,,173.2429931000006,173.74259470000015,174.46016640000016,None,173.7594351000007,174.44374890000017,174.96098979999988,None,right,1,0.20745090000036726,174.96098979999988,None,None,,173.7594351000007,174.94448509999984,0.5115432000002329,0.5952806000004784,1.7133990000002086,1.7968024000001606,,,,,lucie_2,001,2020_Feb_06_1329,posner,3.1.5,59.990449520171325,
-0.5,0,1,left,1,3,0,0,0,0,9,2,74,0,,,,,,,,,175.19547020000027,175.69546739999987,176.41329510000014,None,175.71249530000023,176.3962558000003,176.9138294000004,None,left,1,0.23875600000064878,176.9138294000004,None,None,,175.71249530000023,176.89720430000034,0.5113884000002145,0.5946733000000677,1.713101999999708,1.7962941999994655,,,,,lucie_2,001,2020_Feb_06_1329,posner,3.1.5,59.990449520171325,
0.5,0,0,right,1,4,0,0,0,0,9,3,75,3,,,,,,,,,177.18160739999985,177.68126930000017,178.39907390000008,None,177.6983622000007,178.3823409000006,178.89977290000024,None,right,1,0.2527120000004288,178.89977290000024,None,None,,177.6983622000007,178.8830385000001,0.511227100000724,0.5949825000006967,1.7130094000003737,1.7965432000000874,,,,,lucie_2,001,2020_Feb_06_1329,posner,3.1.5,59.990449520171325,
0.5,180,1,right,2,4,0,0,0,0,9,4,76,5,,,,,,,,,179.18375240000023,179.68425089999982,180.4018145,None,179.70086400000037,180.3851908000006,180.9026113,None,right,1,0.3781696000005468,180.9026113,None,left,0.9635445999992953,179.70086400000037,180.8860196000005,0.5124181999999564,0.5960654000000432,1.7141723000004276,1.7973701000000801,,,,,lucie_2,001,2020_Feb_06_1329,posner,3.1.5,59.990449520171325,
-0.5,180,0,left,2,3,0,0,0,0,9,5,77,4,,,,,,,,,181.3044131000006,181.8037992999998,182.5213829000004,None,181.82053890000043,182.50485459999982,183.02217780000046,None,left,1,0.2502696999999898,183.02217780000046,None,None,,181.82053890000043,183.00549839999985,0.5112146000001303,0.5948270999997476,1.7128858999994918,1.7963966999996046,,,,,lucie_2,001,2020_Feb_06_1329,posner,3.1.5,59.990449520171325,
0.5,180,1,right,2,4,0,0,0,0,9,6,78,6,,,,,,,,,183.28965770000013,183.7898066000007,184.50755110000046,None,183.8066405999998,184.49074930000006,185.00844790000065,None,right,1,0.28793170000062673,185.00844790000065,None,None,,183.8066405999998,184.99139840000043,0.5117619000002378,0.5953986000004079,1.7133365999998205,1.7969660999997359,,,,,lucie_2,001,2020_Feb_06_1329,posner,3.1.5,59.990449520171325,
-0.5,0,1,left,1,3,0,0,0,0,9,7,79,2,,,,,,,,,185.32596420000027,185.82606900000064,186.54383529999996,None,185.8425889,186.5269999000002,187.04436729999998,None,left,1,0.3562775000000329,187.04436729999998,None,None,,185.8425889,187.02800509999997,0.5114262999995844,0.5948674999999639,1.7133391999996093,1.7964752999996563,,,,,lucie_2,001,2020_Feb_06_1329,posner,3.1.5,59.990449520171325,
-0.5,0,1,left,1,3,0,0,0,0,10,0,80,0,,,,,,,,,187.42905789999986,187.92897220000032,188.64664080000057,None,187.94564640000044,188.62980490000064,189.14735139999993,None,left,1,0.30120179999994434,189.14735139999993,None,None,,187.94564640000044,189.13038700000016,0.5116224000003058,0.5950650000004316,1.7130259000005026,1.7970095999999103,,,,,lucie_2,001,2020_Feb_06_1329,posner,3.1.5,59.990449520171325,
-0.5,0,1,left,1,3,0,0,0,0,10,1,81,1,,,,,,,,,189.4653398999999,189.96530040000016,190.6827890000004,None,189.98158800000056,190.66596879999997,191.1835662000003,None,left,1,0.23298799999975017,191.1835662000003,None,None,,189.98158800000056,191.1666181999999,0.5117553999998563,0.5951574999999139,1.713059499999872,1.7963952000000063,,,,,lucie_2,001,2020_Feb_06_1329,posner,3.1.5,59.990449520171325,
0.5,180,1,right,2,4,0,0,0,0,10,2,82,7,,,,,,,,,191.43502669999998,191.93444610000006,192.6521603000001,None,191.95117120000032,192.63544580000053,193.15270380000038,None,right,1,0.2477165000000241,193.15270380000038,None,None,,191.95117120000032,193.1363080000001,0.5114090999995824,0.5948968000002424,1.7132485000001907,1.7964294000003065,,,,,lucie_2,001,2020_Feb_06_1329,posner,3.1.5,59.990449520171325,
-0.5,0,1,left,1,3,0,0,0,0,10,3,83,2,,,,,,,,,193.41995440000028,193.92044350000015,194.63827390000006,None,193.93721580000056,194.6213969999999,195.13905830000022,None,left,1,0.14146719999916968,195.13905830000022,None,None,,193.93721580000056,195.1220202000004,0.5120707000005496,0.5957118000005721,1.7136300000001938,1.7972308000007615,,,,,lucie_2,001,2020_Feb_06_1329,posner,3.1.5,59.990449520171325,
0.5,180,1,right,2,4,0,0,0,0,10,4,84,5,,,,,,,,,195.30665219999992,195.80646160000015,196.52417950000017,None,195.8231765999999,196.50749880000058,197.02496880000035,None,right,1,0.1994737000004534,197.02496880000035,None,None,,195.8231765999999,197.00819339999998,0.5115615000004254,0.5949385000003531,1.7132763999998133,1.796547200000532,,,,,lucie_2,001,2020_Feb_06_1329,posner,3.1.5,59.990449520171325,
-0.5,180,0,left,2,3,0,0,0,0,10,5,85,4,,,,,,,,,197.24267969999983,197.7423931000003,198.4599986000003,None,197.75902330000008,198.4434871000003,198.96083610000005,None,left,1,0.3276093000004039,198.96083610000005,None,None,,197.75902330000008,198.94407210000008,0.511395900000025,0.5950451000007888,1.7130570000008447,1.7967815000001792,,,,,lucie_2,001,2020_Feb_06_1329,posner,3.1.5,59.990449520171325,
0.5,180,1,right,2,4,0,0,0,0,10,6,86,6,,,,,,,,,199.31160679999994,199.81196900000032,200.52948890000062,None,199.82893800000056,200.5128777,201.03031240000018,None,left,0,0.2903123999994932,201.03031240000018,None,None,,199.82893800000056,201.01396040000054,0.5118882000006124,0.5954120000005787,1.7138571000004958,1.7969232000004922,,,,,lucie_2,001,2020_Feb_06_1329,posner,3.1.5,59.990449520171325,
0.5,0,0,right,1,4,0,0,0,0,10,7,87,3,,,,,,,,,201.3481585999998,201.84843080000064,202.56586220000008,None,201.8648432,202.5490464000004,203.06636640000033,None,right,1,0.278449699999328,203.06636640000033,None,None,,201.8648432,203.04963700000008,0.5118335999995907,0.5948414999993474,1.713025000000016,1.7966353000001618,,,,,lucie_2,001,2020_Feb_06_1329,posner,3.1.5,59.990449520171325,
,,,,,,0,0,0,0,,,,,,,,,,,,,,,,,,,,,,,,,,,,,,,,,,203.36807620000036,None,1.8799999452312477e-05,0.9955320999997639,lucie_2,001,2020_Feb_06_1329,posner,3.1.5,59.990449520171325,
0.5,0,0,right,1,4,1,0,1,0,0,0,0,3,1.1499999345687684e-05,0.09753689999979542,264.38445480000064,None,1.4799999917158857e-05,0.0978992999998809,266.48725770000055,None,266.76081260000046,267.2715785999999,267.9726201000003,None,267.2715785999999,267.9561016000007,268.4733595000007,None,right,1,0.2630792999998448,268.4733595000007,None,None,,267.2715785999999,268.4567437000005,0.5039366000000882,0.6041865999995935,1.705702499999461,1.7890736999997898,,,,,lucie_2,001,2020_Feb_06_1329,posner,3.1.5,59.990449520171325,
-0.5,0,1,left,1,3,1,0,1,0,0,1,1,0,,,,,,,,,268.75882900000033,269.2577908000003,269.97564349999993,None,269.2745334000001,269.9587405000002,270.47604090000004,None,left,1,0.26042580000012094,270.47604090000004,None,None,,269.2745334000001,270.4593947000003,0.5104086999999708,0.5937536999999793,1.711997500000507,1.7957047999998395,,,,,lucie_2,001,2020_Feb_06_1329,posner,3.1.5,59.990449520171325,
-0.5,0,1,left,1,3,1,0,1,0,0,2,2,1,,,,,,,,,270.7603804999999,271.26043370000025,271.9783881000003,None,271.2772650000006,271.9615078000006,272.4789675000002,None,left,1,0.25742929999978514,272.4789675000002,None,None,,271.2772650000006,272.4622612000003,0.5116215999996712,0.5953466999999364,1.7134252999994715,1.7969876999995904,,,,,lucie_2,001,2020_Feb_06_1329,posner,3.1.5,59.990449520171325,
0.5,180,1,right,2,4,1,0,1,0,0,3,3,7,,,,,,,,,272.7629028000001,273.26341130000037,273.9809267999999,None,273.27988540000024,273.9645483000004,274.4814938999998,None,right,1,0.09509279999929277,274.4814938999998,None,None,,273.27988540000024,274.46510060000037,0.5116023000000496,0.5951599999998507,1.713269500000024,1.7967626999998174,,,,,lucie_2,001,2020_Feb_06_1329,posner,3.1.5,59.990449520171325,
-0.5,0,1,left,1,3,1,0,1,0,0,4,4,2,,,,,,,,,274.59916800000065,275.099064,275.8169968000002,None,275.11593320000065,275.80011100000047,276.3175590000001,None,left,1,0.2508256999999503,276.3175590000001,None,None,,275.11593320000065,276.3007234000006,0.5114399000003687,0.5950184000002992,1.7130833999999595,1.7966052000001582,,,,,lucie_2,001,2020_Feb_06_1329,posner,3.1.5,59.990449520171325,
0.5,180,1,right,2,4,1,0,1,0,0,5,5,5,,,,,,,,,276.5853627000006,277.08527140000024,277.8028916000003,None,277.1017916999999,277.78623210000023,278.30386550000003,None,right,1,0.1767718999999488,278.30386550000003,None,None,,277.1017916999999,278.2869754000003,0.5115647000002355,0.5951389000001654,1.7132540000002336,1.7966258999995262,,,,,lucie_2,001,2020_Feb_06_1329,posner,3.1.5,59.990449520171325,
0.5,180,1,right,2,4,1,0,1,0,0,6,6,6,,,,,,,,,278.5048357000005,279.0046295000002,279.72208020000016,None,279.0211481000006,279.70546879999984,280.22306320000007,None,left,0,0.13743390000036015,280.22306320000007,None,None,,279.0211481000006,280.20623909999995,0.5114851000007548,0.5948828000000503,1.713078900000255,1.7963921000000482,,,,,lucie_2,001,2020_Feb_06_1329,posner,3.1.5,59.990449520171325,
-0.5,180,0,left,2,3,1,0,1,0,0,7,7,4,,,,,,,,,280.3902729000001,280.89044120000017,281.6084328000006,None,280.9072457000002,281.59152919999997,282.10897600000044,None,left,1,0.13168800000039482,282.10897600000044,None,None,,280.9072457000002,282.09218409999994,0.5114893999998458,0.5951224000000366,1.713227299999744,1.796615600000223,,,,,lucie_2,001,2020_Feb_06_1329,posner,3.1.5,59.990449520171325,
-0.5,180,0,left,2,3,1,0,1,0,1,0,8,4,,,,,,,,,282.2600863000007,282.75962660000005,283.47753550000016,None,282.77663100000063,283.4609207000003,283.97821420000037,284.4622294999999,left,1,0.47033730000021023,283.97821420000037,None,None,,282.77663100000063,283.96150020000005,0.5113796000005095,0.594901800000116,1.7132314000000406,1.7965722999997524,,,,,lucie_2,001,2020_Feb_06_1329,posner,3.1.5,59.990449520171325,
0.5,180,1,right,2,4,1,0,1,0,1,1,9,7,,,,,,,,,284.47935510000025,284.9794165000003,285.69721370000025,None,284.9962525000001,285.68034050000006,286.19783240000015,None,right,1,0.1385573999996268,286.19783240000015,None,None,,284.9962525000001,286.1811072999999,0.5114494999997987,0.5950793000001795,1.7131216999996468,1.7967179999996006,,,,,lucie_2,001,2020_Feb_06_1329,posner,3.1.5,59.990449520171325,
0.5,180,1,right,2,4,1,0,1,0,1,2,10,6,,,,,,,,,286.3655415000003,286.8655675,287.58322469999985,None,286.8820859000007,287.5664792000007,288.0838087000002,None,right,1,0.30072629999995115,288.0838087000002,None,None,,286.8820859000007,288.0669622000005,0.5115801000001738,0.5950474000001122,1.712965300000178,1.7963903999998365,,,,,lucie_2,001,2020_Feb_06_1329,posner,3.1.5,59.990449520171325,
0.5,180,1,right,2,4,1,0,1,0,1,3,11,5,,,,,,,,,288.4013451999999,288.9015758000005,289.61916530000053,None,288.91841550000026,289.6025139000003,290.1198946000004,None,right,1,0.40076700000008714,290.1198946000004,None,None,,288.91841550000026,290.1032765,0.5117350000000442,0.5950366999995822,1.7134087999993426,1.7967656000000716,,,,,lucie_2,001,2020_Feb_06_1329,posner,3.1.5,59.990449520171325,
0.5,0,0,right,1,4,1,0,1,0,1,4,12,3,,,,,,,,,290.5376133999998,291.03801550000026,291.75553050000053,None,291.05452680000053,291.73882500000036,292.25626490000013,None,left,0,0.17626800000016374,292.25626490000013,None,None,,291.05452680000053,292.2395015000002,0.5118584000001647,0.5950628000000506,1.7133303999999043,1.796949399999903,,,,,lucie_2,001,2020_Feb_06_1329,posner,3.1.5,59.990449520171325,
-0.5,0,1,left,1,3,1,0,1,0,1,5,13,1,,,,,,,,,292.45693370000026,292.9570584000003,293.67496650000066,None,292.9738689000005,293.6581337000007,294.17556500000046,None,left,1,0.3369092000002638,294.17556500000046,None,None,,292.9738689000005,294.1589064,0.5114572000002227,0.5948548000005758,1.7132841000002372,1.7966638000007151,,,,,lucie_2,001,2020_Feb_06_1329,posner,3.1.5,59.990449520171325,
-0.5,0,1,left,1,3,1,0,1,0,1,6,14,2,,,,,,,,,294.5433774000003,295.0434694000005,295.76107150000007,None,295.05993190000027,295.7442723000004,296.2616380999998,None,left,1,0.44282060000023193,296.2616380999998,None,left,1.0366549999998824,295.05993190000027,296.2451826000006,0.5117018000000826,0.5950285999997504,1.713391799999954,1.7965725000003658,,,,,lucie_2,001,2020_Feb_06_1329,posner,3.1.5,59.990449520171325,
-0.5,0,1,left,1,3,1,0,1,0,1,7,15,0,,,,,,,,,296.7298725999999,297.2296483,297.94752719999997,None,297.24644290000015,297.9306604000003,298.4481222000004,None,left,1,0.22451619999992545,298.4481222000004,None,None,,297.24644290000015,298.4314510000004,0.5113890000002357,0.5951911000001928,1.7131739000005837,1.796621800000139,,,,,lucie_2,001,2020_Feb_06_1329,posner,3.1.5,59.990449520171325,
-0.5,0,1,left,1,3,1,0,1,0,2,0,16,2,,,,,,,,,298.69881840000016,299.1992398000002,299.9171088000003,None,299.2158221999998,299.8999448000004,300.41753040000003,None,left,1,0.21509229999992385,300.41753040000003,None,None,,299.2158221999998,300.40073100000063,0.5120785000008254,0.5953364000006331,1.7135579000005237,1.7970959000003859,,,,,lucie_2,001,2020_Feb_06_1329,posner,3.1.5,59.990449520171325,
0.5,180,1,right,2,4,1,0,1,0,2,1,17,5,,,,,,,,,300.6515883000002,301.1517595000005,301.8693017000005,None,301.1686094000006,301.8527783999998,302.36994400000003,None,right,1,0.26246379999975034,302.36994400000003,None,None,,301.1686094000006,302.3535173999999,0.5118216999999277,0.5952324999998382,1.713551699999698,1.7968196000001626,,,,,lucie_2,001,2020_Feb_06_1329,posner,3.1.5,59.990449520171325,
0.5,180,1,right,2,4,1,0,1,0,2,2,18,7,,,,,,,,,302.65430259999994,303.1546935000006,303.87206779999997,None,303.1711144000001,303.85553210000035,304.3729151000007,None,right,1,0.15570719999959692,304.3729151000007,None,None,,303.1711144000001,304.35619810000026,0.5117860000000292,0.595190800000637,1.7132713999999396,1.7965523000002577,,,,,lucie_2,001,2020_Feb_06_1329,posner,3.1.5,59.990449520171325,
0.5,0,0,right,1,4,1,0,1,0,2,3,19,3,,,,,,,,,304.55696460000036,305.05733770000006,305.7748947,None,305.07388320000064,305.75832810000065,306.27556319999985,None,left,0,0.22103839999999764,306.27556319999985,None,None,,305.07388320000064,306.25907110000026,0.5119549000000916,0.5953887000005125,1.7136344000000463,1.7969683000001169,,,,,lucie_2,001,2020_Feb_06_1329,posner,3.1.5,59.990449520171325,
-0.5,0,1,left,1,3,1,0,1,0,2,4,20,0,,,,,,,,,306.5265930000005,307.0266736000003,307.7441353000004,None,307.04329190000044,307.7277361000006,308.24506850000034,None,left,1,0.24342819999947096,308.24506850000034,None,None,,307.04329190000044,308.22814240000025,0.5116351999995459,0.5949356999999509,1.7130919000001086,1.7965918999998394,,,,,lucie_2,001,2020_Feb_06_1329,posner,3.1.5,59.990449520171325,
0.5,180,1,right,2,4,1,0,1,0,2,5,21,6,,,,,,,,,308.51275390000046,309.01264189999984,309.73044110000046,None,309.02941480000027,309.71400820000053,310.2312032,None,right,1,0.2972522999998546,310.2312032,None,None,,309.02941480000027,310.2145423000002,0.5115937999999005,0.5949053000003914,1.7134505000003628,1.7968594000003577,,,,,lucie_2,001,2020_Feb_06_1329,posner,3.1.5,59.990449520171325,
-0.5,180,0,left,2,3,1,0,1,0,2,6,22,4,,,,,,,,,310.5486256000004,311.0489768000007,311.7664564000006,None,311.0658228000002,311.74984270000004,312.2672167999999,None,right,0,0.18134869999994407,312.2672167999999,None,None,,311.0658228000002,312.25022960000024,0.5117352999996001,0.5948244000001068,1.7129756000003908,1.7967447999999422,,,,,lucie_2,001,2020_Feb_06_1329,posner,3.1.5,59.990449520171325,
-0.5,0,1,left,1,3,1,0,1,0,2,7,23,1,,,,,,,,,312.4681679000005,312.9683352000002,313.6858229999998,None,312.9847469000006,313.6689655,314.18651240000054,None,left,1,0.2939498999994612,314.18651240000054,None,None,,312.9847469000006,314.16966820000016,0.5116837000005034,0.5947422999997798,1.713001300000542,1.7966135000006034,,,,,lucie_2,001,2020_Feb_06_1329,posner,3.1.5,59.990449520171325,
0.5,180,1,right,2,4,1,0,1,0,3,0,24,5,,,,,,,,,314.50443929999983,315.00440960000014,315.72179830000005,None,315.0208194000006,315.70523630000025,316.22258520000014,None,right,1,0.44999689999986003,316.22258520000014,None,None,,315.0208194000006,316.20600079999986,0.5114816999994218,0.5948625000000902,1.7130570999997872,1.7964449000000968,,,,,lucie_2,001,2020_Feb_06_1329,posner,3.1.5,59.990449520171325,
-0.5,180,0,left,2,3,1,0,1,0,3,1,25,4,,,,,,,,,316.6900956999998,317.1904548000002,317.9082132000003,None,317.20743070000026,317.8915489000001,318.4089727999999,None,left,1,0.3915753000001132,318.4089727999999,None,None,,317.20743070000026,318.3921895000003,0.5118462999998883,0.595643999999993,1.713564900000165,1.7971673000001829,,,,,lucie_2,001,2020_Feb_06_1329,posner,3.1.5,59.990449520171325,
-0.5,0,1,left,1,3,1,0,1,0,3,2,26,0,,,,,,,,,318.82655630000045,319.326857,320.0446428000005,None,319.34350559999984,320.02810390000013,320.54525139999987,None,left,1,0.391153900000063,320.54525139999987,None,None,,319.34350559999984,320.5285743000004,0.5118854000002102,0.5952420000003258,1.7135781999995743,1.7970814000000246,,,,,lucie_2,001,2020_Feb_06_1329,posner,3.1.5,59.990449520171325,
-0.5,0,1,left,1,3,1,0,1,0,3,3,27,1,,,,,,,,,320.96336320000046,321.46310429999994,322.1807447000001,None,321.47978650000005,322.16442110000025,322.6813428000005,None,left,1,0.2712280000005194,322.6813428000005,None,None,,321.47978650000005,322.66498800000045,0.5115314999993643,0.5948766999999862,1.713369899999634,1.796789500000159,,,,,lucie_2,001,2020_Feb_06_1329,posner,3.1.5,59.990449520171325,
-0.5,0,1,left,1,3,1,0,1,0,3,4,28,2,,,,,,,,,322.98265320000064,323.4825939000002,324.2000552999998,None,323.49942830000055,324.1835970000002,324.7009001000006,None,left,1,0.25154750000001513,324.7009001000006,None,None,,323.49942830000055,324.68448720000015,0.5114744000002247,0.594855300000745,1.7133464000007734,1.7967962000002444,,,,,lucie_2,001,2020_Feb_06_1329,posner,3.1.5,59.990449520171325,
0.5,180,1,right,2,4,1,0,1,0,3,5,29,6,,,,,,,,,324.96871120000014,325.4685507000004,326.18636460000016,None,325.48544850000053,326.1695634000007,326.6869052000002,None,right,1,0.1136015000001862,326.6869052000002,None,None,,325.48544850000053,326.67024949999995,0.5114453999995021,0.5948952999997346,1.7131242999994356,1.7966366999999082,,,,,lucie_2,001,2020_Feb_06_1329,posner,3.1.5,59.990449520171325,
0.5,180,1,right,2,4,1,0,1,0,3,6,30,7,,,,,,,,,326.8206264999999,327.3211971999999,328.03879190000043,None,327.33798470000056,328.02212790000067,328.5395045000005,None,right,1,0.2130429999997432,328.5395045000005,None,None,,327.33798470000056,328.5228482000002,0.5113483000004635,0.5949317000004157,1.712981700000455,1.7965234000002965,,,,,lucie_2,001,2020_Feb_06_1329,posner,3.1.5,59.990449520171325,
0.5,0,0,right,1,4,1,0,1,0,3,7,31,3,,,,,,,,,328.7741304000001,329.27401480000026,329.99147580000044,None,329.29047660000015,329.9749369000001,330.4921611999998,None,left,0,0.15649029999985942,330.4921611999998,None,None,,329.29047660000015,330.4757129999998,0.511458599999969,0.5947928000005049,1.7131393999998181,1.7965607000005548,,,,,lucie_2,001,2020_Feb_06_1329,posner,3.1.5,59.990449520171325,
-0.5,0,1,left,1,3,1,0,1,0,4,0,32,0,,,,,,,,,330.6764129000003,331.17647920000036,331.8941394000003,None,331.1932377000003,331.87769410000055,332.3949212000007,None,left,1,0.2937522000001991,332.3949212000007,None,None,,331.1932377000003,332.3781227999998,0.5114898000001631,0.5948680999999851,1.7131239999998797,1.796675900000082,,,,,lucie_2,001,2020_Feb_06_1329,posner,3.1.5,59.990449520171325,
-0.5,0,1,left,1,3,1,0,1,0,4,1,33,2,,,,,,,,,332.71270470000036,333.2127478000002,333.93039210000006,None,333.2295290000002,333.91391680000015,334.43111450000015,None,left,1,0.3616377999996985,334.43111450000015,None,None,,333.2295290000002,334.41463720000047,0.5116699999998673,0.5952238999998372,1.713532199999463,1.7967665999995006,,,,,lucie_2,001,2020_Feb_06_1329,posner,3.1.5,59.990449520171325,
0.5,180,1,right,2,4,1,0,1,0,4,2,34,7,,,,,,,,,334.81553260000055,335.31570379999994,336.03340970000045,None,335.3321598000002,336.0166216000007,336.53406240000004,None,right,1,0.33043670000006387,336.53406240000004,None,None,,335.3321598000002,336.5174151000001,0.5117972999996709,0.5952356999996482,1.7134924000001774,1.796653299999889,,,,,lucie_2,001,2020_Feb_06_1329,posner,3.1.5,59.990449520171325,
-0.5,0,1,left,1,3,1,0,1,0,4,3,35,1,,,,,,,,,336.8852757000004,337.38524850000067,338.10289190000003,None,337.4017102000007,338.0862366000001,338.6036082999999,None,left,1,0.22899270000016259,338.6036082999999,None,None,,337.4017102000007,338.5867382000006,0.511380800000552,0.5947933000006742,1.7128590000002077,1.7962006000007023,,,,,lucie_2,001,2020_Feb_06_1329,posner,3.1.5,59.990449520171325,
0.5,0,0,right,1,4,1,0,1,0,4,4,36,3,,,,,,,,,338.8548638000002,339.3545535000003,340.07200420000026,None,339.3710836,340.05562960000043,340.5729424000001,None,right,1,0.2516726000003473,340.5729424000001,None,None,,339.3710836,340.5561624000002,0.5114365999997972,0.5949409999993804,1.7130209999995714,1.7965612999996665,,,,,lucie_2,001,2020_Feb_06_1329,posner,3.1.5,59.990449520171325,
0.5,180,1,right,2,4,1,0,1,0,4,5,37,6,,,,,,,,,340.84048489999986,341.34049400000004,342.0582376000002,None,341.3574266000005,342.04151869999987,342.5591183000006,None,right,1,0.2813464999999269,342.5591183000006,None,None,,341.3574266000005,342.5422314000007,0.5113774999999805,0.5950438999998369,1.7131079000000682,1.796402500000113,,,,,lucie_2,001,2020_Feb_06_1329,posner,3.1.5,59.990449520171325,
-0.5,180,0,left,2,3,1,0,1,0,4,6,38,4,,,,,,,,,342.8598093999999,343.35991490000015,344.0777957,None,343.3766747999998,344.0611292000003,344.5784414,None,left,1,0.2700612999997247,344.5784414,None,None,,343.3766747999998,344.56168660000003,0.5116399999997157,0.5953104999998686,1.713398099999722,1.7970020000002478,,,,,lucie_2,001,2020_Feb_06_1329,posner,3.1.5,59.990449520171325,
0.5,180,1,right,2,4,1,0,1,0,4,7,39,5,,,,,,,,,344.87932830000045,345.37932009999986,346.0971778000003,None,345.3962035000004,346.08035670000027,346.5978089,None,right,1,0.25064910000037344,346.5978089,None,None,,345.3962035000004,346.58101609999994,0.5113682999999583,0.594973199999913,1.7130441999997856,1.7968817000000854,,,,,lucie_2,001,2020_Feb_06_1329,posner,3.1.5,59.990449520171325,
-0.5,0,1,left,1,3,1,0,1,0,5,0,40,1,,,,,,,,,346.8657948,347.3655453000001,348.08317160000024,None,347.3821373999999,348.06666399999995,348.5838941000002,None,left,1,0.33660800000052404,348.5838941000002,None,None,,347.3821373999999,348.56745730000057,0.5114628000001176,0.594966700000441,1.7133519999997588,1.7965887000000293,,,,,lucie_2,001,2020_Feb_06_1329,posner,3.1.5,59.990449520171325,
0.5,180,1,right,2,4,1,0,1,0,5,1,41,6,,,,,,,,,348.9514073999999,349.45179910000024,350.1693972000003,None,349.4684992000002,350.1527356000006,350.6700948000007,None,right,1,0.38639039999998204,350.6700948000007,None,None,,349.4684992000002,350.6536593000001,0.5116466999998011,0.5950536999998803,1.7134807000002183,1.796770099999776,,,,,lucie_2,001,2020_Feb_06_1329,posner,3.1.5,59.990449520171325,
0.5,180,1,right,2,4,1,0,1,0,5,2,42,5,,,,,,,,,351.0881006999998,351.5883081000002,352.3057280000003,None,351.60467940000035,352.2890234000006,352.80634550000013,None,right,1,0.21822049999991577,352.80634550000013,None,None,,351.60467940000035,352.78959660000055,0.5117817000000286,0.5948725999996896,1.7130573000004006,1.7971696000004158,,,,,lucie_2,001,2020_Feb_06_1329,posner,3.1.5,59.990449520171325,
0.5,0,0,right,1,4,1,0,1,0,5,3,43,3,,,,,,,,,353.0404382000006,353.5407085000006,354.25869330000023,None,353.5575466,354.24167410000064,354.7591911999998,None,right,1,0.3052655000001323,354.7591911999998,None,None,,353.5575466,354.74239430000034,0.5119045000001279,0.595382200000131,1.7135705000000598,1.7970171000006303,,,,,lucie_2,001,2020_Feb_06_1329,posner,3.1.5,59.990449520171325,
-0.5,0,1,left,1,3,1,0,1,0,5,4,44,2,,,,,,,,,355.09392840000055,355.5937402999998,356.3111867000007,None,355.6100838000002,356.29462070000045,356.8118594000007,None,left,1,0.4046175999992556,356.8118594000007,None,None,,355.6100838000002,356.79525580000063,0.5116307999996934,0.5949406999998246,1.713134299999183,1.7967210999995586,,,,,lucie_2,001,2020_Feb_06_1329,posner,3.1.5,59.990449520171325,
-0.5,0,1,left,1,3,1,0,1,0,5,5,45,0,,,,,,,,,357.24616570000035,357.74658679999993,358.4642891000003,None,357.76369260000047,358.44762830000036,358.9650865000003,None,left,1,0.33148030000029394,358.9650865000003,None,None,,357.76369260000047,358.9483927000001,0.5117764999995416,0.594987399999809,1.713568000000123,1.7968788999996832,,,,,lucie_2,001,2020_Feb_06_1329,posner,3.1.5,59.990449520171325,
-0.5,180,0,left,2,3,1,0,1,0,5,6,46,4,,,,,,,,,359.3163155000002,359.8160914,360.5338918000007,None,359.8327016000003,360.5170791999999,361.0344539000007,None,right,0,0.19018820000019332,361.0344539000007,None,None,,359.8327016000003,361.01791050000065,0.5113551000004009,0.5946463000000222,1.713151700000708,1.7964540000002671,,,,,lucie_2,001,2020_Feb_06_1329,posner,3.1.5,59.990449520171325,
0.5,180,1,right,2,4,1,0,1,0,5,7,47,7,,,,,,,,,361.2524299000006,361.75200510000013,362.4696549999999,None,361.7688919000002,362.4532685000004,362.9703534,None,right,1,0.26226349999978993,362.9703534,None,None,,361.7688919000002,362.9538478000004,0.5113739999997051,0.5949694000000818,1.7131941999996343,1.7966544000000795,,,,,lucie_2,001,2020_Feb_06_1329,posner,3.1.5,59.990449520171325,
-0.5,0,1,left,1,3,1,0,1,0,6,0,48,1,,,,,,,,,363.25523969999995,363.7549832000004,364.47250130000066,None,363.77145240000027,364.4559104,364.97323460000007,None,left,1,0.15546329999961017,364.97323460000007,None,None,,363.77145240000027,364.9565431000001,0.5113448000001881,0.5946633000003203,1.712891000000127,1.7963841000000684,,,,,lucie_2,001,2020_Feb_06_1329,posner,3.1.5,59.990449520171325,
0.5,180,1,right,2,4,1,0,1,0,6,1,49,6,,,,,,,,,365.1573122,365.6575016000006,366.37508290000005,None,365.67420630000015,366.3587656999998,366.87600960000054,None,right,1,0.15664700000070297,366.87600960000054,None,None,,365.67420630000015,366.8590793000003,0.511759300000449,0.59503180000047,1.7133231000007072,1.7968383000006725,,,,,lucie_2,001,2020_Feb_06_1329,posner,3.1.5,59.990449520171325,
0.5,0,0,right,1,4,1,0,1,0,6,2,50,3,,,,,,,,,367.05990329999986,367.56003560000045,368.27783960000033,None,367.5768383000004,368.26107240000056,368.77859609999996,None,right,1,0.30993909999961033,368.77859609999996,None,None,,367.5768383000004,368.7618831,0.5115351000004011,0.5950505000000703,1.7133628000001409,1.7965979999999035,,,,,lucie_2,001,2020_Feb_06_1329,posner,3.1.5,59.990449520171325,
0.5,180,1,right,2,4,1,0,1,0,6,3,51,7,,,,,,,,,369.11301960000037,369.6128792999998,370.3304668999999,None,369.6294297000004,370.31401280000046,370.8311325000004,None,left,0,0.14545739999994112,370.8311325000004,None,None,,369.6294297000004,370.81469520000064,0.5115294999995967,0.5951674999996612,1.7133089999997537,1.7967492999996466,,,,,lucie_2,001,2020_Feb_06_1329,posner,3.1.5,59.990449520171325,
-0.5,0,1,left,1,3,1,0,1,0,6,4,52,2,,,,,,,,,370.99906480000027,371.4990748,372.21661420000055,None,371.5154481999998,372.19985410000027,372.7172696000007,None,left,1,0.19527839999955177,372.7172696000007,None,None,,371.5154481999998,372.7003207000007,0.5116185000006226,0.5946868999999424,1.71285110000008,1.7966377000002467,,,,,lucie_2,001,2020_Feb_06_1329,posner,3.1.5,59.990449520171325,
-0.5,0,1,left,1,3,1,0,1,0,6,5,53,0,,,,,,,,,372.9352149000006,373.4348183000002,374.1525179,None,373.45154,374.1358785000002,374.65326000000005,None,left,1,0.21136690000003,374.65326000000005,None,None,,373.45154,374.6365096999998,0.5110653000001548,0.5945443999999043,1.7127410000002783,1.796046500000557,,,,,lucie_2,001,2020_Feb_06_1329,posner,3.1.5,59.990449520171325,
-0.5,180,0,left,2,3,1,0,1,0,6,6,54,4,,,,,,,,,374.8877484000004,375.38768450000043,376.10525920000055,None,375.40451720000056,376.0886336000003,376.6059638000006,None,left,1,0.2425402999997459,376.6059638000006,None,None,,375.40451720000056,376.5892597000002,0.5116167000005589,0.5947485000006054,1.7131779999999708,1.7964707999999519,,,,,lucie_2,001,2020_Feb_06_1329,posner,3.1.5,59.990449520171325,
0.5,180,1,right,2,4,1,0,1,0,6,7,55,5,,,,,,,,,376.8736708000006,377.3735910000005,378.0912831000005,None,377.39015540000037,378.07461909999984,378.5919554000002,None,right,1,0.2806629000006069,378.5919554000002,None,None,,377.39015540000037,378.5753186000002,0.5116484000000128,0.5952719999995679,1.7133511000001818,1.7967447999999422,,,,,lucie_2,001,2020_Feb_06_1329,posner,3.1.5,59.990449520171325,
0.5,180,1,right,2,4,1,0,1,0,7,0,56,6,,,,,,,,,378.8923932000007,379.3930712000001,380.1107750000001,None,379.4096857000004,380.0941535000002,380.61137099999996,None,right,1,0.2291506000001391,380.61137099999996,None,None,,379.4096857000004,380.59477380000044,0.5116047000001345,0.5949607000002288,1.7132856999996875,1.7969229999998788,,,,,lucie_2,001,2020_Feb_06_1329,posner,3.1.5,59.990449520171325,
0.5,180,1,right,2,4,1,0,1,0,7,1,57,7,,,,,,,,,380.8620157000005,381.3623290000005,382.0801013,None,381.3791196000002,382.0635200000006,382.58062620000055,None,right,1,0.24399480000010954,382.58062620000055,None,None,,381.3791196000002,382.56425769999987,0.5121730999999272,0.5957522999997309,1.7140812999996342,1.7974086999993233,,,,,lucie_2,001,2020_Feb_06_1329,posner,3.1.5,59.990449520171325,
0.5,0,0,right,1,4,1,0,1,0,7,2,58,3,,,,,,,,,382.84831900000063,383.3485956000004,384.0660983000007,None,383.3653777999998,384.0493170999998,384.5670153000001,None,left,0,0.20151180000084423,384.5670153000001,None,None,,383.3653777999998,384.55001280000033,0.5117335000004459,0.5951021000000765,1.7131405999998606,1.7967234999996435,,,,,lucie_2,001,2020_Feb_06_1329,posner,3.1.5,59.990449520171325,
-0.5,0,1,left,1,3,1,0,1,0,7,3,59,1,,,,,,,,,384.80100420000053,385.3011511000004,386.0190008999998,None,385.31782850000036,386.00217000000066,386.51951929999996,None,right,0,0.20102910000059637,386.51951929999996,None,None,,385.31782850000036,386.5031560000007,0.5114698999996108,0.5950283000001946,1.7134533999997075,1.7967228999996223,,,,,lucie_2,001,2020_Feb_06_1329,posner,3.1.5,59.990449520171325,
-0.5,0,1,left,1,3,1,0,1,0,7,4,60,0,,,,,,,,,386.73696870000003,387.23741900000005,387.9548512000001,None,387.2539581000001,387.93826979999994,388.45571950000067,None,left,1,0.24084709999988263,388.45571950000067,None,None,,387.2539581000001,388.43901110000024,0.5118637000005037,0.5950411000003442,1.7134442000005947,1.7967132000003403,,,,,lucie_2,001,2020_Feb_06_1329,posner,3.1.5,59.990449520171325,
-0.5,180,0,left,2,3,1,0,1,0,7,5,61,4,,,,,,,,,388.72301460000017,389.2232603000002,389.94082979999985,None,389.2398866000003,389.9243981999998,390.4415895000002,None,right,0,0.0628828999997495,390.4415895000002,None,None,,389.2398866000003,390.4249531000005,0.5119191000003411,0.5953864000002795,1.7135998000003383,1.797431800000595,,,,,lucie_2,001,2020_Feb_06_1329,posner,3.1.5,59.990449520171325,
-0.5,0,1,left,1,3,1,0,1,0,7,6,62,2,,,,,,,,,390.52606509999987,391.02587070000027,391.74353990000054,None,391.04243510000015,391.7267311000005,392.2443573999999,None,left,1,0.2443251999993663,392.2443573999999,None,None,,391.04243510000015,392.2274771000002,0.5112158000001727,0.5945953999998892,1.712807800000519,1.7962342999999237,,,,,lucie_2,001,2020_Feb_06_1329,posner,3.1.5,59.990449520171325,
0.5,180,1,right,2,4,1,0,1,0,7,7,63,5,,,,,,,,,392.5116041000001,393.0120259000005,393.7295432000001,None,393.0286610000003,393.7131970999999,394.23005550000016,None,right,1,0.30659319999995205,394.23005550000016,None,None,,393.0286610000003,394.2137579,0.5120519000001877,0.5952343000008113,1.713760700000421,1.7970051000002059,,,,,lucie_2,001,2020_Feb_06_1329,posner,3.1.5,59.990449520171325,
0.5,180,1,right,2,4,1,0,1,0,8,0,64,6,,,,,,,,,394.5648688000001,395.0648076000007,395.78238899999997,None,395.08135850000053,395.7656457000003,396.2830048000005,None,right,1,0.2534127000008084,396.2830048000005,None,None,,395.08135850000053,396.26648900000055,0.5115823000005548,0.5949775000008231,1.7132394000000204,1.7964836999999534,,,,,lucie_2,001,2020_Feb_06_1329,posner,3.1.5,59.990449520171325,
-0.5,0,1,left,1,3,1,0,1,0,8,1,65,2,,,,,,,,,396.5671130999999,397.06750509999983,397.7851553999999,None,397.0841452000004,397.76837220000016,398.2858513000001,None,right,0,0.05057010000018636,398.2858513000001,None,None,,397.0841452000004,398.2692093000005,0.511713900000359,0.5950112999998964,1.7134012000005896,None,,,,,lucie_2,001,2020_Feb_06_1329,posner,3.1.5,59.990449520171325,
0.5,180,1,right,2,4,1,0,1,0,8,2,66,5,,,,,,,,,398.35335470000064,398.8532034,399.5709701000005,None,398.86991750000016,399.5543290000005,400.0716243000006,None,right,1,0.2570430000005217,400.0716243000006,None,None,,398.86991750000016,400.05492289999984,0.5113464000005479,0.5948422000001301,1.7130425000004834,1.7966181000001598,,,,,lucie_2,001,2020_Feb_06_1329,posner,3.1.5,59.990449520171325,
-0.5,180,0,left,2,3,1,0,1,0,8,3,67,4,,,,,,,,,400.35598740000023,400.85602670000026,401.5737955000004,None,400.8726325000007,401.55710100000033,402.0743336000005,None,left,1,0.13430280000011408,402.0743336000005,None,None,,400.8726325000007,402.0578665000003,0.5115428999997675,0.5948566999995819,1.7133653999999297,1.7965628000001743,,,,,lucie_2,001,2020_Feb_06_1329,posner,3.1.5,59.990449520171325,
-0.5,0,1,left,1,3,1,0,1,0,8,4,68,0,,,,,,,,,402.22569190000013,402.7254139000006,403.4430992000007,None,402.7418206000002,403.4262120000003,403.9438188000004,None,left,1,0.29669530000046507,403.9438188000004,None,None,,402.7418206000002,403.92720760000066,0.511242399999901,0.5947621999994226,1.7130207999998674,1.796237900000051,,,,,lucie_2,001,2020_Feb_06_1329,posner,3.1.5,59.990449520171325,
0.5,180,1,right,2,4,1,0,1,0,8,5,69,7,,,,,,,,,404.2613670999999,404.7614018000004,405.4790636000007,None,404.77802299999985,405.46235720000004,405.9795926000006,None,right,1,0.27692470000056346,405.9795926000006,None,None,,404.77802299999985,405.96326750000026,0.5116502000000764,0.5951635000001261,1.7134937000000718,1.796866399999999,,,,,lucie_2,001,2020_Feb_06_1329,posner,3.1.5,59.990449520171325,
-0.5,0,1,left,1,3,1,0,1,0,8,6,70,1,,,,,,,,,406.28070320000006,406.7808537000001,407.4986372000003,None,406.79752160000044,407.48161770000024,407.99920120000024,None,left,1,0.22539580000011483,407.99920120000024,None,None,,406.79752160000044,407.9825184000001,0.5118398000004163,0.5953765000003841,1.7135119000004124,1.797051399999873,,,,,lucie_2,001,2020_Feb_06_1329,posner,3.1.5,59.990449520171325,
0.5,0,0,right,1,4,1,0,1,0,8,7,71,3,,,,,,,,,408.2499650999998,408.7501022000006,409.4679358000003,None,408.76696210000046,409.45122360000005,409.9686335000006,None,right,1,0.2719074000006003,409.9686335000006,None,None,,408.76696210000046,409.95181930000035,0.5115359999999782,0.5951230000000578,1.7132363000000623,1.796897600000193,,,,,lucie_2,001,2020_Feb_06_1329,posner,3.1.5,59.990449520171325,
0.5,180,1,right,2,4,1,0,1,0,9,0,72,7,,,,,,,,,410.2697168000004,410.7697839000002,411.48747249999997,None,410.7862992999999,411.4706248000002,411.98818870000014,None,right,1,0.2763324999996257,411.98818870000014,None,None,,410.7862992999999,411.9712143000006,0.5116203000006863,0.5951368000005459,1.7130384000001868,1.7966627000005246,,,,,lucie_2,001,2020_Feb_06_1329,posner,3.1.5,59.990449520171325,
-0.5,180,0,left,2,3,1,0,1,0,9,1,73,4,,,,,,,,,412.2891606000003,412.7890016000001,413.5068248000007,None,412.8058365000006,413.49004200000036,414.0074699000006,None,left,1,0.2731829000003927,414.0074699000006,None,None,,412.8058365000006,413.9907028000007,0.5114367000005586,0.5948265000006359,1.7131187000004502,1.796835000000101,,,,,lucie_2,001,2020_Feb_06_1329,posner,3.1.5,59.990449520171325,
-0.5,0,1,left,1,3,1,0,1,0,9,2,74,1,,,,,,,,,414.3084294,414.80869540000003,415.5261449999998,None,414.82536919999984,415.50940470000023,416.0268623000002,None,right,0,0.12569259999963833,416.0268623000002,None,None,,414.82536919999984,416.0100588000005,0.5118404000004375,0.5950715999997556,1.7131892999996126,1.7968650000002526,,,,,lucie_2,001,2020_Feb_06_1329,posner,3.1.5,59.990449520171325,
-0.5,0,1,left,1,3,1,0,1,0,9,3,75,0,,,,,,,,,416.17751320000025,416.6778113999999,417.39559180000015,None,416.69455199999993,417.37886359999993,417.89621930000067,None,left,1,0.23229749999973137,417.89621930000067,None,None,,416.69455199999993,417.87929520000034,0.5121691999993345,0.595419899999797,1.7136296999997285,1.7973197999999684,,,,,lucie_2,001,2020_Feb_06_1329,posner,3.1.5,59.990449520171325,
-0.5,0,1,left,1,3,1,0,1,0,9,4,76,2,,,,,,,,,418.14732580000054,418.64722210000036,419.3650406000006,None,418.66397959999995,419.3482864000007,419.8656504999999,None,left,1,0.2949845000002824,419.8656504999999,None,None,,418.66397959999995,419.84888950000004,0.511515999999574,0.594816499999979,1.7131671999995888,1.7964843999998266,,,,,lucie_2,001,2020_Feb_06_1329,posner,3.1.5,59.990449520171325,
0.5,0,0,right,1,4,1,0,1,0,9,5,77,3,,,,,,,,,420.1834125000005,420.68350199999986,421.4010237000002,None,420.6999110000006,421.3843783000002,421.9017195000006,None,right,1,0.32291499999973894,421.9017195000006,None,None,,420.6999110000006,421.8850253999999,0.5116812999995091,0.5950697999996919,1.7131915999998455,1.796801399999822,,,,,lucie_2,001,2020_Feb_06_1329,posner,3.1.5,59.990449520171325,
0.5,180,1,right,2,4,1,0,1,0,9,6,78,5,,,,,,,,,422.25284939999983,422.7529162999999,423.4704486999999,None,422.7696482000001,423.4538609000001,423.97112670000024,None,right,1,0.2616066000000501,423.97112670000024,None,None,,422.7696482000001,423.95468190000065,0.5116910999995525,0.5951413999991928,1.7134236999991117,1.7967606999991403,,,,,lucie_2,001,2020_Feb_06_1329,posner,3.1.5,59.990449520171325,
0.5,180,1,right,2,4,1,0,1,0,9,7,79,6,,,,,,,,,424.25586230000044,424.75596190000033,425.47325400000045,None,424.77221850000024,425.45648380000057,425.9742074000005,None,right,1,0.29047929999978805,425.9742074000005,None,None,,424.77221850000024,425.95744170000035,0.5117164000002958,0.5949472000002061,1.713178400000288,1.7966111000005185,,,,,lucie_2,001,2020_Feb_06_1329,posner,3.1.5,59.990449520171325,
0.5,180,1,right,2,4,1,0,1,0,10,0,80,5,,,,,,,,,426.2918808000004,426.79171510000015,427.50931130000026,None,426.8084914000001,427.49275510000007,428.0099504,None,right,1,0.2945227000000159,428.0099504,None,None,,426.8084914000001,427.9934219000006,0.5113344999999754,0.5951414999999542,1.7130230000002484,1.7967373999999836,,,,,lucie_2,001,2020_Feb_06_1329,posner,3.1.5,59.990449520171325,
-0.5,0,1,left,1,3,1,0,1,0,10,1,81,0,,,,,,,,,428.32754100000056,428.82801689999997,429.54576540000016,None,428.84479270000065,429.5289671999999,430.0464999000005,None,left,1,0.258082899999863,430.0464999000005,None,None,,428.84479270000065,430.0294732000002,0.5120093000004999,0.5953029000002061,1.7134428999997908,1.797113100000388,,,,,lucie_2,001,2020_Feb_06_1329,posner,3.1.5,59.990449520171325,
0.5,0,0,right,1,4,1,0,1,0,10,2,82,3,,,,,,,,,430.3302293000006,430.8306504000002,431.5487890000004,None,430.84738860000016,431.5315143000007,432.0489822999998,None,right,1,0.24751149999974587,432.0489822999998,None,None,,430.84738860000016,432.0323797000001,0.511832800000775,0.5954896000002918,1.713542899999993,1.7971305999999458,,,,,lucie_2,001,2020_Feb_06_1329,posner,3.1.5,59.990449520171325,
-0.5,180,0,left,2,3,1,0,1,0,10,3,83,4,,,,,,,,,432.31664009999986,432.8169052000003,433.5345842000006,None,432.83341460000065,433.5178882,434.0352636000007,None,left,1,0.26129169999967417,434.0352636000007,None,None,,432.83341460000065,434.01853590000064,0.5117454000001089,0.5948560999995607,1.713352899999336,1.796730099999877,,,,,lucie_2,001,2020_Feb_06_1329,posner,3.1.5,59.990449520171325,
0.5,180,1,right,2,4,1,0,1,0,10,4,84,6,,,,,,,,,434.3196445000003,434.81943880000017,435.53723739999987,None,434.8361665000002,435.5203945000003,436.0378214000002,None,right,1,0.2187655999996423,436.0378214000002,None,None,,434.8361665000002,436.02102060000016,0.5113538999994489,0.5948481999994328,1.7129156999999395,1.796920599999794,,,,,lucie_2,001,2020_Feb_06_1329,posner,3.1.5,59.990449520171325,
0.5,180,1,right,2,4,1,0,1,0,10,5,85,7,,,,,,,,,436.2722158000006,436.7722156,437.4897813000007,None,436.7889223000002,437.4732002999999,437.9904481000003,None,right,1,0.242162599999574,437.9904481000003,None,None,,436.7889223000002,437.97404840000036,0.5117277999997896,0.5952139999999417,1.7135395000004792,1.7967851000003066,,,,,lucie_2,001,2020_Feb_06_1329,posner,3.1.5,59.990449520171325,
-0.5,0,1,left,1,3,1,0,1,0,10,6,86,2,,,,,,,,,438.2579942000002,438.75854119999985,439.4761010000002,None,438.7750842000005,439.45945329999995,439.97674390000066,None,left,1,0.0797826999996687,439.97674390000066,None,None,,438.7750842000005,439.9597938000006,0.5119716999997763,0.5950559000002613,1.7132111999999324,1.796976700000414,,,,,lucie_2,001,2020_Feb_06_1329,posner,3.1.5,59.990449520171325,
-0.5,0,1,left,1,3,1,0,1,0,10,7,87,1,,,,,,,,,440.07763890000024,440.57775310000034,441.2953244999999,None,440.59419100000014,441.27845780000007,441.7960034000007,None,left,1,0.3883975000007922,441.7960034000007,None,None,,440.59419100000014,441.7793193000007,0.5117892999996911,0.5949366999993799,1.713340899999821,1.7969789999997374,,,,,lucie_2,001,2020_Feb_06_1329,posner,3.1.5,59.990449520171325,
,,,,,,1,0,1,0,,,,,,,,,,,,,,,,,,,,,,,,,,,,,,,,,,442.21334730000035,None,1.4400000509340316e-05,0.9954209000006813,lucie_2,001,2020_Feb_06_1329,posner,3.1.5,59.990449520171325,
-0.5,0,1,left,1,3,2,0,2,0,0,0,0,1,1.1900000572495628e-05,0.09766440000021248,503.2305587999999,None,1.4400000509340316e-05,0.09785460000057356,505.3335483000001,None,505.60960479999994,506.11810849999983,506.81901950000065,None,506.11810849999983,506.81901950000065,507.31957260000036,None,left,1,0.2890477999999348,507.31957260000036,None,None,,506.11810849999983,507.31957260000036,0.5001830000001064,0.6003555999996024,1.7021921999994447,1.8019935000002079,,,,,lucie_2,001,2020_Feb_06_1329,posner,3.1.5,59.990449520171325,
0.5,180,1,right,2,4,2,0,2,0,0,1,1,7,,,,,,,,,507.6372121000004,508.1373514000006,508.85507750000033,None,508.1542506000005,508.8384354,509.3557529999998,None,right,1,0.2767444000000978,509.3557529999998,None,None,,508.1542506000005,509.33913050000046,0.5109302000000753,0.5942171000006056,1.712685500000589,1.7958901000001788,,,,,lucie_2,001,2020_Feb_06_1329,posner,3.1.5,59.990449520171325,
0.5,180,1,right,2,4,2,0,2,0,0,2,2,6,,,,,,,,,509.65660990000015,510.15684340000007,510.8745490000001,None,510.1737778000006,510.8579776000006,511.3752209000004,None,right,1,0.2895181000003504,511.3752209000004,None,None,,510.1737778000006,511.3584428000004,0.5117737999999008,0.5952471999999034,1.7133598000000347,1.7967570000000705,,,,,lucie_2,001,2020_Feb_06_1329,posner,3.1.5,59.990449520171325,
-0.5,0,1,left,1,3,2,0,2,0,0,3,3,2,,,,,,,,,511.69300960000055,512.1931912,512.9105847999999,None,512.2099205000004,512.8939292000005,513.4113152999998,None,left,1,0.38121640000008483,513.4113152999998,None,None,,512.2099205000004,513.3947625999999,0.5119335999997929,0.5951904000003196,1.7134876999998596,1.7970456000002741,,,,,lucie_2,001,2020_Feb_06_1329,posner,3.1.5,59.990449520171325,
0.5,0,0,right,1,4,2,0,2,0,0,4,4,3,,,,,,,,,513.8131475,514.3125003000005,515.0301509999999,None,514.3292393000002,515.0137254000001,515.5307852000005,None,right,1,0.1817907999993622,515.5307852000005,None,None,,514.3292393000002,515.5144126000005,0.5112349999999424,0.5946270000004006,1.713124400000197,1.7964062000000922,,,,,lucie_2,001,2020_Feb_06_1329,posner,3.1.5,59.990449520171325,
-0.5,0,1,left,1,3,2,0,2,0,0,5,5,0,,,,,,,,,515.7312767000003,516.2317608000003,516.9496366000003,None,516.2486314000007,516.9328102,517.4501424,None,left,1,0.27873669999917183,517.4501424,None,None,,516.2486314000007,517.4335019999999,0.5112638000000516,0.5948523999995814,1.7129857999998421,1.7965121999995972,,,,,lucie_2,001,2020_Feb_06_1329,posner,3.1.5,59.990449520171325,
-0.5,180,0,left,2,3,2,0,2,0,0,6,6,4,,,,,,,,,517.7513999000003,518.2512649999999,518.9690027000006,None,518.2679899000004,518.9522932999998,519.4695103000004,None,left,1,0.2831827999998495,519.4695103000004,None,None,,518.2679899000004,519.4529167999999,0.5113886999997703,0.5949067999999897,1.7130215999995926,1.7966002000002845,,,,,lucie_2,001,2020_Feb_06_1329,posner,3.1.5,59.990449520171325,
0.5,180,1,right,2,4,2,0,2,0,0,7,7,5,,,,,,,,,519.7705190000006,520.2707203999998,520.9885712000005,None,520.2876151999999,520.9716978000006,521.4891299999999,None,right,1,0.18356169999970007,521.4891299999999,None,None,,520.2876151999999,521.4724167000004,0.5116539999999077,0.5951439000000391,1.7133417000004556,1.7970016999997824,,,,,lucie_2,001,2020_Feb_06_1329,posner,3.1.5,59.990449520171325,
0.5,180,1,right,2,4,2,0,2,0,1,0,8,6,,,,,,,,,521.6897998000004,522.1898809000004,522.9078950000003,None,522.2069663000002,522.8910083000001,523.4085203000004,None,right,1,0.25608830000055605,523.4085203000004,None,None,,522.2069663000002,523.3916956000003,0.5117644000001746,0.5955301000003601,1.7135636000002705,1.7969352000000072,,,,,lucie_2,001,2020_Feb_06_1329,posner,3.1.5,59.990449520171325,
0.5,180,1,right,2,4,2,0,2,0,1,1,9,7,,,,,,,,,523.6929556000005,524.1927541000005,524.9105193000005,None,524.2098993999998,524.8938519000003,525.4111659,None,right,1,0.3254712000007203,525.4111659,None,None,,524.2098993999998,525.3946216000004,0.5115249999998923,0.5952059999999619,1.7133708000001207,1.7967243000002782,,,,,lucie_2,001,2020_Feb_06_1329,posner,3.1.5,59.990449520171325,
0.5,0,0,right,1,4,2,0,2,0,1,2,10,3,,,,,,,,,525.7627873000001,526.2623889000006,526.9800175999999,None,526.2790817000005,526.9637087000001,527.4806628000006,None,left,0,0.15989239999998972,527.4806628000006,None,None,,526.2790817000005,527.4641233000002,0.5114773000004789,0.5948975999999675,1.7131924000004801,1.7967520000001969,,,,,lucie_2,001,2020_Feb_06_1329,posner,3.1.5,59.990449520171325,
-0.5,0,1,left,1,3,2,0,2,0,1,3,11,0,,,,,,,,,527.6651419,528.1652412000003,528.8825826000002,None,528.1815913999999,528.8661589000003,529.3834947000005,None,left,1,0.273283900000024,529.3834947000005,None,None,,528.1815913999999,529.3668830000006,0.5117719999998371,0.5950747999995656,1.7134310000001278,1.7964560999998866,,,,,lucie_2,001,2020_Feb_06_1329,posner,3.1.5,59.990449520171325,
-0.5,180,0,left,2,3,2,0,2,0,1,4,12,4,,,,,,,,,529.6845516000003,530.1846011000007,530.9021771000007,None,530.2010725,530.8857642000003,531.4026631000006,None,left,1,0.3098974000004091,531.4026631000006,None,None,,530.2010725,531.3862675,0.5117142999997668,0.5951451999999335,1.7133652000002257,1.7967430999997305,,,,,lucie_2,001,2020_Feb_06_1329,posner,3.1.5,59.990449520171325,
0.5,180,1,right,2,4,2,0,2,0,1,5,13,5,,,,,,,,,531.7371506999998,532.2374174000006,532.9549941000005,None,532.2539950999999,532.9383395000004,533.4556006000003,None,right,1,0.20903140000064013,533.4556006000003,None,None,,532.2539950999999,533.4390098000003,0.5118178000002445,0.5950449000001754,1.7133934000003137,1.7967122000000018,,,,,lucie_2,001,2020_Feb_06_1329,posner,3.1.5,59.990449520171325,
-0.5,0,1,left,1,3,2,0,2,0,1,6,14,1,,,,,,,,,533.689926,534.1898418999999,534.9078806000007,None,534.2068194000003,534.8908637000004,535.4084578000002,None,left,1,0.2880657000005158,535.4084578000002,None,None,,534.2068194000003,535.3915262999999,0.5114535000002434,0.5953534000000218,1.7131179999996675,1.7966269999997166,,,,,lucie_2,001,2020_Feb_06_1329,posner,3.1.5,59.990449520171325,
-0.5,0,1,left,1,3,2,0,2,0,1,7,15,2,,,,,,,,,535.7262255000005,536.2262134000002,536.9437717000001,None,536.2427985000004,536.9270053,537.4445445000001,None,left,1,0.251916600000186,537.4445445000001,None,None,,536.2427985000004,537.4279861000005,0.5112476999993305,0.5944829000000027,1.7130028999999922,1.7962438999993537,,,,,lucie_2,001,2020_Feb_06_1329,posner,3.1.5,59.990449520171325,
-0.5,0,1,left,1,3,2,0,2,0,2,0,16,0,,,,,,,,,537.7127969000003,538.2127229000007,538.9297674,None,538.2290286000007,538.9132082000006,539.4305615000003,None,left,1,0.29797490000055404,539.4305615000003,None,None,,538.2290286000007,539.4141092,0.5120773999997255,0.5949687000002086,1.7133962999996584,1.7966031999994811,,,,,lucie_2,001,2020_Feb_06_1329,posner,3.1.5,59.990449520171325,
0.5,180,1,right,2,4,2,0,2,0,2,1,17,5,,,,,,,,,539.7483570000004,540.2484629999999,540.9662257999998,None,540.2650263000005,540.9494806000002,541.4666307000007,None,right,1,0.20611289999942528,541.4666307000007,None,None,,540.2650263000005,541.4499734000001,0.511720299999979,0.5949418000000151,1.7132142999998905,1.7969319000003452,,,,,lucie_2,001,2020_Feb_06_1329,posner,3.1.5,59.990449520171325,
0.5,0,0,right,1,4,2,0,2,0,2,2,18,3,,,,,,,,,541.7010043999999,542.2011102000006,542.9188408,None,542.2178694000004,542.9021475999998,543.4193452999998,None,right,1,0.2932857999994667,543.4193452999998,None,None,,542.2178694000004,543.4028508000001,0.5116922000006525,0.5951299000007566,1.7134216000004017,1.7966708000003564,,,,,lucie_2,001,2020_Feb_06_1329,posner,3.1.5,59.990449520171325,
0.5,180,1,right,2,4,2,0,2,0,2,3,19,6,,,,,,,,,543.7366122000003,544.2372918000001,544.9549501000001,None,544.2538786000005,544.9381633000003,545.4555246999998,None,right,1,0.16911650000020018,545.4555246999998,None,None,,544.2538786000005,545.4389543000007,0.512326099999882,0.5956194999998843,1.7139719000006153,1.7972673000003851,,,,,lucie_2,001,2020_Feb_06_1329,posner,3.1.5,59.990449520171325,
-0.5,0,1,left,1,3,2,0,2,0,2,4,20,1,,,,,,,,,545.6564599000003,546.1564709000004,546.8742689000001,None,546.1731999000003,546.8574225000002,547.3749008000004,None,left,1,0.20172829999955866,547.3749008000004,None,None,,546.1731999000003,547.3584028000005,0.5115021000001434,0.5947781000004397,1.7134106000003158,1.796507200000633,,,,,lucie_2,001,2020_Feb_06_1329,posner,3.1.5,59.990449520171325,
-0.5,180,0,left,2,3,2,0,2,0,2,5,21,4,,,,,,,,,547.5923137999998,548.0924242000001,548.8100095999998,None,548.1093258999999,548.7936101000005,549.3108519000007,None,left,1,0.3777561999995669,549.3108519000007,None,None,,548.1093258999999,549.2943261999999,0.5117267000005086,0.5951506000001245,1.7136053000003812,1.7969846000005418,,,,,lucie_2,001,2020_Feb_06_1329,posner,3.1.5,59.990449520171325,
0.5,180,1,right,2,4,2,0,2,0,2,6,22,7,,,,,,,,,549.7131321000006,550.2126691000003,550.9298942000005,None,550.2288693999999,550.9129977000002,551.4304615000001,None,right,1,0.3380752000002758,551.4304615000001,None,None,,550.2288693999999,551.4138840000005,0.5119268999997075,0.594847899999877,1.7130798999996841,1.7963940999998158,,,,,lucie_2,001,2020_Feb_06_1329,posner,3.1.5,59.990449520171325,
-0.5,0,1,left,1,3,2,0,2,0,2,7,23,2,,,,,,,,,551.7980348000001,552.2984477,553.0159917999999,None,552.3151200000002,552.9994483,553.5166534999998,None,left,1,0.14791220000006433,553.5166534999998,None,None,,552.3151200000002,553.5000881000005,0.511884700000337,0.5952164999998786,1.7135035000001153,1.796880400000191,,,,,lucie_2,001,2020_Feb_06_1329,posner,3.1.5,59.990449520171325,
0.5,180,1,right,2,4,2,0,2,0,3,0,24,6,,,,,,,,,553.6843423999999,554.1844049000001,554.9018670000005,None,554.2009005,554.8853454999999,555.4025511,None,right,1,0.23801879999973607,555.4025511,None,None,,554.2009005,555.3860666,0.5116632999997819,0.5950260999998136,1.7133154000002833,1.7966950999998517,,,,,lucie_2,001,2020_Feb_06_1329,posner,3.1.5,59.990449520171325,
-0.5,0,1,left,1,3,2,0,2,0,3,1,25,2,,,,,,,,,555.6700558000002,556.1701192999999,556.8881055000002,None,556.1870201000002,556.8712389000002,557.3888191000005,None,left,1,0.28399730000001,557.3888191000005,None,None,,556.1870201000002,557.3719085000002,0.5118585999998686,0.5955432999999175,1.7136318000002575,1.7970924000001105,,,,,lucie_2,001,2020_Feb_06_1329,posner,3.1.5,59.990449520171325,
0.5,180,1,right,2,4,2,0,2,0,3,2,26,7,,,,,,,,,557.6898723000004,558.1895444000002,558.9075165000004,None,558.2064344999999,558.8906249000001,559.4081376000004,None,right,1,0.08838169999944512,559.4081376000004,None,None,,558.2064344999999,559.3914064,0.5113862999996854,0.5950296999999409,1.7132376999998087,1.79682320000029,,,,,lucie_2,001,2020_Feb_06_1329,posner,3.1.5,59.990449520171325,
0.5,0,0,right,1,4,2,0,2,0,3,3,27,3,,,,,,,,,559.5258137999999,560.0257575000005,560.7435227000005,None,560.0423506000006,560.7264603000003,561.2441165999999,None,left,0,0.09252079999987473,561.2441165999999,None,None,,560.0423506000006,561.2275687000001,0.5115090999997847,0.5947470000000976,1.7133028999996895,1.7964416000004348,,,,,lucie_2,001,2020_Feb_06_1329,posner,3.1.5,59.990449520171325,
-0.5,0,1,left,1,3,2,0,2,0,3,4,28,1,,,,,,,,,561.3615643000003,561.8614760999999,562.5792330000004,None,561.8782146000003,562.5627064,563.0796983999999,None,left,1,0.24092149999978574,563.0796983999999,None,None,,561.8782146000003,563.0630916,0.5114960000000792,0.5949439000005441,1.7130895000000237,1.79682000000048,,,,,lucie_2,001,2020_Feb_06_1329,posner,3.1.5,59.990449520171325,
-0.5,180,0,left,2,3,2,0,2,0,3,5,29,4,,,,,,,,,563.3474467000005,563.8474722999999,564.5653702,None,563.8645256,564.5485064000004,565.0658647,None,left,1,0.31874100000004546,565.0658647,None,None,,563.8645256,565.0492536000002,0.5116730999998254,0.5951705999996193,1.713431799999853,1.7967974999992293,,,,,lucie_2,001,2020_Feb_06_1329,posner,3.1.5,59.990449520171325,
-0.5,0,1,left,1,3,2,0,2,0,3,6,30,0,,,,,,,,,565.4003490000005,565.9003309999998,566.6182340000005,None,565.9171640000004,566.6012620000001,567.1188238000004,None,left,1,0.2578257000004669,567.1188238000004,None,None,,565.9171640000004,567.1020552,0.5116419000005408,0.5953448999998727,1.7133438000000751,1.7967606000001979,,,,,lucie_2,001,2020_Feb_06_1329,posner,3.1.5,59.990449520171325,
0.5,180,1,right,2,4,2,0,2,0,3,7,31,5,,,,,,,,,567.4031689000003,567.9031924000001,568.6207193999999,None,567.9197242,568.6042180000004,569.1214268000003,None,right,1,0.20724889999928564,569.1214268000003,None,None,,567.9197242,569.1051348000001,0.5117737000000488,0.5951106000002255,1.713662099999965,1.7969891000002463,,,,,lucie_2,001,2020_Feb_06_1329,posner,3.1.5,59.990449520171325,
-0.5,0,1,left,1,3,2,0,2,0,4,0,32,0,,,,,,,,,569.3561433000004,569.8558123000003,570.5736691000002,None,569.8723706000001,570.5569089,571.0742366000004,None,left,1,0.26229090000015276,571.0742366000004,None,None,,569.8723706000001,571.0578303000002,0.5114495999996507,0.5949917999996615,1.7134456999992835,1.7965353999998115,,,,,lucie_2,001,2020_Feb_06_1329,posner,3.1.5,59.990449520171325,
0.5,180,1,right,2,4,2,0,2,0,4,1,33,7,,,,,,,,,571.3587199000003,571.8586566000004,572.5764290000006,None,571.8753815,572.5594584,573.0771100000002,None,right,1,0.22755730000062613,573.0771100000002,None,None,,571.8753815,573.0601201,0.5116066000000501,0.5949117999998634,1.7130700999996407,1.7966535999994449,,,,,lucie_2,001,2020_Feb_06_1329,posner,3.1.5,59.990449520171325,
0.5,0,0,right,1,4,2,0,2,0,4,2,34,3,,,,,,,,,573.3275338000003,573.8280954000002,574.5457947000004,None,573.8446468000002,574.5290829000005,575.0464173,575.5301771000004,right,1,0.47415450000062265,575.0464173,None,None,,573.8446468000002,575.0295646000004,0.5120671000004222,0.5956198000003496,1.7135166000007303,1.7970751000002565,,,,,lucie_2,001,2020_Feb_06_1329,posner,3.1.5,59.990449520171325,
0.5,180,1,right,2,4,2,0,2,0,4,3,35,6,,,,,,,,,575.5475401000003,576.0478653,576.7654646000001,None,576.0645086000004,576.7490332000007,577.2661366000002,None,right,1,0.22257909999916592,577.2661366000002,None,None,,576.0645086000004,577.2494588999998,0.5118902999993225,0.5949966999996832,1.713466399999561,1.7966947999993863,,,,,lucie_2,001,2020_Feb_06_1329,posner,3.1.5,59.990449520171325,
-0.5,180,0,left,2,3,2,0,2,0,4,4,36,4,,,,,,,,,577.5169030000006,578.0171281000003,578.7348810000003,None,578.0337915999999,578.7181515000002,579.2355670000006,None,left,1,0.34091429999989487,579.2355670000006,None,None,,578.0337915999999,579.2188062000005,0.5119733000001361,0.5952842000006058,1.7136379000003217,1.796959500000412,,,,,lucie_2,001,2020_Feb_06_1329,posner,3.1.5,59.990449520171325,
-0.5,0,1,left,1,3,2,0,2,0,4,5,37,1,,,,,,,,,579.6032263000006,580.1032123000005,580.8209330999998,None,580.1200919000003,580.8044342000003,581.3218371000003,None,left,1,0.3027327999998306,581.3218371000003,None,None,,580.1200919000003,581.3048832000004,0.511446800000158,0.5949868999996397,1.7130804999997054,1.7967730000000302,,,,,lucie_2,001,2020_Feb_06_1329,posner,3.1.5,59.990449520171325,
-0.5,0,1,left,1,3,2,0,2,0,4,6,38,2,,,,,,,,,581.6558394000003,582.1563021000002,582.8738093000002,None,582.1728495000007,582.8571350000002,583.3747272,None,right,0,0.16993639999964216,583.3747272,None,None,,582.1728495000007,583.3579565999999,0.5115748999996867,0.5947096999998394,1.7132112999997844,1.7964247999998406,,,,,lucie_2,001,2020_Feb_06_1329,posner,3.1.5,59.990449520171325,
0.5,180,1,right,2,4,2,0,2,0,4,7,39,5,,,,,,,,,583.5753708000002,584.0754575000001,584.7933462999999,None,584.0921397000002,584.7765637000002,585.2937080000002,None,right,1,0.2027802000002339,585.2937080000002,None,None,,584.0921397000002,585.2773955000002,0.5114141000003656,0.5949921000001268,1.7133379000006244,1.796476900000016,,,,,lucie_2,001,2020_Feb_06_1329,posner,3.1.5,59.990449520171325,
-0.5,0,1,left,1,3,2,0,2,0,5,0,40,1,,,,,,,,,585.5282485000007,586.0283516999998,586.7458319000007,None,586.0449994,586.7291402000001,587.2465244000005,None,left,1,0.25813670000025013,587.2465244000005,None,None,,586.0449994,587.2296289000005,0.5117274000003817,0.5951513999998497,1.7129869999998846,1.7965330999995786,,,,,lucie_2,001,2020_Feb_06_1329,posner,3.1.5,59.990449520171325,
-0.5,180,0,left,2,3,2,0,2,0,5,1,41,4,,,,,,,,,587.5312183000005,588.0310061999999,588.7487822000003,None,588.0477145000004,588.7318123000005,589.2491919000004,None,left,1,0.3034335000002102,589.2491919000004,None,None,,588.0477145000004,589.2325279000006,0.5116183999998611,0.5952041000000463,1.7131032999996023,1.7966828999997233,,,,,lucie_2,001,2020_Feb_06_1329,posner,3.1.5,59.990449520171325,
0.5,180,1,right,2,4,2,0,2,0,5,2,42,5,,,,,,,,,589.5838221000004,590.0838116000004,590.8012466999999,None,590.1004418000002,590.7848658000003,591.3019748000006,None,right,1,0.26674200000070414,591.3019748000006,None,None,,590.1004418000002,591.2854748,0.5116667000002053,0.5951589999995122,1.7133066999995208,1.7967608999997537,,,,,lucie_2,001,2020_Feb_06_1329,posner,3.1.5,59.990449520171325,
0.5,180,1,right,2,4,2,0,2,0,5,3,43,6,,,,,,,,,591.5866474000004,592.0865938000006,592.8041246000003,None,592.1030900000005,592.7875984000002,593.3050812000001,None,left,0,0.19160700000065845,593.3050812000001,None,None,,592.1030900000005,593.2882815000003,0.5111446999999316,0.5944978999996238,1.7128149000000121,1.7962331999997332,,,,,lucie_2,001,2020_Feb_06_1329,posner,3.1.5,59.990449520171325,
0.5,0,0,right,1,4,2,0,2,0,5,4,44,3,,,,,,,,,593.5225913000004,594.0224893000004,594.7400514999999,None,594.0392154000001,594.7235710000004,595.2407653999999,None,right,1,0.3197724000001472,595.2407653999999,None,None,,594.0392154000001,595.2241529000003,0.5114275999994788,0.5948839000002408,1.713076000000001,1.796650999999656,,,,,lucie_2,001,2020_Feb_06_1329,posner,3.1.5,59.990449520171325,
-0.5,0,1,left,1,3,2,0,2,0,5,5,45,0,,,,,,,,,595.5918447000004,596.0920638000007,596.8096593999999,None,596.1087238999999,596.7931919000002,597.3103815000004,None,left,1,0.27424410000003263,597.3103815000004,None,None,,596.1087238999999,597.2938122000005,0.5114852999995492,0.5950529000001552,1.7132105000000593,1.7966153999996095,,,,,lucie_2,001,2020_Feb_06_1329,posner,3.1.5,59.990449520171325,
-0.5,0,1,left,1,3,2,0,2,0,5,6,46,2,,,,,,,,,597.6116126000006,598.1114994999998,598.8293295000003,None,598.1281280000003,598.8126072000005,599.3298167000003,None,right,0,0.16676139999981388,599.3298167000003,None,None,,598.1281280000003,599.3131371,0.511495400000058,0.595132399999784,1.7131141999998363,1.7966287999997803,,,,,lucie_2,001,2020_Feb_06_1329,posner,3.1.5,59.990449520171325,
0.5,180,1,right,2,4,2,0,2,0,5,7,47,7,,,,,,,,,599.5143672000004,600.0143556000003,600.7316706000001,None,600.0308879000004,600.7152494000002,601.2324845000003,None,right,1,0.3122262999995655,601.2324845000003,None,None,,600.0308879000004,601.2158217000006,0.5116901999999754,0.5949042999991434,1.7131465999991633,1.796499799999765,,,,,lucie_2,001,2020_Feb_06_1329,posner,3.1.5,59.990449520171325,
0.5,180,1,right,2,4,2,0,2,0,6,0,48,5,,,,,,,,,601.5669938000001,602.0669484,602.7846112000007,None,602.0836479999998,602.7680527000002,603.2853980999998,None,right,1,0.25130239999998594,603.2853980999998,None,None,,602.0836479999998,603.2685042000003,0.5114427000007709,0.5949066000002858,1.7129897000004348,1.7965273000008892,,,,,lucie_2,001,2020_Feb_06_1329,posner,3.1.5,59.990449520171325,
0.5,180,1,right,2,4,2,0,2,0,6,1,49,6,,,,,,,,,603.5532349000005,604.0531777000006,604.7705956999998,None,604.0695712000006,604.7540937000003,605.2712576000004,None,right,1,0.25740479999967647,605.2712576000004,None,None,,604.0695712000006,605.2548379999998,0.5116395999993983,0.5949553000000378,1.713283600000068,1.7967641999994157,,,,,lucie_2,001,2020_Feb_06_1329,posner,3.1.5,59.990449520171325,
-0.5,0,1,left,1,3,2,0,2,0,6,2,50,2,,,,,,,,,605.5556913999999,606.0558765000005,606.7734616000007,None,606.0723446000002,606.7566887000003,607.2744388000001,None,left,1,0.27020699999957287,607.2744388000001,None,None,,606.0723446000002,607.2574073000005,0.5115445000001273,0.5947224999999889,1.7130593000001682,1.796456200000648,,,,,lucie_2,001,2020_Feb_06_1329,posner,3.1.5,59.990449520171325,
0.5,0,0,right,1,4,2,0,2,0,6,3,51,3,,,,,,,,,607.5752171000004,608.0752364,608.7929013000003,None,608.0920450000003,608.7763588000007,609.2936643000003,None,right,1,0.30696919999991223,609.2936643000003,None,None,,608.0920450000003,609.276922,0.511273600000095,0.5946236999998291,1.7129926999996314,1.7963790999992852,,,,,lucie_2,001,2020_Feb_06_1329,posner,3.1.5,59.990449520171325,
0.5,180,1,right,2,4,2,0,2,0,6,4,52,7,,,,,,,,,609.6279346000001,610.1281070000005,610.8455902000005,None,610.1447824000006,610.8289615000003,611.3464281000006,None,right,1,0.12616199999956734,611.3464281000006,None,None,,610.1447824000006,611.3297775999999,0.5116752000003544,0.5954964000002292,1.7133241000001362,1.7967774999997346,,,,,lucie_2,001,2020_Feb_06_1329,posner,3.1.5,59.990449520171325,
-0.5,0,1,left,1,3,2,0,2,0,6,5,53,0,,,,,,,,,611.4973040000004,611.9973547999998,612.7151453000006,None,612.0141462000001,612.6982736999998,613.2158585000006,None,left,1,0.28874960000030114,613.2158585000006,None,None,,612.0141462000001,613.1990956,0.5115825000002587,0.594926800000394,1.7133018000004085,1.796621899999991,,,,,lucie_2,001,2020_Feb_06_1329,posner,3.1.5,59.990449520171325,
-0.5,180,0,left,2,3,2,0,2,0,6,6,54,4,,,,,,,,,613.5332755,614.0336346000004,614.7511267,None,614.0500837,614.7344766000006,615.2517268000001,None,right,0,0.1488640999996278,615.2517268000001,None,None,,614.0500837,615.2350895,0.511783099999775,0.594996099999662,1.713230399999702,1.7968357999998261,,,,,lucie_2,001,2020_Feb_06_1329,posner,3.1.5,59.990449520171325,
-0.5,0,1,left,1,3,2,0,2,0,6,7,55,1,,,,,,,,,615.4195786999999,615.9192776999998,616.6372023000004,None,615.9360930000003,616.6205196000001,617.1377689000001,None,left,1,0.1989106000000902,617.1377689000001,None,None,,615.9360930000003,617.1211836000002,0.5113701999998739,0.5948919000002206,1.7132904000000053,1.796621800000139,,,,,lucie_2,001,2020_Feb_06_1329,posner,3.1.5,59.990449520171325,
-0.5,0,1,left,1,3,2,0,2,0,7,0,56,0,,,,,,,,,617.3551881000003,617.8554960000001,618.5730253000002,None,617.8719541999999,618.5563642000006,619.0739004000006,None,left,1,0.28676700000050914,619.0739004000006,None,None,,617.8719541999999,619.0572278,0.5116049999996903,0.5948185999995985,1.7133238999995228,1.7964580999996542,,,,,lucie_2,001,2020_Feb_06_1329,posner,3.1.5,59.990449520171325,
0.5,0,0,right,1,4,2,0,2,0,7,1,57,3,,,,,,,,,619.3909290000001,619.8915104000007,620.6092693999999,None,619.9083368000001,620.5924544,621.1098609999999,None,right,1,0.25064629999997123,621.1098609999999,None,None,,619.9083368000001,621.0932294000004,0.5119377999999415,0.5954418999999689,1.7136472000001959,1.7969915000003311,,,,,lucie_2,001,2020_Feb_06_1329,posner,3.1.5,59.990449520171325,
0.5,180,1,right,2,4,2,0,2,0,7,2,58,5,,,,,,,,,621.3774947000002,621.8776130000006,622.5952585000005,None,621.8942440000001,622.5787344999999,623.0959861000001,None,right,1,0.24875000000065484,623.0959861000001,None,None,,621.8942440000001,623.0793285999998,0.5115939999996044,0.5949997999996413,1.7132938999993712,1.796709700000065,,,,,lucie_2,001,2020_Feb_06_1329,posner,3.1.5,59.990449520171325,
0.5,180,1,right,2,4,2,0,2,0,7,3,59,6,,,,,,,,,623.3640105000004,623.8638602999999,624.5812010999998,None,623.8802671000003,624.5648781999998,625.0818778000003,None,right,1,0.19081639999967592,625.0818778000003,None,None,,623.8802671000003,625.0654510000004,0.5116158999999243,0.594816400000127,1.7131791000001613,1.7968244000003324,,,,,lucie_2,001,2020_Feb_06_1329,posner,3.1.5,59.990449520171325,
0.5,180,1,right,2,4,2,0,2,0,7,4,60,7,,,,,,,,,625.2995885999999,625.7995127000004,626.5174910000005,None,625.8164305999999,626.5006640000001,627.0181167999999,None,right,1,0.10249339999973017,627.0181167999999,None,None,,625.8164305999999,627.0013072000002,0.5113500000006752,0.595064099999945,1.713129700000536,1.796638100000564,,,,,lucie_2,001,2020_Feb_06_1329,posner,3.1.5,59.990449520171325,
-0.5,0,1,left,1,3,2,0,2,0,7,5,61,2,,,,,,,,,627.1523818000005,627.6523486000006,628.3698552000005,None,627.6689976000007,628.3531669000004,628.8704666000003,None,left,1,0.20205970000006346,628.8704666000003,None,None,,627.6689976000007,628.8541230999999,0.5119150999998965,0.5953606000002765,1.7136636000004728,1.7970184000005247,,,,,lucie_2,001,2020_Feb_06_1329,posner,3.1.5,59.990449520171325,
-0.5,180,0,left,2,3,2,0,2,0,7,6,62,4,,,,,,,,,629.0883652000002,629.5883570000005,630.3058922999999,None,629.6049145000006,630.2890815999999,630.8066803000002,None,left,1,0.27420189999975264,630.8066803000002,None,None,,629.6049145000006,630.7898955000001,0.5116545999999289,0.5948717000001125,1.713181799999802,1.7968081999997594,,,,,lucie_2,001,2020_Feb_06_1329,posner,3.1.5,59.990449520171325,
-0.5,0,1,left,1,3,2,0,2,0,7,7,63,1,,,,,,,,,631.1071529000001,631.6077405000005,632.3255771000004,None,631.6244893000003,632.3089499000007,632.8260123999999,None,left,1,0.21471500000006927,632.8260123999999,None,None,,631.6244893000003,632.8093276,0.5122811000001093,0.5955807999998797,1.7138464999998178,1.7973125999997137,,,,,lucie_2,001,2020_Feb_06_1329,posner,3.1.5,59.990449520171325,
0.5,0,0,right,1,4,2,0,2,0,8,0,64,3,,,,,,,,,633.0605614000006,633.5605129000005,634.2781254000001,None,633.5771493000002,634.2613268000005,634.7788658,None,right,1,0.24566020000020217,634.7788658,None,None,,633.5771493000002,634.7621918000004,0.5115568000001076,0.5951411000005464,1.7132203999999547,1.7967482000003656,,,,,lucie_2,001,2020_Feb_06_1329,posner,3.1.5,59.990449520171325,
-0.5,180,0,left,2,3,2,0,2,0,8,1,65,4,,,,,,,,,635.0467816,635.5466347000001,636.2641397000007,None,635.5631652000002,636.2476190000007,636.7650874999999,None,left,1,0.26753720000033354,636.7650874999999,None,None,,635.5631652000002,636.7482387999999,0.511555899999621,0.5946703999998135,1.7131511999996292,1.7963765999993484,,,,,lucie_2,001,2020_Feb_06_1329,posner,3.1.5,59.990449520171325,
0.5,180,1,right,2,4,2,0,2,0,8,2,66,5,,,,,,,,,637.0491923,637.5491972,638.2669591000003,None,637.5660150000003,638.2503113000002,638.7678082000002,None,right,1,0.09685540000009496,638.7678082000002,None,None,,637.5660150000003,638.7509817999999,0.5117467000000033,0.595214599999963,1.7135153999997783,1.7970155000002705,,,,,lucie_2,001,2020_Feb_06_1329,posner,3.1.5,59.990449520171325,
-0.5,0,1,left,1,3,2,0,2,0,8,3,67,2,,,,,,,,,638.8855480000002,639.3850296999999,640.1028081000004,None,639.4017838999998,640.0861144,640.6034114000004,None,left,1,0.17331730000023526,640.6034114000004,None,None,,639.4017838999998,640.5869003000007,0.5110930000000735,0.5946255999997447,1.7129398999995828,1.79620419999992,,,,,lucie_2,001,2020_Feb_06_1329,posner,3.1.5,59.990449520171325,
-0.5,0,1,left,1,3,2,0,2,0,8,4,68,0,,,,,,,,,640.8045327999998,641.3045431999999,642.0220029000002,None,641.3210921,642.0055503000003,642.5227239000005,643.0069223,left,1,0.5177825999999186,642.5227239000005,None,None,,641.3210921,642.5061345000004,0.511703099999977,0.5949829000001046,1.7132802999994965,1.7967382999995607,,,,,lucie_2,001,2020_Feb_06_1329,posner,3.1.5,59.990449520171325,
0.5,180,1,right,2,4,2,0,2,0,8,5,69,6,,,,,,,,,643.0572054000004,643.5577124000001,644.2751683000006,None,643.5741962000002,644.2588034,644.7760653000005,None,right,1,0.22457239999948797,644.7760653000005,None,right,0.9223608000002059,643.5741962000002,644.7592883000007,0.5116698000001634,0.5948546000008719,1.713235700000041,1.796550400000342,,,,,lucie_2,001,2020_Feb_06_1329,posner,3.1.5,59.990449520171325,
-0.5,0,1,left,1,3,2,0,2,0,8,6,70,1,,,,,,,,,645.0266070000007,645.5269655000002,646.2446712000001,None,645.5435850000003,646.2281510000003,646.7453679999999,None,left,1,0.23945069999990665,646.7453679999999,None,None,,645.5435850000003,646.7287144000002,0.5118725000002087,0.5952934999995705,1.7135997999994288,1.7968558000002304,,,,,lucie_2,001,2020_Feb_06_1329,posner,3.1.5,59.990449520171325,
0.5,180,1,right,2,4,2,0,2,0,8,7,71,7,,,,,,,,,647.0132279,647.5129396000002,648.2305870999999,None,647.5296259000006,648.2143221000006,648.7312480999999,None,right,1,0.05329799999981333,648.7312480999999,None,None,,647.5296259000006,648.7148791999998,0.5116656999998668,0.5948104999997668,1.7132939999992232,1.7967760999999882,,,,,lucie_2,001,2020_Feb_06_1329,posner,3.1.5,59.990449520171325,
-0.5,0,1,left,1,3,2,0,2,0,9,0,72,2,,,,,,,,,648.8155895,649.3156423999999,650.0331057000003,None,649.3320199,650.0164675000005,650.5337669,None,left,1,0.13086759999987407,650.5337669,None,None,,649.3320199,650.5171926000003,0.5115180999991935,0.595007999999325,1.7130544999999984,1.796315599999616,,,,,lucie_2,001,2020_Feb_06_1329,posner,3.1.5,59.990449520171325,
