targetX,cueOri,congr,corrAns,pin_cue,pin_target,block.thisRepN,block.thisTrialN,block.thisN,block.thisIndex,posner_task.thisRepN,posner_task.thisTrialN,posner_task.thisN,posner_task.thisIndex,port_start_block.started,port_start_block.stopped,text_2.started,text_2.stopped,p_port.started,p_port.stopped,text.started,text.stopped,fixation_1.started,fixation_1.stopped,fixation_2.started,fixation_2.stopped,cue.started,cue.stopped,target.started,target.stopped,correct_key_resp.keys,correct_key_resp.corr,correct_key_resp.rt,correct_key_resp.started,correct_key_resp.stopped,early_resp.keys,early_resp.started,early_resp.stopped,trigger_cue.started,trigger_cue.stopped,trigger_target.started,trigger_target.stopped,early_resp.rt,break_text.started,break_text.stopped,end_port.started,end_port.stopped,participant,session,date,expName,psychopyVersion,frameRate,
0.5,180,1,right,2,4,0,0,0,0,0,0,0,7,1.7800000023271423e-05,0.10167450000062672,18.77222720000009,None,1.359999987471383e-05,0.09940920000008191,20.65782500000023,None,20.998319999999694,21.509147900000244,22.209838700000546,None,21.509147900000244,22.209838700000546,22.710586899999726,None,right,1,0.40214970000033645,22.710586899999726,None,None,21.509147900000244,22.694288900000174,0.5031046000003698,0.6035398000003624,1.7051369999999224,1.7882928000008178,,,,,,katie_3,001,2020_Jan_30_1232,posner,3.1.5,60.02127153891268,
-0.5,0,1,left,1,3,0,0,0,0,0,1,1,0,,,,,,,,,23.129363600000033,23.628533099999913,24.346207200000208,None,23.645351699999992,24.329541600000084,24.847064800000226,None,left,1,0.3376572999995915,24.847064800000226,None,None,23.645351699999992,24.830242799999724,0.5102123000006031,0.5938164999997753,1.711903500000517,1.7954170000002705,,,,,,katie_3,001,2020_Jan_30_1232,posner,3.1.5,60.02127153891268,
0.5,180,1,right,2,4,0,0,0,0,0,2,2,5,,,,,,,,,25.214583400000265,25.715061300000343,26.432529200000317,None,25.731391500000427,26.41580040000008,26.933340200000202,None,right,1,0.3314786000000822,26.933340200000202,None,None,25.731391500000427,26.91651290000027,0.5119002999999793,0.5948871000000509,1.7133378999997149,1.7967294999998558,,,,,,katie_3,001,2020_Jan_30_1232,posner,3.1.5,60.02127153891268,
0.5,0,0,right,1,4,0,0,0,0,0,3,3,3,,,,,,,,,27.28462970000055,27.784317499999815,28.50189820000014,None,27.80117700000028,28.48532040000009,29.002822800000104,None,right,1,0.4060443000007581,29.002822800000104,None,None,27.80117700000028,28.985906599999907,0.5114486000002216,0.5948063000005277,1.7130205000003116,1.7964621000000989,,,,,,katie_3,001,2020_Jan_30_1232,posner,3.1.5,60.02127153891268,
-0.5,0,1,left,1,3,0,0,0,0,0,4,4,2,,,,,,,,,29.437127500000315,29.937138700000105,30.65508299999965,None,29.954214299999876,30.63817569999992,31.15556579999975,None,left,1,0.4610309999998208,31.15556579999975,None,None,29.954214299999876,31.13879799999995,0.5114961999997831,0.5952831000004153,1.7131411999998818,1.7967935999995461,,,,,,katie_3,001,2020_Jan_30_1232,posner,3.1.5,60.02127153891268,
0.5,180,1,right,2,4,0,0,0,0,0,5,5,6,,,,,,,,,31.640331600000536,32.140493300000344,32.85774730000048,None,32.15678939999998,32.8413300000002,33.35853370000041,31.640331600000536,right,1,0.3862351999996463,33.35853370000041,None,None,32.15678939999998,33.342079199999716,0.5117784000003667,0.5949931000004653,1.7133490000005622,1.7969609000001583,,,,,,katie_3,001,2020_Jan_30_1232,posner,3.1.5,60.02127153891268,
-0.5,180,0,left,2,3,0,0,0,0,0,6,6,4,,,,,,,,,33.77623510000012,34.27664090000053,34.9942946000001,None,34.293294300000525,34.97774279999976,35.49505940000017,None,left,1,0.43371449999995093,35.49505940000017,None,None,34.293294300000525,35.478382299999794,0.5115605999999389,0.5948897999996916,1.7132819999997082,1.7967174999994313,,,,,,katie_3,001,2020_Jan_30_1232,posner,3.1.5,60.02127153891268,
-0.5,0,1,left,1,3,0,0,0,0,0,7,7,1,,,,,,,,,35.946476000000075,36.44609440000022,37.16392999999971,None,36.462979599999926,37.14706910000041,37.66459140000006,None,left,1,0.3521176000003834,37.66459140000006,None,None,36.462979599999926,37.64776760000041,0.5112275999999838,0.5946231000007174,1.7128824999999779,1.7963861000007455,,,,,,katie_3,001,2020_Jan_30_1232,posner,3.1.5,60.02127153891268,
-0.5,0,1,left,1,3,0,0,0,0,1,0,8,2,,,,,,,,,38.032481400000506,38.53245700000025,39.2501256000005,None,38.54906910000045,39.233566099999734,39.75088330000017,None,left,1,0.329765800000132,39.75088330000017,None,None,38.54906910000045,39.73414950000006,0.5116206000002421,0.5950544999996055,1.713295599999583,1.796564600000238,,,,,,katie_3,001,2020_Jan_30_1232,posner,3.1.5,60.02127153891268,
-0.5,180,0,left,2,3,0,0,0,0,1,1,9,4,,,,,,,,,40.10234169999967,40.60211739999977,41.31955670000025,None,40.618503200000305,41.302963300000556,41.82066459999987,None,left,1,0.39598170000044774,41.82066459999987,None,None,40.618503200000305,41.80361280000034,0.5114720000001398,0.5948684000004505,1.7129543999999441,1.796439100000498,,,,,,katie_3,001,2020_Jan_30_1232,posner,3.1.5,60.02127153891268,
0.5,0,0,right,1,4,0,0,0,0,1,2,10,3,,,,,,,,,42.23761879999984,42.73881150000034,43.455973000000085,None,42.7551782999999,43.43925300000046,43.956756499999756,None,right,1,0.4038514000003488,43.956756499999756,None,None,42.7551782999999,43.939900899999884,0.5121494000004532,0.5951896000005945,1.713217700000314,1.7967033000004449,,,,,,katie_3,001,2020_Jan_30_1232,posner,3.1.5,60.02127153891268,
0.5,180,1,right,2,4,0,0,0,0,1,3,11,5,,,,,,,,,44.39096719999998,44.89130110000042,45.60881440000048,None,44.90778539999974,45.59239020000041,46.109395100000256,None,right,1,0.45920849999947677,46.109395100000256,None,None,44.90778539999974,46.092722200000026,0.5117220000001907,0.5951817000004667,1.7131306000001132,1.7966286000000764,,,,,,katie_3,001,2020_Jan_30_1232,posner,3.1.5,60.02127153891268,
-0.5,0,1,left,1,3,0,0,0,0,1,4,12,0,,,,,,,,,46.59419369999978,47.094113400000424,47.81191839999974,None,47.111009600000216,47.79516909999984,48.312474600000314,46.59419369999978,left,1,0.38420120000046154,48.312474600000314,None,None,47.111009600000216,48.29597770000055,0.5114172000003236,0.5948120000002746,1.7132600000004459,1.7963951000001543,,,,,,katie_3,001,2020_Jan_30_1232,posner,3.1.5,60.02127153891268,
0.5,180,1,right,2,4,0,0,0,0,1,5,13,7,,,,,,,,,48.71381190000011,49.213826600000175,49.93142929999976,None,49.230637800000295,49.914662500000304,50.43218429999979,None,right,1,0.36849480000000767,50.43218429999979,None,None,49.230637800000295,50.41547629999968,0.5114138999997522,0.594865199999731,1.7130398999997851,1.7963976999999431,,,,,,katie_3,001,2020_Jan_30_1232,posner,3.1.5,60.02127153891268,
-0.5,0,1,left,1,3,0,0,0,0,1,6,14,1,,,,,,,,,50.81631440000001,51.316665600000306,52.03466399999979,None,51.333386999999675,52.017655900000136,52.535179000000426,None,left,1,0.3294126000000688,52.535179000000426,None,None,51.333386999999675,52.518321800000194,0.5120305000000371,0.5956404999997176,1.71367089999967,1.7972523999997065,,,,,,katie_3,001,2020_Jan_30_1232,posner,3.1.5,60.02127153891268,
0.5,180,1,right,2,4,0,0,0,0,1,7,15,6,,,,,,,,,52.88621210000019,53.386277399999926,54.10404000000017,None,53.40305950000038,54.087487100000544,54.60465230000045,None,right,1,0.4039715000008073,54.60465230000045,None,None,53.40305950000038,54.58809199999996,0.5113042999992103,0.5946825999999419,1.7131044999996448,1.796318199999405,,,,,,katie_3,001,2020_Jan_30_1232,posner,3.1.5,60.02127153891268,
-0.5,180,0,left,2,3,0,0,0,0,2,0,16,4,,,,,,,,,55.03876229999969,55.538863499999934,56.25662730000022,None,55.55581799999982,56.2403675000005,56.75731470000028,None,left,1,0.43527999999969325,56.75731470000028,None,None,55.55581799999982,56.741036899999926,0.5112609999996494,0.5952594000000317,1.7134130000004006,1.7968479000001025,,,,,,katie_3,001,2020_Jan_30_1232,posner,3.1.5,60.02127153891268,
-0.5,0,1,left,1,3,0,0,0,0,2,1,17,0,,,,,,,,,57.20919060000051,57.708837199999834,58.42650500000036,None,57.72554519999994,58.40967759999967,58.92726500000026,None,left,1,0.3773620000001756,58.92726500000026,None,None,57.72554519999994,58.91057929999988,0.5114158000005773,0.5947753000000375,1.7131306999999651,1.7965372000007847,,,,,,katie_3,001,2020_Jan_30_1232,posner,3.1.5,60.02127153891268,
0.5,180,1,right,2,4,0,0,0,0,2,2,18,6,,,,,,,,,59.32852819999971,59.82834019999973,60.54610419999972,None,59.845271799999864,60.52923069999997,61.04669170000034,None,right,1,0.3938458000002356,61.04669170000034,None,None,59.845271799999864,61.030029300000024,0.5115212000000611,0.5951783000000432,1.7131877000001623,1.796667200000229,,,,,,katie_3,001,2020_Jan_30_1232,posner,3.1.5,60.02127153891268,
0.5,0,0,right,1,4,0,0,0,0,2,3,19,3,,,,,,,,,61.464283799999976,61.9648631,62.68225840000014,None,61.98127190000014,62.66579060000004,63.1831787000001,None,right,1,0.393318200000067,63.1831787000001,None,None,61.98127190000014,63.16638570000032,0.5120937000001504,0.5950975000005201,1.7135949000003166,1.7968557000003784,,,,,,katie_3,001,2020_Jan_30_1232,posner,3.1.5,60.02127153891268,
0.5,180,1,right,2,4,0,0,0,0,2,4,20,5,,,,,,,,,63.60075299999971,64.10095180000008,64.81849409999995,None,64.11752499999966,64.80218119999972,65.31923970000025,None,right,1,0.40127560000019,65.31923970000025,None,None,64.11752499999966,65.30265880000024,0.5121527999999671,0.5958049999999275,1.7138345000003028,1.7972066000002087,,,,,,katie_3,001,2020_Jan_30_1232,posner,3.1.5,60.02127153891268,
-0.5,0,1,left,1,3,0,0,0,0,2,5,21,2,,,,,,,,,65.73732050000035,66.2369993000002,66.95499689999997,None,66.25394810000034,66.93817190000027,67.4555363999998,67.93956160000016,left,1,0.4809447000006912,67.4555363999998,None,None,66.25394810000034,67.43881800000054,0.5114088999998785,0.5951237999997829,1.7132136000000173,1.796702799999366,,,,,,katie_3,001,2020_Jan_30_1232,posner,3.1.5,60.02127153891268,
-0.5,0,1,left,1,3,0,0,0,0,2,6,22,1,,,,,,,,,67.9569806999998,68.45685370000047,69.17460430000028,None,68.47350329999972,69.15769590000036,69.67543660000047,None,left,1,0.4690937000004851,69.67543660000047,None,None,68.47350329999972,69.65862949999973,0.511432700000114,0.5949239999999918,1.7131964999998672,1.7965112000001682,,,,,,katie_3,001,2020_Jan_30_1232,posner,3.1.5,60.02127153891268,
0.5,180,1,right,2,4,0,0,0,0,2,7,23,7,,,,,,,,,70.16016990000026,70.66016320000017,71.37756210000043,None,70.67663360000006,71.36099430000013,71.87821429999985,70.16016990000026,right,1,0.2984598000002734,71.87821429999985,None,None,70.67663360000006,71.86152349999975,0.5117935000007492,0.5951860000004672,1.7131328000004942,1.7966943999999785,,,,,,katie_3,001,2020_Jan_30_1232,posner,3.1.5,60.02127153891268,
0.5,180,1,right,2,4,0,0,0,0,3,0,24,6,,,,,,,,,72.19623899999988,72.69601070000044,73.41391219999969,None,72.71295970000028,73.39693360000001,73.91456079999989,None,right,1,0.3501036000006934,73.91456079999989,None,None,72.71295970000028,73.89777279999998,0.5115212000000611,0.5950341999996454,1.7132651000001715,1.7968433999994886,,,,,,katie_3,001,2020_Jan_30_1232,posner,3.1.5,60.02127153891268,
-0.5,0,1,left,1,3,0,0,0,0,3,1,25,0,,,,,,,,,74.28285320000032,74.78235080000013,75.49983049999992,None,74.7989733000004,75.4832150000002,76.00061300000016,None,left,1,0.455949099999998,76.00061300000016,None,None,74.7989733000004,75.98390399999971,0.5113488999995752,0.5948306999998749,1.7128788999998505,1.796374399999877,,,,,,katie_3,001,2020_Jan_30_1232,posner,3.1.5,60.02127153891268,
0.5,0,0,right,1,4,0,0,0,0,3,2,26,3,,,,,,,,,76.48536710000008,76.98539609999989,77.70305850000022,None,77.00190079999993,77.68623149999985,78.20386849999977,76.48536710000008,right,1,0.4526654999999664,78.20386849999977,None,None,77.00190079999993,78.18688819999988,0.5117503000001307,0.5951539999996385,1.7132283999999345,1.796795100000054,,,,,,katie_3,001,2020_Jan_30_1232,posner,3.1.5,60.02127153891268,
-0.5,180,0,left,2,3,0,0,0,0,3,3,27,4,,,,,,,,,78.68809340000007,79.18823739999971,79.90608750000047,None,79.2050436999998,79.88935769999989,80.40653720000046,78.68809340000007,left,1,0.41786380000030476,80.40653720000046,None,None,79.2050436999998,80.39010830000007,0.5116666000003534,0.59529670000029,1.7135151000002224,1.7967857000003278,,,,,,katie_3,001,2020_Jan_30_1232,posner,3.1.5,60.02127153891268,
0.5,180,1,right,2,4,0,0,0,0,3,4,28,5,,,,,,,,,80.84144769999966,81.34127540000009,82.05887369999982,None,81.35793990000002,82.04224450000038,82.55959410000014,None,right,1,0.368913799999973,82.55959410000014,None,None,81.35793990000002,82.54290330000003,0.5116617000003316,0.595282600000246,1.7132648000006157,1.7967435000000478,,,,,,katie_3,001,2020_Jan_30_1232,posner,3.1.5,60.02127153891268,
-0.5,0,1,left,1,3,0,0,0,0,3,5,29,2,,,,,,,,,82.94435580000027,83.44433949999984,84.16208559999995,None,83.46088080000027,84.14522750000015,84.66268649999984,85.14637279999988,left,1,0.5937804000004689,84.66268649999984,None,None,83.46088080000027,84.64589570000044,0.5115821999997934,0.594855400000597,1.7131241000006412,1.796389199999794,,,,,,katie_3,001,2020_Jan_30_1232,posner,3.1.5,60.02127153891268,
-0.5,0,1,left,1,3,0,0,0,0,3,6,30,1,,,,,,,,,85.28044810000029,85.78079499999967,86.49827770000047,None,85.79746119999982,86.48171699999966,86.99908370000048,None,left,1,0.40134109999962675,86.99908370000048,None,None,85.79746119999982,86.98249060000035,0.5122136999998474,0.5956662999997206,1.7138855000002877,1.7973143999997774,,,,,,katie_3,001,2020_Jan_30_1232,posner,3.1.5,60.02127153891268,
0.5,180,1,right,2,4,0,0,0,0,3,7,31,7,,,,,,,,,87.41749380000056,87.91679980000026,88.634951,None,87.93376499999977,88.61799960000008,89.13530859999992,None,right,1,0.3851123999993433,89.13530859999992,None,None,87.93376499999977,89.11867540000003,0.5111575999999332,0.5949215999999069,1.7130180000003747,1.7964799000001221,,,,,,katie_3,001,2020_Jan_30_1232,posner,3.1.5,60.02127153891268,
-0.5,0,1,left,1,3,0,0,0,0,4,0,32,1,,,,,,,,,89.53659059999973,90.03648640000029,90.75455440000042,None,90.05342430000019,90.73753029999989,91.25505489999978,None,left,1,0.3373256999993828,91.25505489999978,None,None,90.05342430000019,91.23829019999994,0.5114493999999468,0.5949529999998049,1.713241100000232,1.7969057999998768,,,,,,katie_3,001,2020_Jan_30_1232,posner,3.1.5,60.02127153891268,
-0.5,0,1,left,1,3,0,0,0,0,4,1,33,0,,,,,,,,,91.62246899999991,92.12283389999993,92.84039490000032,None,92.13944509999965,92.82365870000012,93.34137639999972,93.82528019999972,left,1,0.5710140999999567,93.34137639999972,None,None,92.13944509999965,93.32459459999973,0.5116467000007106,0.5950964000003296,1.7133934000003137,1.7964873000000807,,,,,,katie_3,001,2020_Jan_30_1232,posner,3.1.5,60.02127153891268,
-0.5,0,1,left,1,3,0,0,0,0,4,2,34,2,,,,,,,,,93.94252090000009,94.44291609999982,95.16035980000015,None,94.45938209999986,95.1436732000002,95.66117740000027,None,left,1,0.4193101000000752,95.66117740000027,None,None,94.45938209999986,95.64444300000014,0.5115407000002961,0.5946505000001707,1.7130495999999766,1.7964695999999094,,,,,,katie_3,001,2020_Jan_30_1232,posner,3.1.5,60.02127153891268,
0.5,180,1,right,2,4,0,0,0,0,4,3,35,6,,,,,,,,,96.11226970000007,96.61225680000007,97.33005709999998,None,96.62896580000051,97.31350070000008,97.83070120000048,98.31482700000015,right,1,0.7777247999993051,97.83070120000048,None,None,96.62896580000051,97.81403969999974,0.5113951000002999,0.5949606000003769,1.713155899999947,1.7964137000008122,,,,,,katie_3,001,2020_Jan_30_1232,posner,3.1.5,60.02127153891268,
0.5,180,1,right,2,4,0,0,0,0,4,4,36,5,,,,,,,,,98.63238480000018,99.1325281999998,99.85047440000017,None,99.1491390000001,99.83338569999978,100.35100919999968,100.83483010000054,right,1,0.7373505000005025,100.35100919999968,None,None,99.1491390000001,100.3342859000004,0.5117329000004247,0.5949994000002334,1.7134636000000683,1.7967851000003066,,,,,,katie_3,001,2020_Jan_30_1232,posner,3.1.5,60.02127153891268,
-0.5,180,0,left,2,3,0,0,0,0,4,5,37,4,,,,,,,,,101.11901360000047,101.61924210000052,102.33670559999973,None,101.63570230000005,102.32038120000016,102.83754130000034,None,left,1,0.41070159999981115,102.83754130000034,None,None,101.63570230000005,102.82091779999973,0.5116729000001214,0.594966700000441,1.7133309000000736,1.796764599999733,,,,,,katie_3,001,2020_Jan_30_1232,posner,3.1.5,60.02127153891268,
0.5,0,0,right,1,4,0,0,0,0,4,6,38,3,,,,,,,,,103.2716562000005,103.77227810000022,104.48989429999983,None,103.78879529999995,104.4732724000005,104.99067650000052,105.47469000000001,left,0,0.6338591000003362,104.99067650000052,None,None,103.78879529999995,104.97381909999967,0.5115951999996469,0.5948132999992595,1.713119000000006,1.796295199999804,,,,,,katie_3,001,2020_Jan_30_1232,posner,3.1.5,60.02127153891268,
0.5,180,1,right,2,4,0,0,0,0,4,7,39,7,,,,,,,,,105.64226959999996,106.14222590000008,106.85968709999997,None,106.15879490000043,106.84298540000054,107.36047950000011,None,right,1,0.39190419999977166,107.36047950000011,None,None,106.15879490000043,107.34377330000007,0.5115827999998146,0.5950659999998607,1.7131035000002157,1.79636550000032,,,,,,katie_3,001,2020_Jan_30_1232,posner,3.1.5,60.02127153891268,
-0.5,180,0,left,2,3,0,0,0,0,5,0,40,4,,,,,,,,,107.77812660000018,108.27810339999996,108.99600850000024,None,108.29515050000009,108.97917940000025,109.49653949999993,None,left,1,0.36785760000020673,109.49653949999993,None,None,108.29515050000009,109.48008010000012,0.5112201000001733,0.5950007999999798,1.7131798000000344,1.796574199999668,,,,,,katie_3,001,2020_Jan_30_1232,posner,3.1.5,60.02127153891268,
0.5,180,1,right,2,4,0,0,0,0,5,1,41,7,,,,,,,,,109.88098979999995,110.38123900000028,111.09884440000042,None,110.39776799999981,111.08225390000007,111.59966450000047,None,right,1,0.3687686000002941,111.59966450000047,None,None,110.39776799999981,111.58289229999991,0.5122427999995125,0.5956606999998257,1.713876299999356,1.7973365999996531,,,,,,katie_3,001,2020_Jan_30_1232,posner,3.1.5,60.02127153891268,
-0.5,0,1,left,1,3,0,0,0,0,5,2,42,2,,,,,,,,,111.98427410000022,112.48431479999999,113.20198299999993,None,112.50089469999966,113.1851016999999,113.70256080000036,None,left,1,0.32973110000057204,113.70256080000036,None,None,112.50089469999966,113.6859556999998,0.5116958000007799,0.5949815000003582,1.7133214000004955,1.796575600000324,,,,,,katie_3,001,2020_Jan_30_1232,posner,3.1.5,60.02127153891268,
-0.5,0,1,left,1,3,0,0,0,0,5,3,43,1,,,,,,,,,114.05349300000034,114.55377719999979,115.27140950000012,None,114.5704624,115.25493929999993,115.77200670000002,None,left,1,0.36444870000013907,115.77200670000002,None,None,114.5704624,115.75535159999981,0.5117017000002306,0.5949498999998468,1.7132646999998542,1.79664479999974,,,,,,katie_3,001,2020_Jan_30_1232,posner,3.1.5,60.02127153891268,
0.5,180,1,right,2,4,0,0,0,0,5,4,44,5,,,,,,,,,116.1560526000003,116.65634399999999,117.37419399999999,None,116.6732019000001,117.35737289999997,117.87482170000021,118.35888580000028,right,1,0.5336644999997588,117.87482170000021,None,None,116.6732019000001,117.85795959999996,0.5113923999997496,0.5953134000001228,1.7129886000002443,1.796658899999784,,,,,,katie_3,001,2020_Jan_30_1232,posner,3.1.5,60.02127153891268,
-0.5,0,1,left,1,3,0,0,0,0,5,5,45,0,,,,,,,,,118.4263278999997,118.92638640000041,119.64383660000021,None,118.94337030000042,119.62728229999993,120.14488809999966,120.62876190000043,left,1,0.9514039000005141,120.14488809999966,None,None,118.94337030000042,120.12793260000035,0.5115273000001253,0.5949657000001025,1.7130637000000206,1.7967011000000639,,,,,,katie_3,001,2020_Jan_30_1232,posner,3.1.5,60.02127153891268,
0.5,0,0,right,1,4,0,0,0,0,5,6,46,3,,,,,,,,,121.1133189000002,121.61330869999983,122.33124800000041,None,121.63005659999999,122.31431450000036,122.83170270000028,123.31557820000035,right,1,0.6568172999996023,122.83170270000028,None,None,121.63005659999999,122.81517840000015,0.5115691000000879,0.5951125000001412,1.713441299999431,1.7965887999998813,,,,,,katie_3,001,2020_Jan_30_1232,posner,3.1.5,60.02127153891268,
0.5,180,1,right,2,4,0,0,0,0,5,7,47,6,,,,,,,,,123.51630800000021,124.01652399999966,124.73436169999968,None,124.03342729999986,124.7174614000005,125.23519570000008,None,right,1,0.34112069999991945,125.23519570000008,None,None,124.03342729999986,125.21841120000045,0.5119545999996262,0.5956490999997186,1.7138235000002169,1.797056899999916,,,,,,katie_3,001,2020_Jan_30_1232,posner,3.1.5,60.02127153891268,
-0.5,0,1,left,1,3,0,0,0,0,6,0,48,2,,,,,,,,,125.6025294000001,126.10310389999995,126.8208609000003,None,126.11942890000046,126.80420380000032,127.32139569999981,None,left,1,0.32699330000014015,127.32139569999981,None,None,126.11942890000046,127.30448239999987,0.5124711999997089,0.5955047999996168,1.7138377000001128,1.7972693000001527,,,,,,katie_3,001,2020_Jan_30_1232,posner,3.1.5,60.02127153891268,
-0.5,180,0,left,2,3,0,0,0,0,6,1,49,4,,,,,,,,,127.67243430000053,128.1725163000001,128.89021330000014,None,128.18909929999973,128.8733669000003,129.39092129999972,129.87477070000023,left,1,0.6253989000006186,129.39092129999972,None,None,128.18909929999973,129.37416800000028,0.5115547999994305,0.5950007000001278,1.7131917999995494,1.7964751999998043,,,,,,katie_3,001,2020_Jan_30_1232,posner,3.1.5,60.02127153891268,
0.5,0,0,right,1,4,0,0,0,0,6,2,50,3,,,,,,,,,130.04249189999973,130.54240519999985,131.25993070000004,None,130.55899279999994,131.2433664,131.76097690000006,None,right,1,0.43135590000019874,131.76097690000006,None,None,130.55899279999994,131.7440932999998,0.5115324999997028,0.5948190999997678,1.7131964999998672,1.7964483999994627,,,,,,katie_3,001,2020_Jan_30_1232,posner,3.1.5,60.02127153891268,
0.5,180,1,right,2,4,0,0,0,0,6,3,51,6,,,,,,,,,132.21244339999976,132.71220059999996,133.4295221000002,None,132.72859299999982,133.41299479999998,133.93050219999986,None,right,1,0.42166420000012295,133.93050219999986,None,None,132.72859299999982,133.91392240000005,0.5115537000001495,0.5947302000004129,1.713258499999938,1.7963282000000618,,,,,,katie_3,001,2020_Jan_30_1232,posner,3.1.5,60.02127153891268,
-0.5,0,1,left,1,3,0,0,0,0,6,4,52,0,,,,,,,,,134.38180139999986,134.8815282000005,135.59937549999995,None,134.89816189999965,135.58257870000034,136.10006340000018,136.58420240000032,left,1,0.5722034000000349,136.10006340000018,None,None,134.89816189999965,136.0833886999999,0.5112288000000262,0.5951529000003575,1.7130692999999155,1.7966293999998015,,,,,,katie_3,001,2020_Jan_30_1232,posner,3.1.5,60.02127153891268,
0.5,180,1,right,2,4,0,0,0,0,6,5,53,5,,,,,,,,,136.70150590000048,137.20139650000056,137.91907919999994,None,137.2180257,137.90261120000014,138.41990669999996,None,right,1,0.3164539999997942,138.41990669999996,None,None,137.2180257,138.4033485,0.5113688999999795,0.5950877000004766,1.7133015999997951,1.796385100000407,,,,,,katie_3,001,2020_Jan_30_1232,posner,3.1.5,60.02127153891268,
0.5,180,1,right,2,4,0,0,0,0,6,6,54,7,,,,,,,,,138.75467670000035,139.25434849999965,139.97196619999977,None,139.27121140000054,139.95536040000025,140.47276190000048,None,right,1,0.35152649999963614,140.47276190000048,None,None,139.27121140000054,140.4558877999998,0.5113372999994681,0.5946037999992768,1.71286389999932,1.7964789999996356,,,,,,katie_3,001,2020_Jan_30_1232,posner,3.1.5,60.02127153891268,
-0.5,0,1,left,1,3,0,0,0,0,6,7,55,1,,,,,,,,,140.84082020000005,141.3407858999999,142.05811079999967,None,141.35714759999973,142.0415856999998,142.5590213000005,None,left,1,0.3691800999995394,142.5590213000005,None,None,141.35714759999973,142.54235080000035,0.5117191999997885,0.5950428999994983,1.7132893999996668,1.796567999999752,,,,,,katie_3,001,2020_Jan_30_1232,posner,3.1.5,60.02127153891268,
-0.5,0,1,left,1,3,0,0,0,0,7,0,56,2,,,,,,,,,142.95998419999978,143.46030880000035,144.17790220000006,None,143.47673810000015,144.16114000000016,144.67846180000015,145.16263600000002,left,1,0.5297719999998662,144.67846180000015,None,None,143.47673810000015,144.6618165,0.5119461000003867,0.5951358000002074,1.7134304000001066,1.79693430000043,,,,,,katie_3,001,2020_Jan_30_1232,posner,3.1.5,60.02127153891268,
-0.5,180,0,left,2,3,0,0,0,0,7,1,57,4,,,,,,,,,145.23020389999965,145.72976720000042,146.44741390000036,None,145.74656870000035,146.4309132999997,146.9482293000001,None,left,1,0.37999409999974887,146.9482293000001,None,None,145.74656870000035,146.93163110000023,0.5112677999995867,0.5949187999995047,1.7131195000001753,1.7964104000002408,,,,,,katie_3,001,2020_Jan_30_1232,posner,3.1.5,60.02127153891268,
0.5,180,1,right,2,4,0,0,0,0,7,2,58,6,,,,,,,,,147.34955020000052,147.84952309999971,148.56704009999976,None,147.86621579999974,148.55060969999977,149.06776869999976,149.55184100000042,right,1,0.8604542999992191,149.06776869999976,None,None,147.86621579999974,149.05133120000028,0.5115192000002935,0.5950256000005538,1.7133012000003873,1.7964857000006305,,,,,,katie_3,001,2020_Jan_30_1232,posner,3.1.5,60.02127153891268,
0.5,180,1,right,2,4,0,0,0,0,7,3,59,5,,,,,,,,,149.95315409999967,150.4531893000003,151.17084400000022,None,150.46975639999982,151.15415230000053,151.67137939999975,152.15546619999986,None,0,,151.67137939999975,None,None,150.46975639999982,151.6548832999997,0.511637100000371,0.5949828000002526,1.7133079000004727,1.7966378000000987,,,,,,katie_3,001,2020_Jan_30_1232,posner,3.1.5,60.02127153891268,
0.5,0,0,right,1,4,0,0,0,0,7,4,60,3,,,,,,,,,152.65619119999974,153.1567242000001,153.87457460000041,152.65619119999974,153.1735633999997,153.85767430000033,154.37521600000036,None,right,1,0.39306740000029095,154.37521600000036,None,None,153.1735633999997,154.35831580000013,0.5138039000003118,0.597498799999812,1.715376400000423,1.7989558999997826,,,,,,katie_3,001,2020_Jan_30_1232,posner,3.1.5,60.02127153891268,
-0.5,0,1,left,1,3,0,0,0,0,7,5,61,0,,,,,,,,,154.7930876999999,155.2932284999997,156.01088570000047,None,155.3098474999997,155.99422090000007,156.5116048,None,left,1,0.41674479999983305,156.5116048,None,None,155.3098474999997,156.4948857999998,0.5117185999997673,0.5949196999999913,1.7133601999994426,1.7964216000000306,,,,,,katie_3,001,2020_Jan_30_1232,posner,3.1.5,60.02127153891268,
0.5,180,1,right,2,4,0,0,0,0,7,6,62,7,,,,,,,,,156.94610720000037,157.4460153,158.1638008,None,157.46280649999972,158.14690619999965,158.6644385999998,None,right,1,0.41583840000021155,158.6644385999998,None,None,157.46280649999972,158.6476186,0.5114438000000519,0.5947627999994438,1.7130348000000595,1.7966172999995251,,,,,,katie_3,001,2020_Jan_30_1232,posner,3.1.5,60.02127153891268,
-0.5,0,1,left,1,3,0,0,0,0,7,7,63,1,,,,,,,,,159.09893569999986,159.59911439999996,160.3165270999998,None,159.61581690000003,160.30020520000016,160.81739500000003,161.30135530000007,left,1,0.8790552999998908,160.81739500000003,None,None,159.61581690000003,160.80092260000038,0.51150940000025,0.5947765999999319,1.7132947000000058,1.7965977000003477,,,,,,katie_3,001,2020_Jan_30_1232,posner,3.1.5,60.02127153891268,
-0.5,180,0,left,2,3,0,0,0,0,8,0,64,4,,,,,,,,,161.71941229999993,162.2189698000002,162.93677130000015,None,162.23583580000013,162.92035060000035,163.43704030000026,163.92163320000054,left,1,0.7229925000001458,163.43704030000026,None,None,162.23583580000013,163.42094550000002,0.5110575000007884,0.5947845000000598,1.7129983000004358,1.7964321000008567,,,,,,katie_3,001,2020_Jan_30_1232,posner,3.1.5,60.02127153891268,
-0.5,0,1,left,1,3,0,0,0,0,8,1,65,1,,,,,,,,,164.18905929999983,164.6892988999998,165.40689010000006,None,164.70589440000003,165.39042530000006,165.9075603000001,166.39174430000003,None,0,,165.9075603000001,None,None,164.70589440000003,165.89097599999968,0.5115046999999322,0.5951697000000422,1.7131648999993558,1.7968648999994912,,,,,,katie_3,001,2020_Jan_30_1232,posner,3.1.5,60.02127153891268,
-0.5,0,1,left,1,3,0,0,0,0,8,2,66,0,,,,,,,,,166.89233179999974,167.39306839999972,168.11058070000036,166.89233179999974,167.4099729999998,168.09399550000035,168.61149260000002,None,left,1,0.39681759999984934,168.61149260000002,None,None,167.4099729999998,168.59460240000044,0.5137064999998984,0.5969736999995803,1.7152286999998978,1.7986125999996148,,,,,,katie_3,001,2020_Jan_30_1232,posner,3.1.5,60.02127153891268,
0.5,0,0,right,1,4,0,0,0,0,8,3,67,3,,,,,,,,,169.02934350000032,169.52929810000023,170.2468472999999,None,169.54596390000006,170.2304912999998,170.7475768000004,None,right,1,0.38888609999958135,170.7475768000004,None,None,169.54596390000006,170.7309581999998,0.5115456999992603,0.5950558999993518,1.7131512999994811,1.7965508999996018,,,,,,katie_3,001,2020_Jan_30_1232,posner,3.1.5,60.02127153891268,
0.5,180,1,right,2,4,0,0,0,0,8,4,68,5,,,,,,,,,171.1654626999998,171.66576739999982,172.38320360000034,None,171.68231819999983,172.36653250000018,172.88412049999988,None,right,1,0.4122174999993149,172.88412049999988,None,None,171.68231819999983,172.86713750000035,0.5118007999999463,0.595165800000359,1.7131574000004548,1.796857799999998,,,,,,katie_3,001,2020_Jan_30_1232,posner,3.1.5,60.02127153891268,
0.5,180,1,right,2,4,0,0,0,0,8,5,69,6,,,,,,,,,173.31904740000027,173.81866609999997,174.53598150000016,None,173.8351485000003,174.51977290000013,175.03697040000043,None,right,1,0.3951617000002443,175.03697040000043,None,None,173.8351485000003,175.0201487000004,0.5114293000006,0.594790600000124,1.7128944000005504,1.7964466000003085,,,,,,katie_3,001,2020_Jan_30_1232,posner,3.1.5,60.02127153891268,
0.5,180,1,right,2,4,0,0,0,0,8,6,70,7,,,,,,,,,175.45455020000009,175.95481410000048,176.67246580000028,None,175.97153810000054,176.65574149999975,177.1731533000002,None,right,1,0.4430105999999796,177.1731533000002,None,None,175.97153810000054,177.15635939999993,0.5118173999999271,0.5949510999998893,1.7133403999996517,1.7970192000002498,,,,,,katie_3,001,2020_Jan_30_1232,posner,3.1.5,60.02127153891268,
-0.5,0,1,left,1,3,0,0,0,0,8,7,71,2,,,,,,,,,177.64112079999995,178.1409534000004,178.85875810000016,None,178.15765889999966,178.84217259999969,179.35938540000006,179.84355800000048,left,1,0.5846410999993168,179.35938540000006,None,None,178.15765889999966,179.34337909999977,0.5113619000003382,0.595106400000077,1.7137658999999985,1.7965972000001784,,,,,,katie_3,001,2020_Jan_30_1232,posner,3.1.5,60.02127153891268,
0.5,0,0,right,1,4,0,0,0,0,9,0,72,3,,,,,,,,,179.96119290000024,180.46089839999968,181.17872540000008,None,180.47768799999994,181.1621610000002,181.67931169999974,182.16337209999983,right,1,0.5127804999992804,181.67931169999974,None,None,180.47768799999994,181.66274989999965,0.5114441000005172,0.595094400000562,1.7132720999998128,1.7964443999999276,,,,,,katie_3,001,2020_Jan_30_1232,posner,3.1.5,60.02127153891268,
-0.5,0,1,left,1,3,0,0,0,0,9,1,73,2,,,,,,,,,182.21418390000053,182.71404520000033,183.43181960000038,None,182.7307307000001,183.41502010000022,183.9321355000002,184.4163411999998,None,0,,183.9321355000002,None,None,182.7307307000001,183.9156264000003,0.5114573999999266,0.5946536000001288,1.7130171999997401,1.7964344000001802,,,,,,katie_3,001,2020_Jan_30_1232,posner,3.1.5,60.02127153891268,
0.5,180,1,right,2,4,0,0,0,0,9,2,74,6,,,,,,,,,184.9169068000001,185.41767210000035,186.13564920000044,184.9169068000001,185.43439349999971,186.11882500000047,186.63622980000036,None,right,1,0.38788019999992684,186.63622980000036,None,left,185.43439349999971,186.61953059999996,0.5136698999995133,0.5973784999996496,1.7155033999997613,1.7989086999996289,0.021752900000137743,,,,,katie_3,001,2020_Jan_30_1232,posner,3.1.5,60.02127153891268,
0.5,180,1,right,2,4,0,0,0,0,9,3,75,5,,,,,,,,,187.0539993000002,187.55417699999998,188.27172500000052,None,187.5708328999999,188.2551983000003,188.77243840000028,None,right,1,0.40363139999954,188.77243840000028,None,None,187.5708328999999,188.75572139999986,0.5114794000000984,0.5948091000000204,1.7130123000006279,1.7963290000006964,,,,,,katie_3,001,2020_Jan_30_1232,posner,3.1.5,60.02127153891268,
-0.5,0,1,left,1,3,0,0,0,0,9,4,76,1,,,,,,,,,189.20675759999995,189.70717810000042,190.42489939999996,None,189.7238371000003,190.40793920000033,190.9256132999999,191.40943030000017,left,1,0.5144937000004575,190.9256132999999,None,None,189.7238371000003,190.90867750000052,0.5117512999995597,0.5952300999997533,1.7132356000001892,1.7968516000000818,,,,,,katie_3,001,2020_Jan_30_1232,posner,3.1.5,60.02127153891268,
0.5,180,1,right,2,4,0,0,0,0,9,5,77,7,,,,,,,,,191.45971869999994,191.96018970000023,192.6778408,None,191.97684800000025,192.66117020000002,193.17832550000003,None,right,1,0.3576822999993965,193.17832550000003,None,None,191.97684800000025,193.16185349999978,0.5117104000000836,0.5950362000003224,1.7133597000001828,1.7967589999998381,,,,,,katie_3,001,2020_Jan_30_1232,posner,3.1.5,60.02127153891268,
-0.5,0,1,left,1,3,0,0,0,0,9,6,78,0,,,,,,,,,193.56300939999983,194.0631696999999,194.7809857000002,None,194.07996079999975,194.76416700000027,195.28136069999982,None,left,1,0.3586825000002136,195.28136069999982,None,None,194.07996079999975,195.2647560000005,0.5117186999996193,0.5950158999994528,1.7132817000001523,1.7966556999999739,,,,,,katie_3,001,2020_Jan_30_1232,posner,3.1.5,60.02127153891268,
-0.5,180,0,left,2,3,0,0,0,0,9,7,79,4,,,,,,,,,195.66605179999988,196.16590470000028,196.88386139999966,None,196.1825558999999,196.8668835999997,197.38440890000038,197.8681161000004,left,1,0.5116458999991664,197.38440890000038,None,None,196.1825558999999,197.36762999999974,0.5116537000003518,0.5951148000003741,1.713365600000543,1.7969751999999062,,,,,,katie_3,001,2020_Jan_30_1232,posner,3.1.5,60.02127153891268,
0.5,0,0,right,1,4,0,0,0,0,10,0,80,3,,,,,,,,,197.9192238000005,198.4189081000004,199.1366668999999,None,198.43548809999993,199.1201490000003,199.63737300000048,None,right,1,0.4506837999997515,199.63737300000048,None,None,198.43548809999993,199.62065929999972,0.5113951000002999,0.5950385000005554,1.7131030000000464,1.7966028999999253,,,,,,katie_3,001,2020_Jan_30_1232,posner,3.1.5,60.02127153891268,
-0.5,0,1,left,1,3,0,0,0,0,10,1,81,0,,,,,,,,,200.1052926000002,200.60543909999978,201.32309129999976,None,200.62218810000013,201.3064800000002,201.8236336,202.30759920000037,left,1,0.6245688999997583,201.8236336,None,None,200.62218810000013,201.80685100000028,0.5120495000001029,0.5953742000001512,1.7134482999999818,1.7968868000007205,,,,,,katie_3,001,2020_Jan_30_1232,posner,3.1.5,60.02127153891268,
0.5,180,1,right,2,4,0,0,0,0,10,2,82,6,,,,,,,,,202.47488559999965,202.97531880000042,203.69308480000018,None,202.99213510000027,203.67615990000013,204.19367650000004,204.6775706999997,right,1,0.7263543999997637,204.19367650000004,None,None,202.99213510000027,204.17669810000007,0.5118732999999338,0.5954117000001133,1.7132283999999345,1.7970439000000624,,,,,,katie_3,001,2020_Jan_30_1232,posner,3.1.5,60.02127153891268,
-0.5,0,1,left,1,3,0,0,0,0,10,3,83,1,,,,,,,,,204.9447955000005,205.4454340000002,206.1630984000003,None,205.4620973000001,206.14619070000026,206.66371299999992,None,left,1,0.3362662999998065,206.66371299999992,None,None,205.4620973000001,206.6470976999999,0.5125971999996182,0.5958278999996764,1.7142469999998866,1.7976795999993556,,,,,,katie_3,001,2020_Jan_30_1232,posner,3.1.5,60.02127153891268,
0.5,180,1,right,2,4,0,0,0,0,10,4,84,7,,,,,,,,,207.03119530000004,207.53168180000011,208.24902459999976,None,207.54821530000027,208.23246149999977,208.7500583000001,None,right,1,0.37840939999932743,208.7500583000001,None,None,207.54821530000027,208.73319300000003,0.5120013000005201,0.5953416000002107,1.7134979000002204,1.797002700000121,,,,,,katie_3,001,2020_Jan_30_1232,posner,3.1.5,60.02127153891268,
-0.5,0,1,left,1,3,0,0,0,0,10,5,85,2,,,,,,,,,209.15148990000034,209.65121910000016,210.36874689999968,None,209.66771289999997,210.3522525999997,210.8694360999998,None,left,1,0.4505795000004582,210.8694360999998,None,None,209.66771289999997,210.85284709999996,0.5112413999995624,0.5945598999996946,1.7128591999999117,1.7961317999997846,,,,,,katie_3,001,2020_Jan_30_1232,posner,3.1.5,60.02127153891268,
0.5,180,1,right,2,4,0,0,0,0,10,6,86,5,,,,,,,,,211.33701130000009,211.83743419999973,212.5553331000001,None,211.85433230000035,212.53855980000026,213.05599379999967,None,right,1,0.40011199999935343,213.05599379999967,None,None,211.85433230000035,213.03924439999992,0.5112781999996514,0.5948797999999442,1.7130680000000211,1.7965272999999797,,,,,,katie_3,001,2020_Jan_30_1232,posner,3.1.5,60.02127153891268,
-0.5,180,0,left,2,3,0,0,0,0,10,7,87,4,,,,,,,,,213.4737922000004,213.97404300000017,214.6916123000001,None,213.9912131000001,214.67485750000014,215.19212030000017,215.6772560999998,left,1,0.5838893000000098,215.19212030000017,None,None,213.9912131000001,215.17538250000052,0.5117993999992905,0.5950967999997374,1.7131294999999227,1.796471699999529,,,,,,katie_3,001,2020_Jan_30_1232,posner,3.1.5,60.02127153891268,
,,,,,,0,0,0,0,,,,,,,,,,,,,,,,,,,,,,,,,,,,,,,,,,215.79392780000035,None,1.7800000023271423e-05,0.9958739999992758,katie_3,001,2020_Jan_30_1232,posner,3.1.5,60.02127153891268,
0.5,180,1,right,2,4,1,0,1,0,0,0,0,6,1.1799999811046291e-05,0.09750789999998233,276.81018829999994,None,1.5999999959603883e-05,0.09795410000060656,278.9134446999997,None,279.1868291999999,279.69744960000025,280.39840449999974,None,279.69744960000025,280.38188569999966,280.8992623000004,None,right,1,0.4364674999997078,280.8992623000004,None,None,279.69744960000025,280.8826405,0.5039646999994147,0.6041310999999041,1.7055826999994679,1.7887416999992638,,,,,,katie_3,001,2020_Jan_30_1232,posner,3.1.5,60.02127153891268,
0.5,180,1,right,2,4,1,0,1,0,0,1,1,5,,,,,,,,,281.36714500000016,281.8672631999998,282.58492750000005,None,281.8839476000003,282.56807130000016,283.0855177000003,None,right,1,0.39412069999980304,283.0855177000003,None,None,281.8839476000003,283.06891480000013,0.5107002000004286,0.5941659000000072,1.7123406000000614,1.795706799999607,,,,,,katie_3,001,2020_Jan_30_1232,posner,3.1.5,60.02127153891268,
-0.5,180,0,left,2,3,1,0,1,0,0,2,2,4,,,,,,,,,283.5032634999998,284.0035127000001,284.72118320000027,None,284.02015029999984,284.7045042,285.2219047999997,None,left,1,0.43383280000034574,285.2219047999997,None,None,284.02015029999984,285.2051786000002,0.5121009000004051,0.5960342000007586,1.713750599999912,1.797179099999994,,,,,,katie_3,001,2020_Jan_30_1232,posner,3.1.5,60.02127153891268,
0.5,180,1,right,2,4,1,0,1,0,0,3,3,7,,,,,,,,,285.6730389000004,286.1730445000003,286.8908274000005,None,286.1899309999999,286.8740327000005,287.3914082000001,None,right,1,0.43242470000041067,287.3914082000001,None,None,286.1899309999999,287.3748856000002,0.5115644999996221,0.5950537999997323,1.7133826999997837,1.7966372000000774,,,,,,katie_3,001,2020_Jan_30_1232,posner,3.1.5,60.02127153891268,
-0.5,0,1,left,1,3,1,0,1,0,0,4,4,1,,,,,,,,,287.84276560000035,288.3427622999998,289.0603557000004,None,288.35940219999975,289.0438389000001,289.56114249999973,None,left,1,0.36665089999951306,289.56114249999973,None,None,288.35940219999975,289.5444236000003,0.5112146999999823,0.5946045000000595,1.7128597999999329,1.7961457000001246,,,,,,katie_3,001,2020_Jan_30_1232,posner,3.1.5,60.02127153891268,
-0.5,0,1,left,1,3,1,0,1,0,0,5,5,2,,,,,,,,,289.9459331999997,290.4456074999998,291.16330879999987,None,290.46227199999976,291.1465740000003,291.6640196999997,292.14789649999966,left,1,0.5036328999995021,291.6640196999997,None,None,290.46227199999976,291.64735070000006,0.5114345000001776,0.594854299999497,1.713164499999948,1.7965518999999404,,,,,,katie_3,001,2020_Jan_30_1232,posner,3.1.5,60.02127153891268,
0.5,0,0,right,1,4,1,0,1,0,0,6,6,3,,,,,,,,,292.1983415000004,292.6985956999997,293.41631940000025,None,292.71542039999986,293.3999310999998,293.91700050000054,None,right,1,0.3625540999992154,293.91700050000054,None,None,292.71542039999986,293.90054990000044,0.5116568000003099,0.5952342000000499,1.7135882000002312,1.7967956000002232,,,,,,katie_3,001,2020_Jan_30_1232,posner,3.1.5,60.02127153891268,
-0.5,0,1,left,1,3,1,0,1,0,0,7,7,0,,,,,,,,,294.3018474999999,294.8019555000001,295.5195990000002,None,294.81841690000056,295.5026493000005,296.01997329999995,None,left,1,0.3476922999998351,296.01997329999995,None,None,294.81841690000056,296.0034499000003,0.5117559999998775,0.595057700000325,1.7132343000002948,1.7966796999999133,,,,,,katie_3,001,2020_Jan_30_1232,posner,3.1.5,60.02127153891268,
0.5,180,1,right,2,4,1,0,1,0,1,0,8,6,,,,,,,,,296.3878519,296.88773649999985,297.6054683000002,None,296.90459699999974,297.5891081999998,298.1061359000005,None,right,1,0.3255227999998169,298.1061359000005,None,None,296.90459699999974,298.08994280000024,0.5114201999995203,0.5950022999995781,1.7136097999991762,1.7965490999995382,,,,,,katie_3,001,2020_Jan_30_1232,posner,3.1.5,60.02127153891268,
-0.5,0,1,left,1,3,1,0,1,0,1,1,9,0,,,,,,,,,298.45761589999984,298.9572539999999,299.67517060000046,None,298.9740254999997,299.65828729999976,300.1758528999999,None,left,1,0.44786090000070544,300.1758528999999,None,None,298.9740254999997,300.158899,0.511386200000743,0.5948332000007213,1.7130106000004162,1.7966113000002224,,,,,,katie_3,001,2020_Jan_30_1232,posner,3.1.5,60.02127153891268,
0.5,180,1,right,2,4,1,0,1,0,1,2,10,5,,,,,,,,,300.6438280000002,301.14392990000033,301.86147299999993,None,301.16039720000026,301.84467719999975,302.36203509999996,None,right,1,0.30962880000060977,302.36203509999996,None,None,301.16039720000026,302.3453804999999,0.5118099000001166,0.5951219999997193,1.7132453000003807,1.7966206000000966,,,,,,katie_3,001,2020_Jan_30_1232,posner,3.1.5,60.02127153891268,
-0.5,180,0,left,2,3,1,0,1,0,1,3,11,4,,,,,,,,,302.6963827999998,303.1963101000001,303.91420910000033,None,303.21322130000044,303.89760300000034,304.41497640000034,None,left,1,0.3687281000002258,304.41497640000034,None,None,303.21322130000044,304.3979651999998,0.51140789999954,0.5949528999999529,1.713043299999299,1.7968385999993188,,,,,,katie_3,001,2020_Jan_30_1232,posner,3.1.5,60.02127153891268,
0.5,180,1,right,2,4,1,0,1,0,1,4,12,7,,,,,,,,,304.7991828000004,305.29946819999986,306.01707140000053,None,305.31612700000005,306.00041239999973,306.5175140000001,None,right,1,0.36239649999970425,306.5175140000001,None,None,305.31612700000005,306.5011321000002,0.5118672999997216,0.5953315999995539,1.7135192999994615,1.7970569999997679,,,,,,katie_3,001,2020_Jan_30_1232,posner,3.1.5,60.02127153891268,
-0.5,0,1,left,1,3,1,0,1,0,1,5,13,1,,,,,,,,,306.90186259999973,307.4023001000005,308.1201344000001,None,307.419124,308.10344840000016,308.62076590000015,None,left,1,0.402894799999558,308.62076590000015,None,None,307.419124,308.60395719999997,0.5121138000004066,0.5955966999999873,1.7137479000002713,1.7970433999998932,,,,,,katie_3,001,2020_Jan_30_1232,posner,3.1.5,60.02127153891268,
-0.5,0,1,left,1,3,1,0,1,0,1,6,14,2,,,,,,,,,309.0549367000003,309.55520609999985,310.2731015999998,None,309.57213839999986,310.2561195999997,310.77365199999986,None,left,1,0.46606750000046304,310.77365199999986,None,None,309.57213839999986,310.75685260000046,0.5116858999999749,0.5951059999997597,1.7133143000000928,1.796742099999392,,,,,,katie_3,001,2020_Jan_30_1232,posner,3.1.5,60.02127153891268,
0.5,0,0,right,1,4,1,0,1,0,1,7,15,3,,,,,,,,,311.2585979000005,311.7580579000005,312.47583269999996,None,311.77491400000054,312.45950790000006,312.9764643999997,311.2585979000005,right,1,0.40730810000059137,312.9764643999997,None,None,311.77491400000054,312.9600387999999,0.5111311000000569,0.5947632000006706,1.7130938000000242,1.7965881000000081,,,,,,katie_3,001,2020_Jan_30_1232,posner,3.1.5,60.02127153891268,
-0.5,0,1,left,1,3,1,0,1,0,2,0,16,0,,,,,,,,,313.41135889999987,313.9114193000005,314.6290621999997,None,313.9280391000002,314.6122981999997,315.12973560000046,None,left,1,0.3739864999997735,315.12973560000046,None,None,313.9280391000002,315.11300180000035,0.5115470000000641,0.5947795000001861,1.713115700000344,1.7964515000003303,,,,,,katie_3,001,2020_Jan_30_1232,posner,3.1.5,60.02127153891268,
0.5,180,1,right,2,4,1,0,1,0,2,1,17,5,,,,,,,,,315.5309924000003,316.03093760000047,316.7484813000001,None,316.04740850000053,316.73187169999983,317.24898829999984,None,right,1,0.4545342999999775,317.24898829999984,None,None,316.04740850000053,317.2325013999998,0.5115450000002966,0.5948779999998806,1.7130909000006795,1.7966374000006908,,,,,,katie_3,001,2020_Jan_30_1232,posner,3.1.5,60.02127153891268,
-0.5,0,1,left,1,3,1,0,1,0,2,2,18,2,,,,,,,,,317.7335017000005,318.2339791000004,318.95153219999975,None,318.25072550000004,318.9349179000001,319.45234600000003,317.7335017000005,left,1,0.46733599999970465,319.45234600000003,None,None,318.25072550000004,319.43546200000037,0.5119555999999648,0.5950151000006372,1.7134151000000202,1.7971732000005431,,,,,,katie_3,001,2020_Jan_30_1232,posner,3.1.5,60.02127153891268,
0.5,180,1,right,2,4,1,0,1,0,2,3,19,7,,,,,,,,,319.9373179000004,320.43680289999975,321.15438840000024,None,320.4536988,321.1378381000004,321.65541779999967,319.9373179000004,right,1,0.34406510000007984,321.65541779999967,None,None,320.4536988,321.63860529999965,0.5110354999997071,0.5945589000002656,1.7128199999997378,1.7964210999998613,,,,,,katie_3,001,2020_Jan_30_1232,posner,3.1.5,60.02127153891268,
0.5,180,1,right,2,4,1,0,1,0,2,4,20,6,,,,,,,,,322.0234049999999,322.52326619999985,323.24084949999997,None,322.5398316999999,323.2240474,323.7414402000004,None,right,1,0.4340001000000484,323.7414402000004,None,None,322.5398316999999,323.72479920000023,0.5114304000007905,0.5946321000001262,1.712948200000028,1.7963102000003346,,,,,,katie_3,001,2020_Jan_30_1232,posner,3.1.5,60.02127153891268,
-0.5,180,0,left,2,3,1,0,1,0,2,5,21,4,,,,,,,,,324.19258660000014,324.6927897000005,325.41061790000003,None,324.7096736000003,325.3939138000005,325.9111622999999,326.3951212000002,left,1,0.47242259999984526,325.9111622999999,None,None,324.7096736000003,325.89457219999986,0.5117901999992682,0.5950385999994978,1.7135618999991493,1.7967921999997998,,,,,,katie_3,001,2020_Jan_30_1232,posner,3.1.5,60.02127153891268,
-0.5,0,1,left,1,3,1,0,1,0,2,6,22,1,,,,,,,,,326.4124466000003,326.9126971000005,327.6301441000005,None,326.92909150000014,327.6135940000004,328.13099880000027,328.61480550000033,left,1,0.660527899999579,328.13099880000027,None,None,326.92909150000014,328.1141379999999,0.5118445999996766,0.5949795999995331,1.7132747999994535,1.796673799999553,,,,,,katie_3,001,2020_Jan_30_1232,posner,3.1.5,60.02127153891268,
0.5,0,0,right,1,4,1,0,1,0,2,7,23,3,,,,,,,,,328.8153975000005,329.3157541999999,330.03349640000033,None,329.3324143,330.0166839000003,330.53421720000006,None,right,1,0.32931809999990946,330.53421720000006,None,None,329.3324143,330.5173127999997,0.5119332000003851,0.5960337000005893,1.713477100000091,1.797168099999908,,,,,,katie_3,001,2020_Jan_30_1232,posner,3.1.5,60.02127153891268,
0.5,0,0,right,1,4,1,0,1,0,3,0,24,3,,,,,,,,,330.88534489999984,331.3852671000004,332.1030063999997,None,331.40212990000055,332.08639630000016,332.6038503,None,right,1,0.4356281999998828,332.6038503,None,None,331.40212990000055,332.58740620000026,0.5115187999999762,0.5948768999996901,1.713644999999815,1.7965666000000056,,,,,,katie_3,001,2020_Jan_30_1232,posner,3.1.5,60.02127153891268,
0.5,180,1,right,2,4,1,0,1,0,3,1,25,5,,,,,,,,,333.0550234000002,333.55508830000053,334.27275180000015,None,333.5717347,334.2558423999999,334.77314810000007,None,right,1,0.362377500000548,334.77314810000007,None,None,333.5717347,334.75644530000045,0.5117875999994794,0.5949553000000378,1.71312990000024,1.7968624999994063,,,,,,katie_3,001,2020_Jan_30_1232,posner,3.1.5,60.02127153891268,
-0.5,0,1,left,1,3,1,0,1,0,3,2,26,0,,,,,,,,,335.1577017999998,335.65786519999983,336.3752870999997,None,335.6745458000005,336.3589843,336.8759043,None,left,1,0.4675765000001775,336.8759043,None,None,335.6745458000005,336.8594227000003,0.5114831999999296,0.5949528999999529,1.7130225999999311,1.796539799999664,,,,,,katie_3,001,2020_Jan_30_1232,posner,3.1.5,60.02127153891268,
0.5,180,1,right,2,4,1,0,1,0,3,3,27,7,,,,,,,,,337.3612333000001,337.8609322000002,338.57858880000003,None,337.87753900000007,338.56187370000043,339.0793266999999,337.3612333000001,right,1,0.3041167999999743,339.0793266999999,None,None,337.87753900000007,339.0626161,0.5114458999996714,0.5948266999994303,1.7131144999993921,1.7963887999994768,,,,,,katie_3,001,2020_Jan_30_1232,posner,3.1.5,60.02127153891268,
-0.5,0,1,left,1,3,1,0,1,0,3,4,28,1,,,,,,,,,339.4136999000002,339.91376219999984,340.6314153000003,None,339.93064049999975,340.6146352000005,341.13209259999985,None,left,1,0.395610200000192,341.13209259999985,None,None,339.93064049999975,341.1154892000004,0.5116876000001866,0.5949276000001191,1.7133912999997847,1.7966767999996591,,,,,,katie_3,001,2020_Jan_30_1232,posner,3.1.5,60.02127153891268,
-0.5,180,0,left,2,3,1,0,1,0,3,5,29,4,,,,,,,,,341.55048739999984,342.04997809999986,342.7675304000004,None,342.0665571999998,342.75106760000017,343.2682678000001,None,left,1,0.4511590000001888,343.2682678000001,None,None,342.0665571999998,343.25168610000037,0.511394900000596,0.5946506999998746,1.713086900000235,1.7965609000002587,,,,,,katie_3,001,2020_Jan_30_1232,posner,3.1.5,60.02127153891268,
0.5,180,1,right,2,4,1,0,1,0,3,6,30,6,,,,,,,,,343.7362912999997,344.2361499999997,344.95407030000024,None,344.25309650000054,344.93718609999996,345.45463089999976,None,right,1,0.352911299999505,345.45463089999976,None,None,344.25309650000054,345.43768420000015,0.5113559999999779,0.5949890000001687,1.7128743000002942,1.7965661999996883,,,,,,katie_3,001,2020_Jan_30_1232,posner,3.1.5,60.02127153891268,
-0.5,0,1,left,1,3,1,0,1,0,3,7,31,2,,,,,,,,,345.8388033000001,346.3392131999999,347.05678929999976,None,346.35562110000046,347.0402849000002,347.5573744000003,None,left,1,0.45009980000031646,347.5573744000003,None,None,346.35562110000046,347.54089939999994,0.5116984000005687,0.5950972999999067,1.7133622000001196,1.7967822999999044,,,,,,katie_3,001,2020_Jan_30_1232,posner,3.1.5,60.02127153891268,
0.5,180,1,right,2,4,1,0,1,0,4,0,32,7,,,,,,,,,348.02530620000016,348.5256003000004,349.24321190000046,None,348.5422653000005,349.2264591000003,349.74405639999986,350.2278188,right,1,0.8553001000000222,349.74405639999986,None,None,348.5422653000005,349.727038,0.5117678999995405,0.5955311999996411,1.713190499999655,1.7968630999994275,,,,,,katie_3,001,2020_Jan_30_1232,posner,3.1.5,60.02127153891268,
0.5,0,0,right,1,4,1,0,1,0,4,1,33,3,,,,,,,,,350.6290514000002,351.12912080000024,351.8467857000005,None,351.1458908000004,351.83042190000015,352.34739270000046,None,right,1,0.4360855000004449,352.34739270000046,None,None,351.1458908000004,352.3308122999997,0.51184160000048,0.5950751000000309,1.7132222999998703,1.796627499999886,,,,,,katie_3,001,2020_Jan_30_1232,posner,3.1.5,60.02127153891268,
-0.5,0,1,left,1,3,1,0,1,0,4,2,34,1,,,,,,,,,352.8163645000004,353.31529729999966,354.03320260000055,None,353.33246529999997,354.0162994000002,354.5338413999998,None,right,0,0.24161160000039672,354.5338413999998,None,None,353.33246529999997,354.51692530000037,0.5107215000007272,0.5941737000002831,1.712333899999976,1.7959791000002951,,,,,,katie_3,001,2020_Jan_30_1232,posner,3.1.5,60.02127153891268,
-0.5,180,0,left,2,3,1,0,1,0,4,3,35,4,,,,,,,,,354.80170389999967,355.3015316000001,356.0194001,None,355.3180905999998,356.00273840000045,356.52005590000044,357.00380959999984,left,1,0.4713003999995635,356.52005590000044,None,None,355.3180905999998,356.50311370000054,0.5113672999996197,0.5947850999991715,1.7129353000000265,1.7962677999994412,,,,,,katie_3,001,2020_Jan_30_1232,posner,3.1.5,60.02127153891268,
-0.5,0,1,left,1,3,1,0,1,0,4,4,36,2,,,,,,,,,357.02125950000027,357.52163310000014,358.23879579999993,None,357.53798499999994,358.22220689999995,358.73963060000005,359.2236548000001,left,1,0.4757792000000336,358.73963060000005,None,None,357.53798499999994,358.7230277999997,0.5119881999999052,0.5950927999992928,1.7133861999991495,1.7964181999996072,,,,,,katie_3,001,2020_Jan_30_1232,posner,3.1.5,60.02127153891268,
0.5,180,1,right,2,4,1,0,1,0,4,5,37,5,,,,,,,,,359.2407350000003,359.74100890000045,360.4586681999999,None,359.75761969999985,360.44186009999976,360.95952790000047,None,left,0,0.448044600000685,360.95952790000047,None,None,359.75761969999985,360.9425768000001,0.5114902000004804,0.5946853000004921,1.7130424000006315,1.7964019000000917,,,,,,katie_3,001,2020_Jan_30_1232,posner,3.1.5,60.02127153891268,
0.5,180,1,right,2,4,1,0,1,0,4,6,38,6,,,,,,,,,361.4279561000003,361.9272259999998,362.64489049999975,None,361.94393560000026,362.62825820000035,363.1456410999999,363.6296107999997,right,1,0.5179139000001669,363.1456410999999,None,None,361.94393560000026,363.12897630000043,0.5110617999998794,0.5945544999995036,1.7127926000002844,1.7962201000000277,,,,,,katie_3,001,2020_Jan_30_1232,posner,3.1.5,60.02127153891268,
-0.5,0,1,left,1,3,1,0,1,0,4,7,39,0,,,,,,,,,363.6807593000003,364.1805400000003,364.8980024000002,None,364.1970989000001,364.8812561000004,365.39890579999974,365.88280209999994,left,1,0.7044747999998435,365.39890579999974,None,None,364.1970989000001,365.3821261000003,0.5117090999992797,0.594931199999337,1.71328369999992,1.7964443999999276,,,,,,katie_3,001,2020_Jan_30_1232,posner,3.1.5,60.02127153891268,
-0.5,0,1,left,1,3,1,0,1,0,5,0,40,1,,,,,,,,,366.13354849999996,366.6338188999998,367.35155589999977,None,366.6506691000004,367.3349982999998,367.8521589000002,368.3359986000005,None,0,,367.8521589000002,None,None,366.6506691000004,367.83529759999965,0.5118050000000949,0.5950401999998576,1.7133046999997532,1.7969782000000123,,,,,,katie_3,001,2020_Jan_30_1232,posner,3.1.5,60.02127153891268,
-0.5,180,0,left,2,3,1,0,1,0,5,1,41,4,,,,,,,,,368.83663830000023,369.33738319999975,370.05510049999975,368.83663830000023,369.3543232000002,370.0382915,370.55577559999983,371.03972350000004,left,1,0.5077148999998826,370.55577559999983,None,None,369.3543232000002,370.5392281000004,0.5135231000003841,0.597161500000766,1.7153441000000385,1.7988388000003397,,,,,,katie_3,001,2020_Jan_30_1232,posner,3.1.5,60.02127153891268,
0.5,0,0,right,1,4,1,0,1,0,5,2,42,3,,,,,,,,,371.0908810000001,371.59099960000003,372.30808549999983,None,371.6070778000003,372.29160330000013,372.8089766000003,None,right,1,0.39047779999964405,372.8089766000003,None,None,371.6070778000003,372.7922520000002,0.5120139999999083,0.5953829999998561,1.713247799999408,1.7965518999999404,,,,,,katie_3,001,2020_Jan_30_1232,posner,3.1.5,60.02127153891268,
0.5,180,1,right,2,4,1,0,1,0,5,3,43,5,,,,,,,,,373.2266113000005,373.7268788000001,374.44451200000003,None,373.7436587000002,374.42778330000056,374.94516900000053,375.42924070000026,right,1,0.494210099999691,374.94516900000053,None,None,373.7436587000002,374.9285789000005,0.5120080000006055,0.5954981000004409,1.7136965000008786,1.7970961000000898,,,,,,katie_3,001,2020_Jan_30_1232,posner,3.1.5,60.02127153891268,
0.5,180,1,right,2,4,1,0,1,0,5,4,44,7,,,,,,,,,375.46287500000017,375.9632738999999,376.6810882,None,375.9798945000002,376.66435009999987,377.18165039999985,None,right,1,0.44167319999996835,377.18165039999985,None,None,375.9798945000002,377.1649892000005,0.5118401999998241,0.5951826000000437,1.7135339000005843,1.796806700000161,,,,,,katie_3,001,2020_Jan_30_1232,posner,3.1.5,60.02127153891268,
-0.5,0,1,left,1,3,1,0,1,0,5,5,45,0,,,,,,,,,377.6497446000003,378.1495931999998,378.8671825000001,None,378.1662266000003,378.8506567000004,379.36779690000003,379.8521466000002,left,1,0.6956094000006487,379.36779690000003,None,None,378.1662266000003,379.35132479999993,0.5115464000000429,0.5951902000006157,1.713254400000551,1.7966059000000314,,,,,,katie_3,001,2020_Jan_30_1232,posner,3.1.5,60.02127153891268,
-0.5,0,1,left,1,3,1,0,1,0,5,6,46,2,,,,,,,,,380.08667440000045,380.58653479999975,381.3039971999997,None,380.60319720000007,381.2872047999999,381.804701,None,right,0,0.46675449999929697,381.804701,None,None,380.60319720000007,381.78805029999967,0.5118572999999742,0.5949411999999938,1.713355999999294,1.7967383999994126,,,,,,katie_3,001,2020_Jan_30_1232,posner,3.1.5,60.02127153891268,
0.5,180,1,right,2,4,1,0,1,0,5,7,47,6,,,,,,,,,382.2898586000001,382.78947359999984,383.5068631000004,None,382.8058980000005,383.49035189999995,384.00760790000004,384.49163060000046,right,1,0.9037374999998065,384.00760790000004,None,None,382.8058980000005,383.99100369999996,0.5115239999995538,0.5949835999999777,1.7130376999994041,1.796468499999719,,,,,,katie_3,001,2020_Jan_30_1232,posner,3.1.5,60.02127153891268,
0.5,0,0,right,1,4,1,0,1,0,6,0,48,3,,,,,,,,,384.9429247999997,385.4429270999999,386.1606416000004,None,385.4596763999998,386.14408100000037,386.66154780000033,387.1454601000005,None,0,,386.66154780000033,None,None,385.4596763999998,386.6446682000005,0.5112695000007079,0.5946364000001267,1.7129972000002454,1.7965088999999352,,,,,,katie_3,001,2020_Jan_30_1232,posner,3.1.5,60.02127153891268,
-0.5,0,1,left,1,3,1,0,1,0,6,1,49,2,,,,,,,,,387.64586990000043,388.1466443999998,388.8643659999998,387.64586990000043,388.16355230000045,388.8477266,389.36498140000003,389.8492750000005,None,0,,389.36498140000003,None,None,388.16355230000045,389.3481146000004,0.5141785000005257,0.5978857000000062,1.7156236000000717,1.7993255000001227,,,,,,katie_3,001,2020_Jan_30_1232,posner,3.1.5,60.02127153891268,
0.5,180,1,right,2,4,1,0,1,0,6,2,50,6,,,,,,,,,390.3499447000004,390.85053549999975,391.5679766000003,390.3499447000004,390.8669319999999,391.55166610000015,392.0687694999997,None,right,1,0.29054160000032425,392.0687694999997,None,None,390.8669319999999,392.0521924000004,0.5138468999994075,0.597188499999902,1.7154798999999912,1.798801199999616,,,,,,katie_3,001,2020_Jan_30_1232,posner,3.1.5,60.02127153891268,
0.5,180,1,right,2,4,1,0,1,0,6,3,51,5,,,,,,,,,392.3865716999999,392.8865931,393.604378,None,392.90334690000054,393.58794510000007,394.1049662000005,None,right,1,0.32630349999999453,394.1049662000005,None,None,392.90334690000054,394.0884157999999,0.5117479000000458,0.5953909999998359,1.713585200000125,1.7968224000005648,,,,,,katie_3,001,2020_Jan_30_1232,posner,3.1.5,60.02127153891268,
-0.5,180,0,left,2,3,1,0,1,0,6,4,52,4,,,,,,,,,394.45610829999987,394.9559945000001,395.6739674999999,None,394.9728554000003,395.65688580000005,396.1746490000005,None,left,1,0.44050199999946926,396.1746490000005,None,None,394.9728554000003,396.1576756000004,0.5115334000001894,0.5951545999996597,1.7131994000001214,1.7968289000000368,,,,,,katie_3,001,2020_Jan_30_1232,posner,3.1.5,60.02127153891268,
-0.5,0,1,left,1,3,1,0,1,0,6,5,53,0,,,,,,,,,396.6423590000004,397.14257720000023,397.8601352000005,None,397.15894840000055,397.8432657000003,398.36080690000017,None,left,1,0.46246789999986504,398.36080690000017,None,None,397.15894840000055,398.3439784000002,0.5117774999998801,0.5949659999996584,1.7131679000003714,1.7965094000001045,,,,,,katie_3,001,2020_Jan_30_1232,posner,3.1.5,60.02127153891268,
0.5,180,1,right,2,4,1,0,1,0,6,6,54,7,,,,,,,,,398.8450660999997,399.34525550000035,400.0632164999997,None,399.3621739,400.0463308999997,400.5637992000002,398.8450660999997,right,1,0.3396303999998054,400.5637992000002,None,None,399.3621739,400.5469199999998,0.511887999999999,0.595927400000619,1.7135330999999496,1.797130400000242,,,,,,katie_3,001,2020_Jan_30_1232,posner,3.1.5,60.02127153891268,
-0.5,0,1,left,1,3,1,0,1,0,6,7,55,1,,,,,,,,,400.9316227999998,401.4316292000003,402.14929180000036,None,401.44822230000045,402.13275129999965,402.65012840000054,None,left,1,0.42928570000003674,402.65012840000054,None,None,401.44822230000045,402.63332040000023,0.5116462999994837,0.5951869000000443,1.7133120999997118,1.796776499999396,,,,,,katie_3,001,2020_Jan_30_1232,posner,3.1.5,60.02127153891268,
0.5,180,1,right,2,4,1,0,1,0,7,0,56,5,,,,,,,,,403.1011203999997,403.6014403999998,404.3192188000003,None,403.6180390999998,404.3023639000003,404.81989930000054,None,right,1,0.3234970000003159,404.81989930000054,None,None,403.6180390999998,404.8029397,0.5119306999995388,0.5951426999999967,1.7134243999998944,1.7971042999997735,,,,,,katie_3,001,2020_Jan_30_1232,posner,3.1.5,60.02127153891268,
0.5,180,1,right,2,4,1,0,1,0,7,1,57,7,,,,,,,,,405.17079660000036,405.6706790999997,406.3883431000004,None,405.68732270000055,406.3717127,406.88925070000005,None,right,1,0.38211370000044553,406.88925070000005,None,None,405.68732270000055,406.8724548,0.5112855000006675,0.5949860000000626,1.713052200000675,1.7964124999998603,,,,,,katie_3,001,2020_Jan_30_1232,posner,3.1.5,60.02127153891268,
0.5,180,1,right,2,4,1,0,1,0,7,2,58,6,,,,,,,,,407.2903457000002,407.7905145000004,408.50787820000005,None,407.80699490000006,408.49144270000033,409.0087897000003,None,right,1,0.39846570000008796,409.0087897000003,None,None,407.80699490000006,408.9920338000002,0.5115529000004244,0.5949067999999897,1.713061600000401,1.796479300000101,,,,,,katie_3,001,2020_Jan_30_1232,posner,3.1.5,60.02127153891268,
-0.5,0,1,left,1,3,1,0,1,0,7,3,59,1,,,,,,,,,409.42695470000035,409.92660069999965,410.64451199999985,None,409.9435666999998,410.62755990000005,411.1448671999997,411.6291352999997,left,1,0.5823489000003974,411.1448671999997,None,None,409.9435666999998,411.12848250000025,0.5113205999996353,0.595030599999518,1.7132029000003968,1.7964764999996987,,,,,,katie_3,001,2020_Jan_30_1232,posner,3.1.5,60.02127153891268,
-0.5,0,1,left,1,3,1,0,1,0,7,4,60,2,,,,,,,,,411.7466648999998,412.24648570000045,412.96426210000027,None,412.2633431000004,412.9473803000001,413.46486079999977,None,left,1,0.4065196999999898,413.46486079999977,None,None,412.2633431000004,413.4482108000002,0.5114047999995819,0.5949283999998443,1.713110699999561,1.7965439999998125,,,,,,katie_3,001,2020_Jan_30_1232,posner,3.1.5,60.02127153891268,
-0.5,0,1,left,1,3,1,0,1,0,7,5,61,0,,,,,,,,,413.89990039999975,414.3996390000002,415.11695280000004,None,414.4159497999999,415.10052629999973,415.61789690000023,416.1016577999999,right,0,0.717470399999911,415.61789690000023,None,None,414.4159497999999,415.60144630000013,0.5117216000007829,0.5950253999999404,1.713505100000475,1.7965202000004865,,,,,,katie_3,001,2020_Jan_30_1232,posner,3.1.5,60.02127153891268,
-0.5,180,0,left,2,3,1,0,1,0,7,6,62,4,,,,,,,,,416.35336840000036,416.85314629999993,417.5704904000004,None,416.8694195999997,417.55391940000027,418.07155330000023,None,right,0,0.407575000000179,418.07155330000023,None,None,416.8694195999997,418.0548404000001,0.5113621999998941,0.5942919999997684,1.7130435999997644,1.796181699999579,,,,,,katie_3,001,2020_Jan_30_1232,posner,3.1.5,60.02127153891268,
0.5,0,0,right,1,4,1,0,1,0,7,7,63,3,,,,,,,,,418.50601389999974,419.00582829999985,419.72348349999993,None,419.02271800000017,419.7067115,420.2243159999998,None,right,1,0.34285600000021077,420.2243159999998,None,None,419.02271800000017,420.2074437000001,0.5116145000001779,0.5954749000002266,1.7132138999995732,1.7968479999999545,,,,,,katie_3,001,2020_Jan_30_1232,posner,3.1.5,60.02127153891268,
0.5,180,1,right,2,4,1,0,1,0,8,0,64,7,,,,,,,,,420.5922536999997,421.09209069999997,421.8098839000004,None,421.1088458000004,421.7930653000003,422.3102163000003,None,right,1,0.37696649999998044,422.3102163000003,None,None,421.1088458000004,422.2938075000002,0.5115675999995801,0.5949401999996553,1.713264099999833,1.7965752000000066,,,,,,katie_3,001,2020_Jan_30_1232,posner,3.1.5,60.02127153891268,
0.5,0,0,right,1,4,1,0,1,0,8,1,65,3,,,,,,,,,422.71151050000026,423.2115464999997,423.9294509000001,None,423.2282615000004,423.91280879999977,424.4298134999999,None,right,1,0.36173629999939294,424.4298134999999,None,None,423.2282615000004,424.4134559000004,0.5116007999995418,0.595047899999372,1.71348880000005,1.7966819999992367,,,,,,katie_3,001,2020_Jan_30_1232,posner,3.1.5,60.02127153891268,
-0.5,0,1,left,1,3,1,0,1,0,8,2,66,1,,,,,,,,,424.81449150000026,425.3143796000004,426.0322891000005,None,425.33114250000017,426.01543539999966,426.53290149999975,427.01656060000005,left,1,0.6181779000007737,426.53290149999975,None,None,425.33114250000017,426.5162283999998,0.5114535000002434,0.5949035000003278,1.7132863999995607,1.796769200000199,,,,,,katie_3,001,2020_Jan_30_1232,posner,3.1.5,60.02127153891268,
-0.5,180,0,left,2,3,1,0,1,0,8,3,67,4,,,,,,,,,427.16728330000024,427.66771289999997,428.3854540000002,None,427.6843282,428.36883560000024,428.8859639000002,429.3701269000003,left,1,0.8730820000000676,428.8859639000002,None,None,427.6843282,428.86948870000015,0.5122056000000157,0.5958335999994233,1.713963799999874,1.7974969999995665,,,,,,katie_3,001,2020_Jan_30_1232,posner,3.1.5,60.02127153891268,
0.5,180,1,right,2,4,1,0,1,0,8,4,68,6,,,,,,,,,429.78772579999986,430.2880667999998,431.0056119000001,None,430.3046789,430.989012,431.5062409000002,None,left,0,0.46088179999969725,431.5062409000002,None,None,430.3046789,431.4896497999998,0.511934599999222,0.5953602999998111,1.7134980000000724,1.7968766999993022,,,,,,katie_3,001,2020_Jan_30_1232,posner,3.1.5,60.02127153891268,
-0.5,0,1,left,1,3,1,0,1,0,8,5,69,2,,,,,,,,,431.99048550000043,432.49113360000047,433.20868580000024,None,432.50760439999976,433.1919773999998,433.7092186,434.1932781000005,left,1,0.5698607000003904,433.7092186,None,None,432.50760439999976,433.6926355000005,0.5118450999998458,0.5951405000005252,1.7133339000001797,1.7966599000001224,,,,,,katie_3,001,2020_Jan_30_1232,posner,3.1.5,60.02127153891268,
0.5,180,1,right,2,4,1,0,1,0,8,6,70,5,,,,,,,,,434.3105684000002,434.8109685999998,435.52842710000004,None,434.82753539999976,435.51196700000037,436.0293469999997,None,right,1,0.36167959999966115,436.0293469999997,None,None,434.82753539999976,436.01258340000004,0.5115318999996816,0.5949667999993835,1.713136499999564,1.7965555999999197,,,,,,katie_3,001,2020_Jan_30_1232,posner,3.1.5,60.02127153891268,
-0.5,0,1,left,1,3,1,0,1,0,8,7,71,0,,,,,,,,,436.4138591000001,436.91375160000007,437.6315830000003,None,436.93063020000045,437.6148175999997,438.1321383000004,None,left,1,0.41891949999990175,438.1321383000004,None,None,436.93063020000045,438.11542009999994,0.5115671000003204,0.5947757000003548,1.713214500000504,1.7969352999998591,,,,,,katie_3,001,2020_Jan_30_1232,posner,3.1.5,60.02127153891268,
-0.5,180,0,left,2,3,1,0,1,0,9,0,72,4,,,,,,,,,438.5828400999999,439.08340339999995,439.80091619999985,None,439.10029190000023,439.7846715000005,440.3018130999999,None,right,0,0.1772104000001491,440.3018130999999,None,None,439.10029190000023,440.2851433000005,0.5117762999998376,0.5951001000003089,1.7135096000001795,1.7968266999996558,,,,,,katie_3,001,2020_Jan_30_1232,posner,3.1.5,60.02127153891268,
-0.5,0,1,left,1,3,1,0,1,0,9,1,73,1,,,,,,,,,440.5026247000005,441.00291240000024,441.7205062000003,None,441.0193927999999,441.70375260000037,442.22133289999965,442.7049102000001,left,1,0.49768909999966127,442.22133289999965,None,None,441.0193927999999,442.20456829999966,0.5117810000001555,0.5951093000003311,1.7134220999996614,1.7968134000002465,,,,,,katie_3,001,2020_Jan_30_1232,posner,3.1.5,60.02127153891268,
-0.5,0,1,left,1,3,1,0,1,0,9,2,74,2,,,,,,,,,442.7396085999999,443.23912850000033,443.95655890000035,None,443.2558643000002,443.9401078000001,444.45743140000013,None,left,1,0.4375678999995216,444.45743140000013,None,None,443.2558643000002,444.4408404000005,0.5113874999997279,0.5949359999995067,1.713076899999578,1.7963565000000017,,,,,,katie_3,001,2020_Jan_30_1232,posner,3.1.5,60.02127153891268,
-0.5,0,1,left,1,3,1,0,1,0,9,3,75,0,,,,,,,,,444.9250370999998,445.4254486,446.14311869999983,None,445.4422204000002,446.12634570000046,446.64397759999974,None,left,1,0.45105469999998604,446.64397759999974,None,None,445.4422204000002,446.62715879999996,0.5117002999995748,0.5955090999996173,1.713392699999531,1.7968807999995988,,,,,,katie_3,001,2020_Jan_30_1232,posner,3.1.5,60.02127153891268,
0.5,180,1,right,2,4,1,0,1,0,9,4,76,5,,,,,,,,,447.1119724,447.6120013,448.3296892999997,None,447.6285290000005,448.31293129999995,448.8299856000003,None,right,1,0.30500540000048204,448.8299856000003,None,None,447.6285290000005,448.81343650000053,0.5116691000002902,0.5948332999996637,1.713093200000003,1.7963990999996895,,,,,,katie_3,001,2020_Jan_30_1232,posner,3.1.5,60.02127153891268,
0.5,180,1,right,2,4,1,0,1,0,9,5,77,7,,,,,,,,,449.1643180000001,449.66474430000017,450.38221090000025,None,449.68124050000006,450.36547859999973,450.8829969999997,451.3668438000004,left,0,0.48416420000012295,450.8829969999997,None,None,449.68124050000006,450.86628199999996,0.5117995999999039,0.595011099999283,1.713323500000115,1.7969189999994342,,,,,,katie_3,001,2020_Jan_30_1232,posner,3.1.5,60.02127153891268,
0.5,0,0,right,1,4,1,0,1,0,9,6,78,3,,,,,,,,,451.3840041000003,451.8844753000003,452.6021375999999,None,451.90130060000047,452.58520130000034,453.1026976000003,453.5869297999998,right,1,0.4723813999999038,453.1026976000003,None,None,451.90130060000047,453.0857726000004,0.5119604000001345,0.5951429999995526,1.7132458999994924,1.7970158999996784,,,,,,katie_3,001,2020_Jan_30_1232,posner,3.1.5,60.02127153891268,
0.5,180,1,right,2,4,1,0,1,0,9,7,79,6,,,,,,,,,453.6043338999998,454.10423080000055,454.8216332000002,None,454.1208359000002,454.8049848999999,455.32246320000013,455.80645970000023,left,0,0.7486198999995395,455.32246320000013,None,None,454.1208359000002,455.3057770000005,0.5116103000000294,0.594813200000317,1.7131442999998399,1.7965515000005325,,,,,,katie_3,001,2020_Jan_30_1232,posner,3.1.5,60.02127153891268,
-0.5,180,0,left,2,3,1,0,1,0,10,0,80,4,,,,,,,,,456.09138110000004,456.59108470000047,457.3083962999999,None,456.6075112999997,457.2917187000003,457.8091639000004,458.2932579999997,left,1,0.6622250000000349,457.8091639000004,None,None,456.6075112999997,457.79255699999976,0.5116974000002301,0.5948920999999245,1.7131508000002214,1.7962895000000572,,,,,,katie_3,001,2020_Jan_30_1232,posner,3.1.5,60.02127153891268,
0.5,0,0,right,1,4,1,0,1,0,10,1,81,3,,,,,,,,,458.4944432000002,458.9941918000004,459.7119272,None,459.0108474999997,459.6949792000005,460.2125544999999,460.69675460000053,right,1,0.48265249999985826,460.2125544999999,None,None,459.0108474999997,460.19570470000053,0.5112988000000769,0.5946560000002137,1.7127973999995447,1.7965238999995563,,,,,,katie_3,001,2020_Jan_30_1232,posner,3.1.5,60.02127153891268,
0.5,180,1,right,2,4,1,0,1,0,10,2,82,6,,,,,,,,,460.71403610000016,461.21400689999973,461.93154140000024,None,461.23063360000015,461.91495829999985,462.43210590000035,None,right,1,0.37493590000030963,462.43210590000035,None,None,461.23063360000015,462.41535339999973,0.511472700000013,0.5947323000000324,1.7128068000001804,1.7966224000001603,,,,,,katie_3,001,2020_Jan_30_1232,posner,3.1.5,60.02127153891268,
-0.5,0,1,left,1,3,1,0,1,0,10,3,83,2,,,,,,,,,462.8331868000005,463.3335124000005,464.05124929999965,None,463.35028070000044,464.03442449999966,464.5517840000002,None,left,1,0.3751560000000609,464.5517840000002,None,None,463.35028070000044,464.53493439999966,0.5119133000007423,0.5950972000000547,1.7133219000006648,1.796916300000703,,,,,,katie_3,001,2020_Jan_30_1232,posner,3.1.5,60.02127153891268,
-0.5,0,1,left,1,3,1,0,1,0,10,4,84,0,,,,,,,,,464.95280749999984,465.4530555000001,466.17053899999974,None,465.4696493000001,466.1539479000003,466.6712956000001,None,left,1,0.35174109999934444,466.6712956000001,None,None,465.4696493000001,466.6545607999997,0.5117861000007906,0.595097700000224,1.7132729000004474,1.7969024000003628,,,,,,katie_3,001,2020_Jan_30_1232,posner,3.1.5,60.02127153891268,
0.5,180,1,right,2,4,1,0,1,0,10,5,85,5,,,,,,,,,467.03949660000035,467.5392374000003,468.256934,None,467.55579320000015,468.2402855,468.7575563999999,None,right,1,0.2574752999998964,468.7575563999999,None,None,467.55579320000015,468.7407232000005,0.5115277000004426,0.5948926999999458,1.7129970000005414,1.796797200000583,,,,,,katie_3,001,2020_Jan_30_1232,posner,3.1.5,60.02127153891268,
0.5,180,1,right,2,4,1,0,1,0,10,6,86,7,,,,,,,,,469.0421452999999,469.5420868000001,470.25955109999995,None,469.55884309999965,470.2428977999998,470.76045369999974,None,right,1,0.42263180000009015,470.76045369999974,None,None,469.55884309999965,470.74358910000046,0.511336399999891,0.594671599999856,1.712825000000521,1.7961392000006526,,,,,,katie_3,001,2020_Jan_30_1232,posner,3.1.5,60.02127153891268,
-0.5,0,1,left,1,3,1,0,1,0,10,7,87,1,,,,,,,,,471.2113175000004,471.7116216000004,472.4293008000004,None,471.72836559999996,472.4126422999998,472.9300267999997,None,left,1,0.404918500000349,472.9300267999997,None,None,471.72836559999996,472.9136897999997,0.5117105000008451,0.5950785000004544,1.7137525000007372,1.7967920000000959,,,,,,katie_3,001,2020_Jan_30_1232,posner,3.1.5,60.02127153891268,
,,,,,,1,0,1,0,,,,,,,,,,,,,,,,,,,,,,,,,,,,,,,,,,473.3641195,None,1.700000029813964e-05,0.9959460999998555,katie_3,001,2020_Jan_30_1232,posner,3.1.5,60.02127153891268,
0.5,0,0,right,1,4,2,0,2,0,0,0,0,3,1.1799999811046291e-05,0.09753739999996469,534.3810812000002,None,1.5499999790336005e-05,0.09787940000023809,536.4840221000004,None,536.7708874999998,537.2684589999999,537.9860509,None,537.2851540000001,537.9696441000006,538.4868167000004,538.9707938000001,right,1,0.8480102000003171,538.4868167000004,None,None,537.2851540000001,538.4701798000006,0.5063871999991534,0.589905899999394,1.7080606999998054,1.7915104999992764,,,,,,katie_3,001,2020_Jan_30_1232,posner,3.1.5,60.02127153891268,
-0.5,0,1,left,1,3,2,0,2,0,0,1,1,2,,,,,,,,,539.3555945999997,539.8554302000002,540.5731495999999,None,539.8722287,540.5562618000004,541.0736674999998,None,left,1,0.34108109999942826,541.0736674999998,None,None,539.8722287,541.0567842,0.5108376999996835,0.5942892000002757,1.7121723000000202,1.795947999999953,,,,,,katie_3,001,2020_Jan_30_1232,posner,3.1.5,60.02127153891268,
-0.5,180,0,left,2,3,2,0,2,0,0,2,2,4,,,,,,,,,541.4415897999997,541.9415976999999,542.6592963000003,None,541.9582258999999,542.6427930999998,543.1599151,None,left,1,0.40694619999976567,543.1599151,None,None,541.9582258999999,543.1432861000003,0.511552799999663,0.5948502000001099,1.713223800000378,1.796436800000265,,,,,,katie_3,001,2020_Jan_30_1232,posner,3.1.5,60.02127153891268,
0.5,180,1,right,2,4,2,0,2,0,0,3,3,6,,,,,,,,,543.5947760999998,544.0946887999999,544.8121587000005,None,544.1113090999997,544.7953970999997,545.3130797000003,None,right,1,0.27767730000050506,545.3130797000003,None,None,544.1113090999997,545.2961370000003,0.5119924000000537,0.5951998000000458,1.7134138999999777,1.7969578000002002,,,,,,katie_3,001,2020_Jan_30_1232,posner,3.1.5,60.02127153891268,
0.5,180,1,right,2,4,2,0,2,0,0,4,4,5,,,,,,,,,545.6140440999998,546.1139224999997,546.8316898000003,None,546.1306488,546.8149424000003,547.3323989,None,right,1,0.4664089999996577,547.3323989,None,None,546.1306488,547.3156101000004,0.5114966000001004,0.5949957000002541,1.7131711000001815,1.796912699999666,,,,,,katie_3,001,2020_Jan_30_1232,posner,3.1.5,60.02127153891268,
-0.5,0,1,left,1,3,2,0,2,0,0,5,5,1,,,,,,,,,547.8170129999999,548.3169815000001,549.0349155000004,None,548.3337484000003,549.0179301999997,549.5352054000005,547.8170129999999,left,1,0.3675361999994493,549.5352054000005,None,None,548.3337484000003,549.5188945,0.5117982000001575,0.5954062000000704,1.7136914000002434,1.7969507999996495,,,,,,katie_3,001,2020_Jan_30_1232,posner,3.1.5,60.02127153891268,
-0.5,0,1,left,1,3,2,0,2,0,0,6,6,0,,,,,,,,,549.9205136,550.4199774999997,551.1373887,None,550.4364160000005,551.1211736000005,551.6381407999997,None,left,1,0.3765193999997791,551.6381407999997,None,None,550.4364160000005,551.6218393999998,0.5112128999999186,0.5945239000002402,1.7130591000004642,1.7960060000004887,,,,,,katie_3,001,2020_Jan_30_1232,posner,3.1.5,60.02127153891268,
0.5,180,1,right,2,4,2,0,2,0,0,7,7,7,,,,,,,,,552.0397333999999,552.5396339999998,553.2570415,None,552.5559432999999,553.2404138000002,553.7581706999999,None,right,1,0.40058399999998073,553.7581706999999,None,None,552.5559432999999,553.7410725999998,0.511569999999665,0.5950378999996246,1.7129924000000756,1.79636119999941,,,,,,katie_3,001,2020_Jan_30_1232,posner,3.1.5,60.02127153891268,
0.5,180,1,right,2,4,2,0,2,0,1,0,8,6,,,,,,,,,554.1753086999997,554.6757646000005,555.3935380000003,None,554.6924533000001,555.3766096999998,555.8941467000004,None,right,1,0.34436379999988276,555.8941467000004,None,None,554.6924533000001,555.8773442000002,0.5122622999997475,0.5956898000004003,1.7138224000000264,1.7974230999998326,,,,,,katie_3,001,2020_Jan_30_1232,posner,3.1.5,60.02127153891268,
-0.5,180,0,left,2,3,2,0,2,0,1,1,9,4,,,,,,,,,556.2616913000002,556.7621498999997,557.4795483999997,None,556.7787599000003,557.4630917000004,557.9804715999999,None,left,1,0.33021800000005896,557.9804715999999,None,None,556.7787599000003,557.9635452000002,0.5118087999999261,0.5948655000001963,1.7131935000006706,1.796465200000057,,,,,,katie_3,001,2020_Jan_30_1232,posner,3.1.5,60.02127153891268,
-0.5,0,1,left,1,3,2,0,2,0,1,2,10,2,,,,,,,,,558.3314029000003,558.8315277000002,559.5493361999997,None,558.8481694000002,559.5324836999998,560.0498530000004,None,left,1,0.3248388000001796,560.0498530000004,None,None,558.8481694000002,560.0332331999998,0.5118990999999369,0.595209000000068,1.7135823999997228,1.7969481999998607,,,,,,katie_3,001,2020_Jan_30_1232,posner,3.1.5,60.02127153891268,
-0.5,0,1,left,1,3,2,0,2,0,1,3,11,1,,,,,,,,,560.4011214000002,560.9011626000001,561.6188274000006,None,560.9178166000002,561.6020939,562.1195348000001,None,left,1,0.3750849999996717,562.1195348000001,None,None,560.9178166000002,562.1029547999997,0.511760299999878,0.5950714999999036,1.713517199999842,1.7966066999997565,,,,,,katie_3,001,2020_Jan_30_1232,posner,3.1.5,60.02127153891268,
0.5,180,1,right,2,4,2,0,2,0,1,4,12,7,,,,,,,,,562.5206224000003,563.0205705999997,563.7384247999998,None,563.0372776000004,563.7216479999997,564.2388799999999,None,right,1,0.31967789999998786,564.2388799999999,None,None,563.0372776000004,564.2222394999999,0.5113429000002725,0.5949188000004142,1.7129949000000124,1.7962618999999904,,,,,,katie_3,001,2020_Jan_30_1232,posner,3.1.5,60.02127153891268,
0.5,0,0,right,1,4,2,0,2,0,1,5,13,3,,,,,,,,,564.5902512000002,565.0904928,565.8076632000002,None,565.1068186000002,565.7910314999999,566.3084819000005,None,right,1,0.4021247000000585,566.3084819000005,None,None,565.1068186000002,566.2917329000002,0.5120414000002711,0.5951450000002296,1.7132701000000452,1.7967059000002337,,,,,,katie_3,001,2020_Jan_30_1232,posner,3.1.5,60.02127153891268,
-0.5,0,1,left,1,3,2,0,2,0,1,6,14,0,,,,,,,,,566.7260969999998,567.2262788999997,567.9442414000005,None,567.2431836000005,567.9275205000004,568.4447418999998,None,left,1,0.361715600000025,568.4447418999998,None,None,567.2431836000005,568.4280733000005,0.5116299000001163,0.5950940000002447,1.713360300000204,1.7966883999997663,,,,,,katie_3,001,2020_Jan_30_1232,posner,3.1.5,60.02127153891268,
0.5,180,1,right,2,4,2,0,2,0,1,7,15,5,,,,,,,,,568.8294912000001,569.3291897999998,570.0467716000003,None,569.3458056,570.0302689,570.5476803000001,None,right,1,0.37883789999978035,570.5476803000001,None,None,569.3458056,570.5310484000001,0.5114975999995295,0.5949888999994073,1.7133380999994188,1.7967478999999003,,,,,,katie_3,001,2020_Jan_30_1232,posner,3.1.5,60.02127153891268,
-0.5,0,1,left,1,3,2,0,2,0,2,0,16,0,,,,,,,,,570.9489568999998,571.4489745999999,572.1665736000004,None,571.4653564,572.1501004000002,572.6673179,None,left,1,0.3313516999996864,572.6673179,None,None,571.4653564,572.6506471000002,0.5119081000002552,0.5953638000000865,1.713564600000609,1.7970110000005661,,,,,,katie_3,001,2020_Jan_30_1232,posner,3.1.5,60.02127153891268,
0.5,0,0,right,1,4,2,0,2,0,2,1,17,3,,,,,,,,,573.0186564000005,573.5181942999998,574.2358351000003,None,573.5351411000001,574.2193790000001,574.7366830999999,575.2207933,right,1,0.49395540000023175,574.7366830999999,None,None,573.5351411000001,574.7199237000004,0.5110731999993732,0.5946993999996266,1.712772799999584,1.796420599999692,,,,,,katie_3,001,2020_Jan_30_1232,posner,3.1.5,60.02127153891268,
0.5,180,1,right,2,4,2,0,2,0,2,2,18,7,,,,,,,,,575.2546345999999,575.7547759999998,576.4724091999997,None,575.7716607000002,576.4556970000003,576.9731972,None,right,1,0.3615798000000723,576.9731972,None,None,575.7716607000002,576.9563500000004,0.5118381000002046,0.595148600000357,1.7133943000008003,1.7971440000001166,,,,,,katie_3,001,2020_Jan_30_1232,posner,3.1.5,60.02127153891268,
-0.5,0,1,left,1,3,2,0,2,0,2,3,19,1,,,,,,,,,577.3570798999999,577.8575477000004,578.5751452000004,None,577.8742804000003,578.5587383000002,579.0758424000005,None,left,1,0.3387790999995559,579.0758424000005,None,None,577.8742804000003,579.0592648000002,0.5115004999997836,0.5950669000003472,1.7132019999999102,1.796780800000306,,,,,,katie_3,001,2020_Jan_30_1232,posner,3.1.5,60.02127153891268,
0.5,180,1,right,2,4,2,0,2,0,2,4,20,6,,,,,,,,,579.4436089999999,579.9440618999997,580.6615410000004,None,579.9605646999998,580.6448634999997,581.1623145000003,None,right,1,0.3562724999992497,581.1623145000003,None,None,579.9605646999998,581.1453652,0.5119596000004094,0.5953263000001243,1.713248900000508,1.7970060000006924,,,,,,katie_3,001,2020_Jan_30_1232,posner,3.1.5,60.02127153891268,
-0.5,0,1,left,1,3,2,0,2,0,2,5,21,2,,,,,,,,,581.5467584999997,582.0466046000001,582.7643330000001,None,582.0635043000002,582.7476898000004,583.2650328999998,None,left,1,0.3896559000004345,583.2650328999998,None,None,582.0635043000002,583.2484857999998,0.5113641000007192,0.5949874000007185,1.713228500000696,1.7968040000005203,,,,,,katie_3,001,2020_Jan_30_1232,posner,3.1.5,60.02127153891268,
-0.5,180,0,left,2,3,2,0,2,0,2,6,22,4,,,,,,,,,583.6832725000004,584.1832042000005,584.9008863999998,None,584.1997002999997,584.8841096000006,585.4014624000001,None,left,1,0.4609296999997241,585.4014624000001,None,None,584.1997002999997,585.3846918999998,0.5117350000000442,0.5949209999998857,1.7132070999996358,1.7969503000003897,,,,,,katie_3,001,2020_Jan_30_1232,posner,3.1.5,60.02127153891268,
0.5,180,1,right,2,4,2,0,2,0,2,7,23,5,,,,,,,,,585.8853380999999,586.3860764000001,587.1036559000004,None,586.4029735000004,587.0873393000002,587.6043171000001,585.8853380999999,right,1,0.3302507999997033,587.6043171000001,None,None,586.4029735000004,587.5882080000001,0.5124547000004895,0.5960162999999739,1.7146044999999503,1.7976372000002812,,,,,,katie_3,001,2020_Jan_30_1232,posner,3.1.5,60.02127153891268,
-0.5,0,1,left,1,3,2,0,2,0,3,0,24,1,,,,,,,,,587.9557390999998,588.4555589000001,589.1734318999997,None,588.4723635,589.1564097,589.6738795000001,590.1581977000005,left,1,0.484878000000208,589.6738795000001,None,None,588.4723635,589.6570247,0.5114980999996988,0.5951392999995733,1.712943799999266,1.796696499999598,,,,,,katie_3,001,2020_Jan_30_1232,posner,3.1.5,60.02127153891268,
0.5,180,1,right,2,4,2,0,2,0,3,1,25,7,,,,,,,,,590.1747772999997,590.6753171,591.3931373000005,None,590.6920431999997,591.3762142000005,591.8935687000003,None,right,1,0.3290744000005361,591.8935687000003,None,None,590.6920431999997,591.8768483000003,0.5120827999999165,0.5953674000002138,1.7135898999995334,1.7971865999998045,,,,,,katie_3,001,2020_Jan_30_1232,posner,3.1.5,60.02127153891268,
0.5,180,1,right,2,4,2,0,2,0,3,2,26,5,,,,,,,,,592.2454588999999,592.7450877000001,593.4625118000004,None,592.7615038000004,593.4455718999998,593.9633824000002,594.4470597,right,1,0.47499880000032135,593.9633824000002,None,None,592.7615038000004,593.9464226,0.5115243000000191,0.5946987999996054,1.7128408999997191,1.7962988999997833,,,,,,katie_3,001,2020_Jan_30_1232,posner,3.1.5,60.02127153891268,
0.5,180,1,right,2,4,2,0,2,0,3,3,27,6,,,,,,,,,594.4643034999999,594.9646487,595.6822748000004,None,594.9812226000004,595.6654870000002,596.1830950000003,596.6668746000005,right,1,0.4714272000001074,596.1830950000003,None,None,594.9812226000004,596.1660474999999,0.5117629999995188,0.5952330000000075,1.7131478999999672,1.796880599999895,,,,,,katie_3,001,2020_Jan_30_1232,posner,3.1.5,60.02127153891268,
-0.5,0,1,left,1,3,2,0,2,0,3,4,28,2,,,,,,,,,596.6838325999997,597.1842797999998,597.9018961000002,None,597.2010640999997,597.8850480000001,598.4026876999997,598.8866982,left,1,0.48390459999973245,598.4026876999997,None,None,597.2010640999997,598.3857533,0.5115600000008271,0.5952488000002631,1.7130215000006501,1.7966598000002705,,,,,,katie_3,001,2020_Jan_30_1232,posner,3.1.5,60.02127153891268,
-0.5,180,0,left,2,3,2,0,2,0,3,5,29,4,,,,,,,,,598.9035816000005,599.4042227,600.121631,None,599.4206537999999,600.1048148999998,600.6224468,601.106366,left,1,0.6641418999997768,600.6224468,None,None,599.4206537999999,600.6056966000006,0.5123636999996961,0.5956328999991456,1.7138209999993705,1.7972646999996869,,,,,,katie_3,001,2020_Jan_30_1232,posner,3.1.5,60.02127153891268,
0.5,0,0,right,1,4,2,0,2,0,3,6,30,3,,,,,,,,,601.3074771000001,601.8072116000003,602.5246517000005,None,601.8239732000002,602.5083200999998,603.0254477999997,603.5096549999998,right,1,0.5090700000000652,603.0254477999997,None,None,601.8239732000002,603.0089997000005,0.511389300000701,0.5948482000003423,1.7131506000005174,1.796737800000301,,,,,,katie_3,001,2020_Jan_30_1232,posner,3.1.5,60.02127153891268,
-0.5,0,1,left,1,3,2,0,2,0,3,7,31,0,,,,,,,,,603.5607787999998,604.0605561000002,604.7782539999998,None,604.0770312000004,604.7613081,605.2787933999998,605.7628344000004,left,1,0.5837131999996927,605.2787933999998,None,None,604.0770312000004,605.2622228,0.511424000000261,0.5946498000002975,1.7130761999997048,1.7962437000005593,,,,,,katie_3,001,2020_Jan_30_1232,posner,3.1.5,60.02127153891268,
-0.5,0,1,left,1,3,2,0,2,0,4,0,32,2,,,,,,,,,605.8805284,606.3803780999997,607.0979472999998,None,606.3968950999997,607.0812464,607.5986333999999,608.0826305,left,1,0.5118509000003542,607.5986333999999,None,None,606.3968950999997,607.5819781999999,0.5114614999993137,0.5947387999995044,1.7130546999997023,1.7964075999998386,,,,,,katie_3,001,2020_Jan_30_1232,posner,3.1.5,60.02127153891268,
-0.5,0,1,left,1,3,2,0,2,0,4,1,33,0,,,,,,,,,608.133366,608.6334335000001,609.3511688999997,None,608.6501798999998,609.3343001000003,609.8518833999997,610.3357820000001,right,0,0.4825934000000416,609.8518833999997,None,None,608.6501798999998,609.8349250000001,0.5117913000003682,0.5950535000001764,1.713334400000349,1.7968614999999772,,,,,,katie_3,001,2020_Jan_30_1232,posner,3.1.5,60.02127153891268,
0.5,180,1,right,2,4,2,0,2,0,4,2,34,5,,,,,,,,,610.3531112000001,610.8531379000005,611.5705135999997,None,610.8697234000001,611.5541701000002,612.0714101000003,None,right,1,0.326944999999796,612.0714101000003,None,None,610.8697234000001,612.0545818999999,0.5115218999999342,0.5949153000001388,1.712950600000113,1.7966020000003482,,,,,,katie_3,001,2020_Jan_30_1232,posner,3.1.5,60.02127153891268,
-0.5,0,1,left,1,3,2,0,2,0,4,3,35,1,,,,,,,,,612.4221644999998,612.9226211000005,613.6403535,None,612.9393802000004,613.6236283999997,614.1410113000002,614.6248176999998,left,1,0.9374567999993815,614.1410113000002,None,None,612.9393802000004,614.1240989999997,0.5121454999998605,0.5954658000000563,1.7135996000006344,1.7971809999999095,,,,,,katie_3,001,2020_Jan_30_1232,posner,3.1.5,60.02127153891268,
0.5,0,0,right,1,4,2,0,2,0,4,4,36,3,,,,,,,,,615.1094270000003,615.6096789000003,616.3272678000003,None,615.6260935999999,616.3106994,616.8279720999999,None,right,1,0.34641280000050756,616.8279720999999,None,None,615.6260935999999,616.8112725000001,0.5113691999995353,0.5946536000001288,1.7129476999998587,1.796412199999395,,,,,,katie_3,001,2020_Jan_30_1232,posner,3.1.5,60.02127153891268,
0.5,180,1,right,2,4,2,0,2,0,4,5,37,6,,,,,,,,,617.1954054999997,617.6957525999997,618.4135397,None,617.7128381000002,618.3967668000005,618.9140362999997,619.3981924999998,right,1,0.6603893999999855,618.9140362999997,None,None,617.7128381000002,618.8974091,0.5118048999993334,0.595226299999922,1.713449199999559,1.7970811999994112,,,,,,katie_3,001,2020_Jan_30_1232,posner,3.1.5,60.02127153891268,
0.5,180,1,right,2,4,2,0,2,0,4,6,38,7,,,,,,,,,619.5994161999997,620.0990785000004,620.8168155000003,None,620.1157185000002,620.8001346000001,621.3174030999999,None,right,1,0.40113519999977143,621.3174030999999,None,None,620.1157185000002,621.3009317000005,0.5113470000005691,0.5949779000002309,1.7131767999999283,1.7963077000003977,,,,,,katie_3,001,2020_Jan_30_1232,posner,3.1.5,60.02127153891268,
-0.5,180,0,left,2,3,2,0,2,0,4,7,39,4,,,,,,,,,621.7350287999998,622.2353946000003,622.9531889999998,None,622.2522120000003,622.9362679000005,623.4537251000002,623.9376825999998,left,1,0.5606999000001451,623.4537251000002,None,None,622.2522120000003,623.4368811000004,0.511694400000124,0.5951897000004465,1.7131684000005407,1.796655300000566,,,,,,katie_3,001,2020_Jan_30_1232,posner,3.1.5,60.02127153891268,
-0.5,0,1,left,1,3,2,0,2,0,5,0,40,2,,,,,,,,,624.0387122000002,624.5385607999997,625.2561553000005,None,624.5550906999997,625.2395105000005,625.7567662000001,None,left,1,0.3297197000001688,625.7567662000001,None,None,624.5550906999997,625.7402671,0.5116572999995697,0.5951586999999563,1.7133457999998427,1.7965532999996867,,,,,,katie_3,001,2020_Jan_30_1232,posner,3.1.5,60.02127153891268,
0.5,180,1,right,2,4,2,0,2,0,5,1,41,7,,,,,,,,,626.1083256000002,626.6082677000004,627.3256468999998,None,626.6246212000005,627.3091602000004,627.8262960000002,None,right,1,0.3480847000000722,627.8262960000002,None,None,626.6246212000005,627.8098015000005,0.5117264999998952,0.5949956000004022,1.713249100000212,1.796706500000255,,,,,,katie_3,001,2020_Jan_30_1232,posner,3.1.5,60.02127153891268,
0.5,180,1,right,2,4,2,0,2,0,5,2,42,5,,,,,,,,,628.1940977000004,628.6944629999998,629.4121420000001,None,628.7109353000005,629.3949881999997,629.9126993999998,630.3965172999997,right,1,0.49363890000040556,629.9126993999998,None,None,628.7109353000005,629.8958468000001,0.5119449000003442,0.5952457000003051,1.7133102999996481,1.7969706000003498,,,,,,katie_3,001,2020_Jan_30_1232,posner,3.1.5,60.02127153891268,
0.5,0,0,right,1,4,2,0,2,0,5,3,43,3,,,,,,,,,630.4307908000001,630.9305351000003,631.6484118999997,None,630.9473552999998,631.6317325999999,632.1489825999997,632.6330688999997,right,1,0.5373592999994798,632.1489825999997,None,None,630.9473552999998,632.1324758000001,0.5114590000002863,0.595044699999562,1.7133764999998675,1.7965616999999838,,,,,,katie_3,001,2020_Jan_30_1232,posner,3.1.5,60.02127153891268,
-0.5,180,0,left,2,3,2,0,2,0,5,4,44,4,,,,,,,,,632.7168449000001,633.2170315000003,633.9347060999999,None,633.2339327999998,633.9181543000004,634.4352551000002,None,left,1,0.45117410000057134,634.4352551000002,None,None,633.2339327999998,634.4189758000002,0.5114541000002646,0.5951173000003109,1.7133750000002692,1.796835899999678,,,,,,katie_3,001,2020_Jan_30_1232,posner,3.1.5,60.02127153891268,
-0.5,0,1,left,1,3,2,0,2,0,5,5,45,0,,,,,,,,,634.9034928000001,635.4035180000001,636.1212249,None,635.4202845,636.1044416000004,636.6217864,None,left,1,0.4567263999997522,636.6217864,None,None,635.4202845,636.6049439999997,0.5117935999996917,0.595043700000133,1.713201200000185,1.796878099999958,,,,,,katie_3,001,2020_Jan_30_1232,posner,3.1.5,60.02127153891268,
0.5,180,1,right,2,4,2,0,2,0,5,6,46,6,,,,,,,,,637.1060106000004,637.6063814999998,638.3241262000001,None,637.6231939999998,638.3073806000002,638.8247719999999,637.1060106000004,right,1,0.3976470999996309,638.8247719999999,None,None,637.6231939999998,638.8081545000005,0.51120230000015,0.5946385999995982,1.7129629000000932,1.7966151999999056,,,,,,katie_3,001,2020_Jan_30_1232,posner,3.1.5,60.02127153891268,
-0.5,0,1,left,1,3,2,0,2,0,5,7,47,1,,,,,,,,,639.2421973,639.7427820000003,640.4604635000005,None,639.7596934000003,640.4438408000005,640.9611258000004,None,left,1,0.349187300000267,640.9611258000004,None,None,639.7596934000003,640.9443297999997,0.5117651000000478,0.5950178999992204,1.7133002999999007,1.7968352999996569,,,,,,katie_3,001,2020_Jan_30_1232,posner,3.1.5,60.02127153891268,
-0.5,180,0,left,2,3,2,0,2,0,6,0,48,4,,,,,,,,,641.3291995,641.8290297000003,642.5464953000001,None,641.8456322000002,642.5300317000001,643.0471488000003,643.5311953,left,1,0.5031759000003149,643.0471488000003,None,None,641.8456322000002,643.0306400999998,0.5114173999991181,0.5948290999995152,1.7130202999996982,1.7964107999996486,,,,,,katie_3,001,2020_Jan_30_1232,posner,3.1.5,60.02127153891268,
-0.5,0,1,left,1,3,2,0,2,0,6,1,49,2,,,,,,,,,643.5817177999998,644.0821332000005,644.7995704000004,None,644.0987759,644.7830298999997,645.3004806999998,None,left,1,0.3537594999997964,645.3004806999998,None,None,644.0987759,645.2836090000001,0.5119001000002754,0.5952889999998661,1.713363500000014,1.7967184999997698,,,,,,katie_3,001,2020_Jan_30_1232,posner,3.1.5,60.02127153891268,
0.5,180,1,right,2,4,2,0,2,0,6,2,50,7,,,,,,,,,645.6844923999997,646.1849018000003,646.9029394999998,None,646.2015375000001,646.8859620000003,647.4033852000002,None,right,1,0.33096800000021176,647.4033852000002,None,None,646.2015375000001,647.3866027000004,0.5119808999997986,0.5951514999997016,1.7136551000003237,1.7972041000002719,,,,,,katie_3,001,2020_Jan_30_1232,posner,3.1.5,60.02127153891268,
-0.5,0,1,left,1,3,2,0,2,0,6,3,51,0,,,,,,,,,647.7547087000003,648.2546374000003,648.9723278000001,None,648.2711952999998,648.9555247999997,649.4729614999997,649.9569142,right,0,0.5174973000002865,649.4729614999997,None,None,648.2711952999998,649.4561705000006,0.5117263000001913,0.5952038000004904,1.71324580000055,1.7968534999999974,,,,,,katie_3,001,2020_Jan_30_1232,posner,3.1.5,60.02127153891268,
-0.5,0,1,left,1,3,2,0,2,0,6,4,52,1,,,,,,,,,650.0069469,650.5078082,651.2251690000003,None,650.5243220000002,651.2086733000006,651.7258956000005,None,left,1,0.41650529999969876,651.7258956000005,None,None,650.5243220000002,651.7093384,0.5122314000000188,0.5958065000004353,1.7137482000007367,1.797198600000229,,,,,,katie_3,001,2020_Jan_30_1232,posner,3.1.5,60.02127153891268,
0.5,0,0,right,1,4,2,0,2,0,6,5,53,3,,,,,,,,,652.1606558000003,652.6605218000004,653.3783390999997,None,652.6773334999998,653.3616910000001,653.8789089000002,654.3631860000005,right,1,0.4713093000000299,653.8789089000002,None,None,652.6773334999998,653.8622777999999,0.5115495999998529,0.5949225000003935,1.7132885999999417,1.7965634000001955,,,,,,katie_3,001,2020_Jan_30_1232,posner,3.1.5,60.02127153891268,
0.5,180,1,right,2,4,2,0,2,0,6,6,54,5,,,,,,,,,654.3802559000005,654.8803846999999,655.5980550000004,None,654.8970448999999,655.5813006999997,656.0986245000004,656.5827279000005,right,1,0.507610200000272,656.0986245000004,None,None,654.8970448999999,656.0819984,0.5113335000005463,0.5944467999997869,1.7129337000005762,1.7962937000002057,,,,,,katie_3,001,2020_Jan_30_1232,posner,3.1.5,60.02127153891268,
0.5,180,1,right,2,4,2,0,2,0,6,7,55,6,,,,,,,,,656.6333823000004,657.1335752000005,657.8510277000005,None,657.1501036999998,657.8343111000004,658.3517039999997,None,right,1,0.4387197999994896,658.3517039999997,None,None,657.1501036999998,658.3350520000004,0.5118417000003319,0.595153900000696,1.713305300000684,1.7967939000000115,,,,,,katie_3,001,2020_Jan_30_1232,posner,3.1.5,60.02127153891268,
0.5,180,1,right,2,4,2,0,2,0,7,0,56,5,,,,,,,,,658.8199139999997,659.3198837999998,660.0373102000003,None,659.3364957000003,660.0207301999999,660.5383057999998,661.0221683999998,right,1,0.5319291999994675,660.5383057999998,None,None,659.3364957000003,660.5213503000004,0.5115200999998706,0.5948601000000053,1.7129749999994601,1.7963706000000457,,,,,,katie_3,001,2020_Jan_30_1232,posner,3.1.5,60.02127153891268,
-0.5,0,1,left,1,3,2,0,2,0,7,1,57,1,,,,,,,,,661.0897457000001,661.5895319000001,662.3070796000002,None,661.6060427000002,662.2905006000001,662.8077312000005,None,left,1,0.44647509999958856,662.8077312000005,None,None,661.6060427000002,662.7911720000002,0.5116752000003544,0.5951159000005646,1.7133009000008315,1.796519200000148,,,,,,katie_3,001,2020_Jan_30_1232,posner,3.1.5,60.02127153891268,
-0.5,180,0,left,2,3,2,0,2,0,7,2,58,4,,,,,,,,,663.2758647999999,663.7757051999997,664.4936611000003,None,663.7925685999999,664.4765616000004,664.9940767999997,None,left,1,0.460328600000139,664.9940767999997,None,None,663.7925685999999,664.9774637,0.5113695000000007,0.5949319000001196,1.713114900000619,1.7965443000002779,,,,,,katie_3,001,2020_Jan_30_1232,posner,3.1.5,60.02127153891268,
-0.5,0,1,left,1,3,2,0,2,0,7,3,59,0,,,,,,,,,665.4790173000001,665.9790300000004,666.6965919000004,None,665.9953179000004,666.6798913000002,667.1971093000002,665.4790173000001,left,1,0.40912890000072366,667.1971093000002,None,None,665.9953179000004,667.1804786000002,0.511683699999594,0.5950732000001153,1.7131184999998368,1.796611099999609,,,,,,katie_3,001,2020_Jan_30_1232,posner,3.1.5,60.02127153891268,
0.5,0,0,right,1,4,2,0,2,0,7,4,60,3,,,,,,,,,667.6316636000001,668.1319699000005,668.8493411999998,None,668.1485658000001,668.8328478000003,669.3503161999997,None,right,1,0.4319164999997156,669.3503161999997,None,None,668.1485658000001,669.3334174000001,0.5116875999992772,0.5948774999997113,1.71312239999952,1.7966012999995655,,,,,,katie_3,001,2020_Jan_30_1232,posner,3.1.5,60.02127153891268,
-0.5,0,1,left,1,3,2,0,2,0,7,5,61,2,,,,,,,,,669.8012889000001,670.3015137000002,671.0192036999997,None,670.3183263000001,671.0026121999999,671.5197779,672.0038862000001,left,1,0.5024382999999943,671.5197779,None,None,670.3183263000001,671.5032263000003,0.5117762999998376,0.5951796999997896,1.7134664000004705,1.7971855000005235,,,,,,katie_3,001,2020_Jan_30_1232,posner,3.1.5,60.02127153891268,
0.5,180,1,right,2,4,2,0,2,0,7,6,62,6,,,,,,,,,672.0378921000001,672.5382086,673.2555574999997,None,672.5546376000002,673.2389910000002,673.7562811999996,None,right,1,0.36984879999999976,673.7562811999996,None,None,672.5546376000002,673.7395483,0.5120126000001619,0.5952126000001954,1.7133420000000115,1.7967734000003475,,,,,,katie_3,001,2020_Jan_30_1232,posner,3.1.5,60.02127153891268,
0.5,180,1,right,2,4,2,0,2,0,7,7,63,7,,,,,,,,,674.1567525,674.6576974999998,675.3750849999997,None,674.6742632000005,675.3585923,675.8756558000005,676.3598748000004,None,0,,675.8756558000005,None,None,674.6742632000005,675.8592060999999,0.5121062000007441,0.5952660000002652,1.7136117000000013,1.7969988000004378,,,,,,katie_3,001,2020_Jan_30_1232,posner,3.1.5,60.02127153891268,
-0.5,180,0,left,2,3,2,0,2,0,8,0,64,4,,,,,,,,,676.8604427,677.3612375000002,678.0788622,676.8604427,677.3780244999998,678.0621429000003,678.5796204999997,679.0637820000002,left,1,0.4985759999999573,678.5796204999997,None,None,677.3780244999998,678.5629410000001,0.5135975000002873,0.5970388000005187,1.7152903000005608,1.7986637000003611,,,,,,katie_3,001,2020_Jan_30_1232,posner,3.1.5,60.02127153891268,
-0.5,0,1,left,1,3,2,0,2,0,8,1,65,0,,,,,,,,,679.0979795000003,679.5977562999997,680.3152537000005,None,679.6141183999998,680.2985531000004,680.8158423000004,681.2999087999997,left,1,0.526346000000558,680.8158423000004,None,None,679.6141183999998,680.7993065999999,0.5117331999999806,0.5950888999996096,1.7132679999995162,1.7966841999996177,,,,,,katie_3,001,2020_Jan_30_1232,posner,3.1.5,60.02127153891268,
0.5,0,0,right,1,4,2,0,2,0,8,2,66,3,,,,,,,,,681.3668886000005,681.8673839000003,682.5850972999997,None,681.8840602999999,682.5684594000004,683.0854853000001,683.5698893999997,right,1,0.9527634000005492,683.0854853000001,None,None,681.8840602999999,683.0691113000003,0.5123662999994849,0.5959702000000107,1.7140467999997782,1.7974821999996493,,,,,,katie_3,001,2020_Jan_30_1232,posner,3.1.5,60.02127153891268,
0.5,180,1,right,2,4,2,0,2,0,8,3,67,7,,,,,,,,,684.0544577000001,684.5544749000001,685.2722271000002,None,684.5711927000002,685.2554836999998,685.772798,None,right,1,0.40128660000027594,685.772798,None,None,684.5711927000002,685.7559571000002,0.5117495000004055,0.5950778000005812,1.7132159000002503,1.7968785000002754,,,,,,katie_3,001,2020_Jan_30_1232,posner,3.1.5,60.02127153891268,
-0.5,0,1,left,1,3,2,0,2,0,8,4,68,2,,,,,,,,,686.1906830999997,686.6907651000001,687.4084304999997,None,686.7074626000003,687.3917774000001,687.9092059000004,None,left,1,0.4489533999994819,687.9092059000004,None,None,686.7074626000003,687.8924268000001,0.5115998999999647,0.5947748999997202,1.7132504999999583,1.796586199999183,,,,,,katie_3,001,2020_Jan_30_1232,posner,3.1.5,60.02127153891268,
-0.5,0,1,left,1,3,2,0,2,0,8,5,69,1,,,,,,,,,688.3770375000004,688.8769886999999,689.5945990999999,None,688.8937009000001,689.5781827000001,690.0952930000003,None,left,1,0.4389651999999842,690.0952930000003,None,None,688.8937009000001,690.0787542999997,0.5114723999995476,0.5950173000001087,1.7132197999999335,1.7967955999993137,,,,,,katie_3,001,2020_Jan_30_1232,posner,3.1.5,60.02127153891268,
0.5,180,1,right,2,4,2,0,2,0,8,6,70,6,,,,,,,,,690.5630290999998,691.0633659000005,691.7812792000004,None,691.0801873,691.7641387000003,692.2817360999998,None,left,0,0.39630680000027496,692.2817360999998,None,None,691.0801873,692.2649407999997,0.5117752999994991,0.5951909999994314,1.713338499999736,1.7968575999993845,,,,,,katie_3,001,2020_Jan_30_1232,posner,3.1.5,60.02127153891268,
