targetX,cueOri,congr,corrAns,pin_cue,pin_target,block.thisRepN,block.thisTrialN,block.thisN,block.thisIndex,posner_task.thisRepN,posner_task.thisTrialN,posner_task.thisN,posner_task.thisIndex,port_start_block.started,port_start_block.stopped,text_2.started,text_2.stopped,p_port.started,p_port.stopped,text.started,text.stopped,fixation_1.started,fixation_1.stopped,fixation_2.started,fixation_2.stopped,cue.started,cue.stopped,target.started,target.stopped,correct_key_resp.keys,correct_key_resp.corr,correct_key_resp.rt,correct_key_resp.started,correct_key_resp.stopped,early_resp.keys,early_resp.started,early_resp.stopped,trigger_cue.started,trigger_cue.stopped,trigger_target.started,trigger_target.stopped,break_text.started,break_text.stopped,end_port.started,end_port.stopped,early_resp.rt,participant,session,date,expName,psychopyVersion,frameRate,
0.5,180,1,right,2,4,0,0,0,0,0,0,0,5,1.8400000044493936e-05,0.09224919999996928,23.880060200000116,None,3.509999987727497e-05,0.0993081000001439,25.76365059999989,None,26.094467800000075,26.597403499999928,27.31409870000016,None,26.61391109999977,27.29785549999997,27.814476699999886,None,right,1,0.3466734000003271,27.814476699999886,None,None,26.61391109999977,27.79815150000013,0.5122857000001204,0.5956770000002507,1.7130222000000686,1.7959787999998298,,,,,,ashley_1,001,2020_Feb_12_1014,posner,3.1.5,60.007548949615604,
0.5,0,0,right,1,4,0,0,0,0,0,1,1,3,,,,,,,,,28.18344530000013,28.68136400000003,29.39821549999988,None,28.69798159999982,29.38163050000003,29.898402400000123,None,right,1,0.4546448999999484,29.898402400000123,None,None,28.69798159999982,29.881740400000126,0.5100539999998546,0.5933291000001191,1.7104058999998415,1.7936651999998503,,,,,,ashley_1,001,2020_Feb_12_1014,posner,3.1.5,60.007548949615604,
0.5,180,1,right,2,4,0,0,0,0,0,2,2,7,,,,,,,,,30.382495500000005,30.882185500000105,31.59888030000002,None,30.898769800000082,31.5822048,32.09920569999986,30.382495500000005,right,1,0.34192680000023756,32.09920569999986,None,None,30.898769800000082,32.08245029999989,0.5112629000000197,0.5943446000001131,1.7115138999997725,1.7946624000001066,,,,,,ashley_1,001,2020_Feb_12_1014,posner,3.1.5,60.007548949615604,
-0.5,180,0,left,2,3,0,0,0,0,0,3,3,4,,,,,,,,,32.46681209999997,32.96589760000006,33.682966999999735,None,32.98260930000015,33.66641149999987,34.18306870000015,None,left,1,0.3620501999998851,34.18306870000015,None,None,32.98260930000015,34.16637270000001,0.5110368000000562,0.5944718999999168,1.7114995000001727,1.794936300000245,,,,,,ashley_1,001,2020_Feb_12_1014,posner,3.1.5,60.007548949615604,
0.5,180,1,right,2,4,0,0,0,0,0,4,4,6,,,,,,,,,34.56778559999975,35.06674049999992,35.78345669999999,None,35.0832547,35.76689249999981,36.28373599999986,None,right,1,0.3334220000001551,36.28373599999986,None,None,35.0832547,36.26713259999997,0.5107419000000846,0.5940491999999722,1.7111285000000862,1.7946020999997927,,,,,,ashley_1,001,2020_Feb_12_1014,posner,3.1.5,60.007548949615604,
-0.5,0,1,left,1,3,0,0,0,0,0,5,5,0,,,,,,,,,36.634434000000056,37.133958099999745,37.85096470000008,None,37.15069709999989,37.83402560000013,38.35122339999998,None,left,1,0.31389760000001843,38.35122339999998,None,None,37.15069709999989,38.3344333,0.5114975999999842,0.5949067999999897,1.7119532000001527,1.795251300000018,,,,,,ashley_1,001,2020_Feb_12_1014,posner,3.1.5,60.007548949615604,
-0.5,0,1,left,1,3,0,0,0,0,0,6,6,1,,,,,,,,,38.68446159999985,39.184583199999906,39.901451599999746,None,39.20130969999991,39.88473829999975,40.4015758999999,None,left,1,0.3755223999996815,40.4015758999999,None,None,39.20130969999991,40.38491879999992,0.5112452000003032,0.5945673000001079,1.7115614000003916,1.794998900000337,,,,,,ashley_1,001,2020_Feb_12_1014,posner,3.1.5,60.007548949615604,
-0.5,0,1,left,1,3,0,0,0,0,0,7,7,2,,,,,,,,,40.80294090000007,41.30198440000004,42.01872259999982,None,41.31854539999995,42.0022598999999,42.518991500000084,None,left,1,0.3860147999998844,42.518991500000084,None,None,41.31854539999995,42.502430600000025,0.511109800000213,0.5944318000001658,1.7115396000003784,1.7946700000002238,,,,,,ashley_1,001,2020_Feb_12_1014,posner,3.1.5,60.007548949615604,
-0.5,0,1,left,1,3,0,0,0,0,1,0,8,2,,,,,,,,,42.93657189999976,43.43583919999992,44.15269559999979,None,43.45255139999972,44.13609889999998,44.65290330000016,None,left,1,0.4121468999996978,44.65290330000016,None,None,43.45255139999972,44.636534799999936,0.5110723000002508,0.5944770000000972,1.7117484000000331,1.7948983999999655,,,,,,ashley_1,001,2020_Feb_12_1014,posner,3.1.5,60.007548949615604,
0.5,0,0,right,1,4,0,0,0,0,1,1,9,3,,,,,,,,,45.08782829999973,45.586565900000096,46.30324879999989,None,45.60326279999981,46.287085899999965,46.8035918999999,None,right,1,0.32543729999997595,46.8035918999999,None,None,45.60326279999981,46.78719950000004,0.5107110999997531,0.5941124999999374,1.711333199999899,1.7944408999996995,,,,,,ashley_1,001,2020_Feb_12_1014,posner,3.1.5,60.007548949615604,
0.5,180,1,right,2,4,0,0,0,0,1,2,10,7,,,,,,,,,47.15446849999989,47.65378209999972,48.370859499999824,None,47.670637199999874,48.35399890000008,48.87093689999983,None,right,1,0.33799220000037167,48.87093689999983,None,None,47.670637199999874,48.85410490000004,0.5110240000003614,0.5945389000003161,1.711333800000375,1.7946982000003118,,,,,,ashley_1,001,2020_Feb_12_1014,posner,3.1.5,60.007548949615604,
-0.5,0,1,left,1,3,0,0,0,0,1,3,11,1,,,,,,,,,49.238449200000105,49.73785689999977,50.45469580000008,None,49.754423699999734,50.43813799999998,50.95485959999996,None,left,1,0.3502177999998821,50.95485959999996,None,None,49.754423699999734,50.93819200000007,0.5109723000000486,0.5944534999998723,1.7112879999999677,1.7947681000000557,,,,,,ashley_1,001,2020_Feb_12_1014,posner,3.1.5,60.007548949615604,
0.5,180,1,right,2,4,0,0,0,0,1,4,12,5,,,,,,,,,51.32234770000014,51.82205669999985,52.538707899999736,None,51.83855659999972,52.52210789999981,53.03891680000015,None,right,1,0.33801930000026914,53.03891680000015,None,None,51.83855659999972,53.02221789999976,0.5115344000000732,0.5945706000002247,1.7116828000002897,1.7948771000001216,,,,,,ashley_1,001,2020_Feb_12_1014,posner,3.1.5,60.007548949615604,
0.5,180,1,right,2,4,0,0,0,0,1,5,13,6,,,,,,,,,53.40650920000007,53.905710799999724,54.62257039999986,None,53.92233679999981,54.60591669999985,55.12288379999973,None,right,1,0.39813779999985854,55.12288379999973,None,None,53.92233679999981,55.10615759999973,0.5108692999997402,0.5942599999998492,1.7112446000001,1.794746799999757,,,,,,ashley_1,001,2020_Feb_12_1014,posner,3.1.5,60.007548949615604,
-0.5,180,0,left,2,3,0,0,0,0,1,6,14,4,,,,,,,,,55.54079909999973,56.03998479999973,56.756718399999954,None,56.056523599999764,56.74011220000011,57.256926399999884,None,left,1,0.2962180999998054,57.256926399999884,None,None,56.056523599999764,57.2400475999998,0.5112051000000974,0.59420689999979,1.7112513000001854,1.7945190000000366,,,,,,ashley_1,001,2020_Feb_12_1014,posner,3.1.5,60.007548949615604,
-0.5,0,1,left,1,3,0,0,0,0,1,7,15,0,,,,,,,,,57.57470250000006,58.073585900000126,58.790773400000035,None,58.09046209999997,58.774019599999974,59.29088709999996,None,left,1,0.35809059999974124,59.29088709999996,None,None,58.09046209999997,59.27417999999989,0.5107730999998239,0.5943948999997701,1.7113510999997743,1.794579999999769,,,,,,ashley_1,001,2020_Feb_12_1014,posner,3.1.5,60.007548949615604,
-0.5,0,1,left,1,3,0,0,0,0,2,0,16,2,,,,,,,,,59.67558640000016,60.17439409999997,60.89149300000008,None,60.191177700000026,60.874650199999905,61.391406299999744,None,left,1,0.361923299999944,61.391406299999744,None,None,60.191177700000026,61.3747586999998,0.5109587000001738,0.5942041000002973,1.7113044000002446,1.7947684999999183,,,,,,ashley_1,001,2020_Feb_12_1014,posner,3.1.5,60.007548949615604,
-0.5,180,0,left,2,3,0,0,0,0,2,1,17,4,,,,,,,,,61.775658699999894,62.27510029999985,62.991931099999874,None,62.29180859999997,62.97551489999978,63.49217270000008,None,left,1,0.40472840000029464,63.49217270000008,None,None,62.29180859999997,63.47562590000007,0.5112521999999444,0.5946773000000576,1.7117717000000994,1.7949294999998529,,,,,,ashley_1,001,2020_Feb_12_1014,posner,3.1.5,60.007548949615604,
-0.5,0,1,left,1,3,0,0,0,0,2,2,18,1,,,,,,,,,63.92630019999979,64.42578349999985,65.14254249999976,None,64.44244759999992,65.12597249999999,65.64287909999985,None,left,1,0.39023439999982656,65.64287909999985,None,None,64.44244759999992,65.6263785000001,0.5111418999999842,0.5943692999999257,1.7117143999998916,1.794998299999861,,,,,,ashley_1,001,2020_Feb_12_1014,posner,3.1.5,60.007548949615604,
-0.5,0,1,left,1,3,0,0,0,0,2,3,19,0,,,,,,,,,66.0602328,66.55970290000005,67.27671099999998,None,66.57662019999998,67.25998350000009,67.77690200000006,None,left,1,0.400130199999694,67.77690200000006,None,None,66.57662019999998,67.76019769999994,0.5112128000000666,0.5946097999999438,1.7116868999996768,1.794764799999939,,,,,,ashley_1,001,2020_Feb_12_1014,posner,3.1.5,60.007548949615604,
0.5,180,1,right,2,4,0,0,0,0,2,4,20,6,,,,,,,,,68.19438929999978,68.69353210000008,69.41026229999989,None,68.71056859999999,69.39421579999998,69.91087059999973,None,right,1,0.3062681999999768,69.91087059999973,None,None,68.71056859999999,69.89400819999992,0.5110515999999734,0.5946541999996953,1.7115153999998256,1.79498250000006,,,,,,ashley_1,001,2020_Feb_12_1014,posner,3.1.5,60.007548949615604,
0.5,180,1,right,2,4,0,0,0,0,2,5,21,7,,,,,,,,,70.24531879999995,70.74430219999977,71.46134429999984,None,70.7611794999998,71.44454959999985,71.96151599999985,None,right,1,0.3674184999999852,71.96151599999985,None,None,70.7611794999998,71.94472489999998,0.5110839999997552,0.5945272999997542,1.7114895999998225,1.795026400000097,,,,,,ashley_1,001,2020_Feb_12_1014,posner,3.1.5,60.007548949615604,
0.5,0,0,right,1,4,0,0,0,0,2,6,22,3,,,,,,,,,72.34593459999996,72.84482350000008,73.56190229999993,None,72.86170089999996,73.54514519999975,74.06201479999982,None,right,1,0.3629098999999769,74.06201479999982,None,None,72.86170089999996,74.04524050000009,0.5108092000000397,0.5944424999997864,1.711216599999716,1.7947621999996954,,,,,,ashley_1,001,2020_Feb_12_1014,posner,3.1.5,60.007548949615604,
0.5,180,1,right,2,4,0,0,0,0,2,7,23,5,,,,,,,,,74.4466994999998,74.9454912000001,75.66252099999974,None,74.96237299999984,75.64588689999982,76.16279829999985,None,right,1,0.37406490000012127,76.16279829999985,None,None,74.96237299999984,76.14597479999975,0.510757300000023,0.5944022999997287,1.7112222999999176,1.7947202999998808,,,,,,ashley_1,001,2020_Feb_12_1014,posner,3.1.5,60.007548949615604,
-0.5,0,1,left,1,3,0,0,0,0,3,0,24,1,,,,,,,,,76.56348879999996,77.0629399999998,77.77996949999988,None,77.07977459999984,77.76313339999979,78.28004299999975,None,left,1,0.3613344000000325,78.28004299999975,None,None,77.07977459999984,78.26313159999972,0.5112798999998631,0.5949507000000267,1.7114548999998078,1.7951610000000073,,,,,,ashley_1,001,2020_Feb_12_1014,posner,3.1.5,60.007548949615604,
0.5,0,0,right,1,4,0,0,0,0,3,1,25,3,,,,,,,,,78.66389900000013,79.16351110000005,79.88056670000014,None,79.18064330000016,79.86375589999989,80.38095209999983,None,right,1,0.3800410999997439,80.38095209999983,None,None,79.18064330000016,80.36383609999984,0.5112841000000117,0.5947593000000779,1.7115899999998874,1.79525220000005,,,,,,ashley_1,001,2020_Feb_12_1014,posner,3.1.5,60.007548949615604,
0.5,180,1,right,2,4,0,0,0,0,3,2,26,6,,,,,,,,,80.78122489999987,81.28096589999996,81.99770609999996,None,81.29811749999999,81.98121600000013,82.49799669999993,None,right,1,0.3349863000003097,82.49799669999993,None,None,81.29811749999999,82.48124929999994,0.511410000000069,0.5946232999999665,1.711682500000279,1.7951066000000537,,,,,,ashley_1,001,2020_Feb_12_1014,posner,3.1.5,60.007548949615604,
-0.5,0,1,left,1,3,0,0,0,0,3,3,27,2,,,,,,,,,82.86581010000009,83.36481289999983,84.08189409999977,None,83.38164909999978,84.06502880000016,84.58226809999996,None,left,1,0.3545758999998725,84.58226809999996,None,None,83.38164909999978,84.56508540000004,0.5111251000002994,0.5946152000001348,1.71138400000018,1.7952792999999474,,,,,,ashley_1,001,2020_Feb_12_1014,posner,3.1.5,60.007548949615604,
0.5,180,1,right,2,4,0,0,0,0,3,4,28,7,,,,,,,,,84.96594400000004,85.46545049999986,86.18251379999992,None,85.48214580000013,86.16576690000011,86.68264910000016,None,right,1,0.3582375000000866,86.68264910000016,None,None,85.48214580000013,86.6661853999999,0.5109858000000713,0.594524999999976,1.711703199999647,1.7947986999997738,,,,,,ashley_1,001,2020_Feb_12_1014,posner,3.1.5,60.007548949615604,
-0.5,0,1,left,1,3,0,0,0,0,3,5,29,0,,,,,,,,,87.06712430000016,87.56629949999979,88.28303049999977,None,87.58276799999976,88.26646519999986,88.78315169999996,None,left,1,0.34567870000000767,88.78315169999996,None,None,87.58276799999976,88.76654740000004,0.5111699999997654,0.59447259999979,1.7113871999999901,1.7947034999997413,,,,,,ashley_1,001,2020_Feb_12_1014,posner,3.1.5,60.007548949615604,
-0.5,180,0,left,2,3,0,0,0,0,3,6,30,4,,,,,,,,,89.15040839999983,89.65023770000016,90.36716449999994,None,89.66694629999984,90.35062070000004,90.8673288,None,left,1,0.45361789999969915,90.8673288,None,None,89.66694629999984,90.85067159999971,0.5117134000001897,0.594875900000261,1.7121283999999832,1.7952847999999904,,,,,,ashley_1,001,2020_Feb_12_1014,posner,3.1.5,60.007548949615604,
0.5,180,1,right,2,4,0,0,0,0,3,7,31,5,,,,,,,,,91.35169259999975,91.85102819999975,92.56780279999975,None,91.86754100000007,92.5510832,93.06807579999986,91.35169259999975,right,1,0.388917699999638,93.06807579999986,None,None,91.86754100000007,93.05126239999981,0.5110165999999481,0.5940212999998948,1.7112336000000141,1.7945260000001326,,,,,,ashley_1,001,2020_Feb_12_1014,posner,3.1.5,60.007548949615604,
-0.5,0,1,left,1,3,0,0,0,0,4,0,32,0,,,,,,,,,93.48534059999974,93.9848235999998,94.70168710000007,None,94.00154909999992,94.68508369999972,95.20196009999972,None,left,1,0.32687399999986155,95.20196009999972,None,None,94.00154909999992,95.18528779999997,0.5110611000000063,0.5944882000003417,1.7115060999999514,1.7947870000002695,,,,,,ashley_1,001,2020_Feb_12_1014,posner,3.1.5,60.007548949615604,
0.5,0,0,right,1,4,0,0,0,0,4,1,33,3,,,,,,,,,95.55303189999995,96.0521847,96.76919820000012,None,96.06888070000014,96.75241749999986,97.26935550000007,None,right,1,0.36357490000000325,97.26935550000007,None,None,96.06888070000014,97.25260209999988,0.5110759000003782,0.5943544000001566,1.7114716000000953,1.7953700000002755,,,,,,ashley_1,001,2020_Feb_12_1014,posner,3.1.5,60.007548949615604,
-0.5,0,1,left,1,3,0,0,0,0,4,2,34,2,,,,,,,,,97.6537672999998,98.1528158000001,98.86994229999982,None,98.1696578000001,98.85292709999976,99.36990949999972,None,left,1,0.31907830000000104,99.36990949999972,None,None,98.1696578000001,99.35323729999982,0.5109146999998302,0.594434099999944,1.7113200999997389,1.7946904999998878,,,,,,ashley_1,001,2020_Feb_12_1014,posner,3.1.5,60.007548949615604,
0.5,180,1,right,2,4,0,0,0,0,4,3,35,5,,,,,,,,,99.72071229999983,100.22041739999986,100.93699079999988,None,100.23680090000016,100.92041010000003,101.43725839999979,None,right,1,0.33973539999988134,101.43725839999979,None,None,100.23680090000016,101.42062709999982,0.5113764000002448,0.5944300000001022,1.711573099999896,1.794823499999893,,,,,,ashley_1,001,2020_Feb_12_1014,posner,3.1.5,60.007548949615604,
-0.5,0,1,left,1,3,0,0,0,0,4,4,36,1,,,,,,,,,101.80465430000004,102.3041162999998,103.02106999999978,None,102.3208580999999,103.00430300000016,103.5211817999998,None,left,1,0.3357938000003742,103.5211817999998,None,None,102.3208580999999,103.50450099999989,0.5111065999999482,0.5945627000000968,1.7114787999998953,1.7946938000000046,,,,,,ashley_1,001,2020_Feb_12_1014,posner,3.1.5,60.007548949615604,
-0.5,180,0,left,2,3,0,0,0,0,4,5,37,4,,,,,,,,,103.88885089999985,104.38819199999989,105.10494749999998,None,104.40471419999994,105.08844249999993,105.6050737999999,None,left,1,0.4037791000000652,105.6050737999999,None,None,104.40471419999994,105.58851359999971,0.511018900000181,0.59436820000019,1.711325300000226,1.7946740000002137,,,,,,ashley_1,001,2020_Feb_12_1014,posner,3.1.5,60.007548949615604,
0.5,180,1,right,2,4,0,0,0,0,4,6,38,7,,,,,,,,,106.03948630000014,106.53881469999988,107.25563779999993,None,106.55528649999997,107.23899690000007,107.75574289999986,None,right,1,0.34107300000005125,107.75574289999986,None,None,106.55528649999997,107.73913949999996,0.5109215999996195,0.594362799999999,1.7112217999997483,1.7945561999999882,,,,,,ashley_1,001,2020_Feb_12_1014,posner,3.1.5,60.007548949615604,
0.5,180,1,right,2,4,0,0,0,0,4,7,39,6,,,,,,,,,108.12330109999994,108.62256579999985,109.33948209999971,None,108.63944039999978,109.32282720000012,109.83982470000001,None,right,1,0.35294310000017504,109.83982470000001,None,None,108.63944039999978,109.82296399999996,0.511036200000035,0.5944332999997641,1.711425699999836,1.7950117999998838,,,,,,ashley_1,001,2020_Feb_12_1014,posner,3.1.5,60.007548949615604,
0.5,180,1,right,2,4,0,0,0,0,5,0,40,5,,,,,,,,,110.22416160000012,110.72337299999981,111.44046660000004,None,110.74020689999998,111.4235748000001,111.94043069999998,None,right,1,0.3804464999998345,111.94043069999998,None,None,110.74020689999998,111.92385090000016,0.5111873999999261,0.5945870000000468,1.7116578000000118,1.794908999999734,,,,,,ashley_1,001,2020_Feb_12_1014,posner,3.1.5,60.007548949615604,
-0.5,180,0,left,2,3,0,0,0,0,5,1,41,4,,,,,,,,,112.34159520000003,112.84073540000009,113.55763500000012,None,112.85744799999975,113.54113030000008,114.0576731000001,None,left,1,0.37512070000002495,114.0576731000001,None,None,112.85744799999975,114.04126349999979,0.5109889000000294,0.5943286000001535,1.7114894000001186,1.7945828000001711,,,,,,ashley_1,001,2020_Feb_12_1014,posner,3.1.5,60.007548949615604,
0.5,180,1,right,2,4,0,0,0,0,5,2,42,6,,,,,,,,,114.45887129999983,114.95807809999997,115.67486180000014,None,114.97469460000002,115.65831739999976,116.17517749999979,None,right,1,0.2976232999999411,116.17517749999979,None,None,114.97469460000002,116.15854929999978,0.5110629000000699,0.5944145000003118,1.7114998000001833,1.7948381000001064,,,,,,ashley_1,001,2020_Feb_12_1014,posner,3.1.5,60.007548949615604,
-0.5,0,1,left,1,3,0,0,0,0,5,3,43,0,,,,,,,,,116.49308350000001,116.99199499999986,117.70887619999985,None,117.00869160000002,117.69235530000014,118.20891720000009,None,left,1,0.31194760000016686,118.20891720000009,None,None,117.00869160000002,118.19244249999974,0.5109283000001597,0.5944188000003123,1.711349600000176,1.7946803000004365,,,,,,ashley_1,001,2020_Feb_12_1014,posner,3.1.5,60.007548949615604,
-0.5,0,1,left,1,3,0,0,0,0,5,4,44,1,,,,,,,,,118.54356370000005,119.04252739999993,119.75953070000014,None,119.05955600000016,119.74292220000007,120.25970120000011,None,left,1,0.3332399000000805,120.25970120000011,None,None,119.05955600000016,120.24289270000008,0.5108036999999968,0.5943394000000808,1.7111511999996765,1.7947798999998668,,,,,,ashley_1,001,2020_Feb_12_1014,posner,3.1.5,60.007548949615604,
0.5,180,1,right,2,4,0,0,0,0,5,5,45,7,,,,,,,,,120.61092460000009,121.10992020000003,121.82695909999984,None,121.12690029999976,121.81002330000001,122.32699259999981,None,right,1,0.30592620000015813,122.32699259999981,None,None,121.12690029999976,122.31040929999972,0.5109461999995801,0.594249199999922,1.7114091999997072,1.7945788999995784,,,,,,ashley_1,001,2020_Feb_12_1014,posner,3.1.5,60.007548949615604,
0.5,0,0,right,1,4,0,0,0,0,5,6,46,3,,,,,,,,,122.6612313999999,123.16079039999977,123.87759000000005,None,123.17738239999971,123.86102699999992,124.37774379999973,None,right,1,0.3511118000001261,124.37774379999973,None,None,123.17738239999971,124.36112959999991,0.5114399999997659,0.5945283999999447,1.7117674999999508,1.7949260000000322,,,,,,ashley_1,001,2020_Feb_12_1014,posner,3.1.5,60.007548949615604,
-0.5,0,1,left,1,3,0,0,0,0,5,7,47,2,,,,,,,,,124.7450672,125.24446059999991,125.96151929999996,None,125.26111910000009,125.9447753999998,126.4616618,None,left,1,0.31534770000007484,126.4616618,None,None,125.26111910000009,126.44485170000007,0.5107865999998467,0.5944598999999471,1.7111604000001535,1.7947650999999496,,,,,,ashley_1,001,2020_Feb_12_1014,posner,3.1.5,60.007548949615604,
-0.5,0,1,left,1,3,0,0,0,0,6,0,48,2,,,,,,,,,126.79675839999982,127.2954294000001,128.0121979999999,None,127.31195359999992,127.99544629999991,128.51224909999974,None,left,1,0.33652570000003834,128.51224909999974,None,None,127.31195359999992,128.49550899999986,0.5110263999999916,0.5941413999998986,1.711090399999648,1.7946853999997074,,,,,,ashley_1,001,2020_Feb_12_1014,posner,3.1.5,60.007548949615604,
0.5,0,0,right,1,4,0,0,0,0,6,1,49,3,,,,,,,,,128.87963020000007,129.37938170000007,130.0962368999999,None,129.39604899999995,130.07952609999984,130.59638159999986,None,right,1,0.3804011000001992,130.59638159999986,None,None,129.39604899999995,130.57971899999984,0.5113570000003165,0.5945126999999957,1.7116828000002897,1.7947016000002805,,,,,,ashley_1,001,2020_Feb_12_1014,posner,3.1.5,60.007548949615604,
-0.5,180,0,left,2,3,0,0,0,0,6,2,50,4,,,,,,,,,130.99692929999992,131.49630249999973,132.21338560000004,None,131.51341419999972,132.19676549999986,132.71347939999987,None,left,1,0.3513362000003326,132.71347939999987,None,None,131.51341419999972,132.6972366,0.5114758000004258,0.5949463000001742,1.712396400000216,1.7945779000001494,,,,,,ashley_1,001,2020_Feb_12_1014,posner,3.1.5,60.007548949615604,
0.5,180,1,right,2,4,0,0,0,0,6,3,51,6,,,,,,,,,133.0812093999998,133.5805835000001,134.29780690000007,None,133.59722620000002,134.28077929999972,134.7979906999999,None,right,1,0.3228604000000814,134.7979906999999,None,None,133.59722620000002,134.78088909999997,0.5113249999999425,0.5944540999998935,1.7116147000001547,1.794790699999794,,,,,,ashley_1,001,2020_Feb_12_1014,posner,3.1.5,60.007548949615604,
0.5,180,1,right,2,4,0,0,0,0,6,4,52,5,,,,,,,,,135.14851210000006,135.64771840000003,136.3645630000001,None,135.66426150000007,136.34792659999994,136.86464549999982,None,right,1,0.3921159000001353,136.86464549999982,None,None,135.66426150000007,136.84812039999997,0.51087409999991,0.5943548999998711,1.711259599999721,1.79453599999988,,,,,,ashley_1,001,2020_Feb_12_1014,posner,3.1.5,60.007548949615604,
-0.5,0,1,left,1,3,0,0,0,0,6,5,53,1,,,,,,,,,137.2823930999998,137.78186099999994,138.49876259999974,None,137.79869929999995,138.48194609999973,138.99879819999978,None,left,1,0.3139086999999563,138.99879819999978,None,None,137.79869929999995,138.98216700000012,0.511256400000093,0.5944868999999926,1.7115458000002945,1.7947207000001981,,,,,,ashley_1,001,2020_Feb_12_1014,posner,3.1.5,60.007548949615604,
0.5,180,1,right,2,4,0,0,0,0,6,6,54,7,,,,,,,,,139.3327402,139.83236880000004,140.54936730000009,None,139.84922069999993,140.5325324999999,141.04952950000006,None,right,1,0.3032295999996677,141.04952950000006,None,None,139.84922069999993,141.0326842999998,0.5114619000000857,0.5948496999999406,1.711765099999866,1.7952475000001868,,,,,,ashley_1,001,2020_Feb_12_1014,posner,3.1.5,60.007548949615604,
-0.5,0,1,left,1,3,0,0,0,0,6,7,55,0,,,,,,,,,141.38361630000009,141.88302969999995,142.6000039999999,None,141.89980620000006,142.5832390999999,143.10008400000015,None,left,1,0.29266899999993257,143.10008400000015,None,None,141.89980620000006,143.08334019999984,0.5110257000001184,0.5944150999998783,1.7113162999999076,1.7947586000000229,,,,,,ashley_1,001,2020_Feb_12_1014,posner,3.1.5,60.007548949615604,
0.5,0,0,right,1,4,0,0,0,0,7,0,56,3,,,,,,,,,143.4176508999999,143.91714939999974,144.6338126999999,None,143.93366449999985,144.6170935,145.1340623000001,None,right,1,0.2827633999995669,145.1340623000001,None,None,143.93366449999985,145.11736669999982,0.5107516999996733,0.5940286000000015,1.7109507000000121,1.7943347999998878,,,,,,ashley_1,001,2020_Feb_12_1014,posner,3.1.5,60.007548949615604,
-0.5,0,1,left,1,3,0,0,0,0,7,1,57,0,,,,,,,,,145.43524290000005,145.93425979999984,146.65120389999993,None,145.95102910000014,146.6345741,147.1515347999998,None,left,1,0.2972890000000916,147.1515347999998,None,None,145.95102910000014,147.1346813,0.5110434000002897,0.5945136000000275,1.7114455999999336,1.7947368000000097,,,,,,ashley_1,001,2020_Feb_12_1014,posner,3.1.5,60.007548949615604,
0.5,180,1,right,2,4,0,0,0,0,7,2,58,6,,,,,,,,,147.46919739999976,147.9683027000001,148.68507409999984,None,147.9849008000001,148.66839279999976,149.18529940000008,None,right,1,0.2634686999999758,149.18529940000008,None,None,147.9849008000001,149.16862249999986,0.5107974000002287,0.5941539000000375,1.7111006000000089,1.7945026000002144,,,,,,ashley_1,001,2020_Feb_12_1014,posner,3.1.5,60.007548949615604,
0.5,180,1,right,2,4,0,0,0,0,7,3,59,7,,,,,,,,,149.46959879999986,149.96886519999998,150.68575229999988,None,149.9855305000001,150.66911389999996,151.1860840999998,None,right,1,0.36673350000000937,151.1860840999998,None,None,149.9855305000001,151.1693325000001,0.5109757000000172,0.59444829999984,1.7114243999999417,1.7945762999997896,,,,,,ashley_1,001,2020_Feb_12_1014,posner,3.1.5,60.007548949615604,
-0.5,180,0,left,2,3,0,0,0,0,7,4,60,4,,,,,,,,,151.5706184999999,152.06970739999997,152.78641609999977,None,152.08623119999993,152.7698737999999,153.28655560000016,None,left,1,0.2903486999998677,153.28655560000016,None,None,152.08623119999993,153.26986859999988,0.5110469000001103,0.5940423000001829,1.7111952000000201,1.794542800000272,,,,,,ashley_1,001,2020_Feb_12_1014,posner,3.1.5,60.007548949615604,
0.5,180,1,right,2,4,0,0,0,0,7,5,61,5,,,,,,,,,153.60428610000008,154.10358240000005,154.8205853999998,None,154.12018750000016,154.80379110000013,155.32073790000004,None,right,1,0.31197500000007494,155.32073790000004,None,None,154.12018750000016,155.30384099999992,0.5112506000000394,0.5945853000002899,1.7114916000000449,1.7948937999999544,,,,,,ashley_1,001,2020_Feb_12_1014,posner,3.1.5,60.007548949615604,
-0.5,0,1,left,1,3,0,0,0,0,7,6,62,1,,,,,,,,,155.65483959999983,156.1539871,156.8710086000001,None,156.1709089000001,156.85426009999992,157.37122569999974,None,left,1,0.29346929999974236,157.37122569999974,None,None,156.1709089000001,157.35435400000006,0.5107244999999239,0.5942387999998573,1.7110720999999103,1.7945927999999185,,,,,,ashley_1,001,2020_Feb_12_1014,posner,3.1.5,60.007548949615604,
-0.5,0,1,left,1,3,0,0,0,0,7,7,63,2,,,,,,,,,157.68891600000006,158.18797240000004,158.9049359999999,None,158.2047134999998,158.8883907999998,159.40503230000013,None,left,1,0.30761279999978797,159.40503230000013,None,None,158.2047134999998,159.38855460000013,0.5108597000003101,0.5943030000003091,1.7114172000001417,1.7946861000000354,,,,,,ashley_1,001,2020_Feb_12_1014,posner,3.1.5,60.007548949615604,
-0.5,0,1,left,1,3,0,0,0,0,8,0,64,2,,,,,,,,,159.73936779999985,160.23891189999995,160.95566299999973,None,160.2554151999998,160.93911359999993,161.4561104999998,None,left,1,0.3686471999999412,161.4561104999998,None,None,160.2554151999998,161.43909369999983,0.5113789000001816,0.5945881000002373,1.7115492000002632,1.7947666000000027,,,,,,ashley_1,001,2020_Feb_12_1014,posner,3.1.5,60.007548949615604,
-0.5,0,1,left,1,3,0,0,0,0,8,1,65,0,,,,,,,,,161.85682580000002,162.3560837,163.07270740000013,None,162.37258280000015,163.05637190000016,163.57295810000005,None,left,1,0.37980030000016995,163.57295810000005,None,None,162.37258280000015,163.55653799999982,0.5110504999997829,0.5944768999997905,1.7114638999996714,1.794684899999993,,,,,,ashley_1,001,2020_Feb_12_1014,posner,3.1.5,60.007548949615604,
0.5,180,1,right,2,4,0,0,0,0,8,2,66,6,,,,,,,,,163.97435180000002,164.47345140000016,165.1902682,None,164.48998840000013,165.17357390000006,165.69053469999972,None,right,1,0.262425599999915,165.69053469999972,None,None,164.48998840000013,165.6735045999999,0.5109326000001602,0.5942761999999675,1.710970300000099,1.7948145000000295,,,,,,ashley_1,001,2020_Feb_12_1014,posner,3.1.5,60.007548949615604,
0.5,0,0,right,1,4,0,0,0,0,8,3,67,3,,,,,,,,,165.97506870000007,166.47397520000004,167.19093859999975,None,166.49064080000016,167.17425999999978,167.6912766999999,None,right,1,0.45339789999979985,167.6912766999999,None,None,166.49064080000016,167.67440559999977,0.5107285999997657,0.5942464999998265,1.7111375999998018,1.7944600000000719,,,,,,ashley_1,001,2020_Feb_12_1014,posner,3.1.5,60.007548949615604,
0.5,180,1,right,2,4,0,0,0,0,8,4,68,7,,,,,,,,,168.1753601999999,168.6747464,169.39150549999977,None,168.69146420000015,169.37496039999996,169.89173089999986,168.1753601999999,right,1,0.34091829999988477,169.89173089999986,None,None,168.69146420000015,169.87504369999988,0.5111154000001079,0.5943131000003632,1.7113968000003297,1.7947974000003342,,,,,,ashley_1,001,2020_Feb_12_1014,posner,3.1.5,60.007548949615604,
0.5,180,1,right,2,4,0,0,0,0,8,5,69,5,,,,,,,,,170.25961310000002,170.75853479999978,171.47570739999992,None,170.77534879999985,171.45895109999992,171.97591439999997,None,right,1,0.2807657999996991,171.97591439999997,None,None,170.77534879999985,171.9590490999999,0.5108104000000822,0.5942666000000827,1.711301899999853,1.7944014999998217,,,,,,ashley_1,001,2020_Feb_12_1014,posner,3.1.5,60.007548949615604,
-0.5,0,1,left,1,3,0,0,0,0,8,6,70,1,,,,,,,,,172.27708829999983,172.7758577999998,173.49268709999978,None,172.7924637000001,173.4764793999998,173.9928771,None,left,1,0.27991930000007414,173.9928771,None,None,172.7924637000001,173.97636669999974,0.5108578999997917,0.5943046999996113,1.711337199999889,1.794649799999661,,,,,,ashley_1,001,2020_Feb_12_1014,posner,3.1.5,60.007548949615604,
-0.5,180,0,left,2,3,0,0,0,0,8,7,71,4,,,,,,,,,174.29339040000013,174.79306589999987,175.5103525999998,None,174.80984039999976,175.49331940000002,176.01020530000005,None,left,1,0.4144539999997505,176.01020530000005,None,None,174.80984039999976,175.99354379999977,0.5106536999996933,0.5942329999998037,1.71110839999983,1.7948057999997218,,,,,,ashley_1,001,2020_Feb_12_1014,posner,3.1.5,60.007548949615604,
0.5,180,1,right,2,4,0,0,0,0,9,0,72,5,,,,,,,,,176.44518340000013,176.94388100000015,177.66092029999982,None,176.9606788000001,177.64388359999975,178.1609226999999,None,right,1,0.4076129000000037,178.1609226999999,None,None,176.9606788000001,178.14413430000013,0.510713499999838,0.5942483999997421,1.7109488000000965,1.7944916999999805,,,,,,ashley_1,001,2020_Feb_12_1014,posner,3.1.5,60.007548949615604,
-0.5,0,1,left,1,3,0,0,0,0,9,1,73,0,,,,,,,,,178.59550219999983,179.0945127,179.81141239999988,None,179.11142979999977,179.79510889999983,180.31151799999998,None,left,1,0.3050450999999157,180.31151799999998,None,None,179.11142979999977,180.2952737999999,0.5110655999997107,0.5944371999999021,1.7118289999998524,1.7949146999999357,,,,,,ashley_1,001,2020_Feb_12_1014,posner,3.1.5,60.007548949615604,
-0.5,180,0,left,2,3,0,0,0,0,9,2,74,4,,,,,,,,,180.6450850000001,181.1452220000001,181.86202319999984,None,181.16196390000005,181.8453709999999,182.36217450000004,None,left,1,0.41452449999997043,182.36217450000004,None,None,181.16196390000005,182.34560770000007,0.5114077000002908,0.5947983000000931,1.7117458000002443,1.7953840000000127,,,,,,ashley_1,001,2020_Feb_12_1014,posner,3.1.5,60.007548949615604,
-0.5,0,1,left,1,3,0,0,0,0,9,3,75,1,,,,,,,,,182.7973247,183.29616729999998,184.01256490000014,None,183.31257340000002,183.99605440000005,184.51272689999996,None,left,1,0.3438983000000917,184.51272689999996,None,None,183.31257340000002,184.49621389999993,0.5108601000001727,0.5937856000000465,1.7108907000001636,1.794392499999958,,,,,,ashley_1,001,2020_Feb_12_1014,posner,3.1.5,60.007548949615604,
0.5,180,1,right,2,4,0,0,0,0,9,4,76,7,,,,,,,,,184.8807001,185.38006050000013,186.09694639999998,None,185.39646570000014,186.08014849999972,186.5969282000001,None,right,1,0.3877569000001131,186.5969282000001,None,None,185.39646570000014,186.5804247000001,0.5111471000000165,0.5942094000001816,1.7114998000001833,1.7946208000003026,,,,,,ashley_1,001,2020_Feb_12_1014,posner,3.1.5,60.007548949615604,
0.5,0,0,right,1,4,0,0,0,0,9,5,77,3,,,,,,,,,187.01436729999978,187.5136604999998,188.23068860000012,None,187.53061089999983,188.2139400000001,188.7309740999999,None,right,1,0.41374550000000454,188.7309740999999,None,None,187.53061089999983,188.71407109999973,0.5109388999999283,0.59441360000028,1.7113318000001527,1.7952399999999216,,,,,,ashley_1,001,2020_Feb_12_1014,posner,3.1.5,60.007548949615604,
-0.5,0,1,left,1,3,0,0,0,0,9,6,78,2,,,,,,,,,189.16520730000002,189.6643828000001,190.38145489999988,None,189.68132699999978,190.36469869999974,190.88167029999977,None,left,1,0.28694539999969493,190.88167029999977,None,None,189.68132699999978,190.86491679999972,0.5108396000000539,0.5942840999996406,1.711356799999976,1.7947059999996782,,,,,,ashley_1,001,2020_Feb_12_1014,posner,3.1.5,60.007548949615604,
0.5,180,1,right,2,4,0,0,0,0,9,7,79,6,,,,,,,,,191.19896040000003,191.69839649999994,192.41535650000014,None,191.71518119999973,192.3986531999999,192.91558140000006,None,right,1,0.28507170000011683,192.91558140000006,None,None,191.71518119999973,192.89885479999975,0.5109581000001526,0.5943498999999974,1.711393600000065,1.7946927000002688,,,,,,ashley_1,001,2020_Feb_12_1014,posner,3.1.5,60.007548949615604,
0.5,180,1,right,2,4,0,0,0,0,10,0,80,7,,,,,,,,,193.21647440000015,193.7158371999999,194.43249070000002,None,193.73227319999978,194.41598810000005,194.93269229999987,None,right,1,0.3319846999997935,194.93269229999987,None,None,193.73227319999978,194.91622659999985,0.5111008000003494,0.5944415000003573,1.711436500000218,1.7947057000001223,,,,,,ashley_1,001,2020_Feb_12_1014,posner,3.1.5,60.007548949615604,
-0.5,180,0,left,2,3,0,0,0,0,10,1,81,4,,,,,,,,,195.28398089999973,195.7829425,196.50002889999996,None,195.80003239999996,196.48315739999998,197.00021220000008,None,left,1,0.36831849999998667,197.00021220000008,None,None,195.80003239999996,196.98328420000007,0.5108676999998352,0.5944383999999445,1.7111896999999772,1.794691099999909,,,,,,ashley_1,001,2020_Feb_12_1014,posner,3.1.5,60.007548949615604,
0.5,180,1,right,2,4,0,0,0,0,10,2,82,6,,,,,,,,,197.40081599999985,197.9004756999998,198.61745269999983,None,197.91721589999997,198.6007341999998,199.11752690000003,199.60133499999984,right,1,0.5471557000000757,199.11752690000003,None,None,197.91721589999997,199.10080440000002,0.5112976000000344,0.5943349999997736,1.7116133999998056,1.794760799999949,,,,,,ashley_1,001,2020_Feb_12_1014,posner,3.1.5,60.007548949615604,
-0.5,0,1,left,1,3,0,0,0,0,10,3,83,1,,,,,,,,,199.68508199999997,200.18440800000008,200.90129320000005,None,200.20181520000006,200.8846665000001,201.4015214000001,None,left,1,0.31113290000030247,201.4015214000001,None,None,200.20181520000006,201.3848739,0.5108997000002091,0.5942610000001878,1.7113494000000173,1.794574399999874,,,,,,ashley_1,001,2020_Feb_12_1014,posner,3.1.5,60.007548949615604,
-0.5,0,1,left,1,3,0,0,0,0,10,4,84,0,,,,,,,,,201.7350704999999,202.23520980000012,202.95202359999985,None,202.25183939999988,202.93523749999986,203.4520932999999,None,left,1,0.3885853999995561,203.4520932999999,None,None,202.25183939999988,203.4353855999998,0.5118634999998903,0.5951685999998517,1.7120208999999704,1.7953919999999925,,,,,,ashley_1,001,2020_Feb_12_1014,posner,3.1.5,60.007548949615604,
0.5,0,0,right,1,4,0,0,0,0,10,5,85,3,,,,,,,,,203.8699720999998,204.3690370999998,205.08610520000002,None,204.38565689999996,205.0696281999999,205.58617279999999,None,right,1,0.3024596999998721,205.58617279999999,None,None,204.38565689999996,205.5694524999999,0.5109471999999187,0.5943200000001525,1.71133540000028,1.794542800000272,,,,,,ashley_1,001,2020_Feb_12_1014,posner,3.1.5,60.007548949615604,
0.5,180,1,right,2,4,0,0,0,0,10,6,86,5,,,,,,,,,205.91992930000015,206.41973610000014,207.13657779999994,None,206.43648940000003,207.12002350000012,207.63680139999997,None,right,1,0.33185649999995803,207.63680139999997,None,None,206.43648940000003,207.62019539999983,0.5113540999996076,0.5945890999996664,1.7118012999999337,1.7948195999997552,,,,,,ashley_1,001,2020_Feb_12_1014,posner,3.1.5,60.007548949615604,
-0.5,0,1,left,1,3,0,0,0,0,10,7,87,2,,,,,,,,,207.98795889999974,208.48688360000006,209.2038189,None,208.50359249999974,209.1874367999999,209.7039952,None,left,1,0.3044110999999248,209.7039952,None,None,208.50359249999974,209.68753809999998,0.510730599999988,0.5942817999998624,1.71136690000003,1.7945409999997537,,,,,,ashley_1,001,2020_Feb_12_1014,posner,3.1.5,60.007548949615604,
,,,,,,0,0,0,0,,,,,,,,,,,,,,,,,,,,,,,,,,,,,,,,,210.0379370999999,None,1.44999999065476e-05,0.995267899999817,,ashley_1,001,2020_Feb_12_1014,posner,3.1.5,60.007548949615604,
0.5,0,0,right,1,4,1,0,1,0,0,0,0,3,1.1999999969702912e-05,0.09721200000012686,271.05644559999973,None,1.4100000043981709e-05,0.09808290000000852,273.1569758999999,None,273.8058436000001,274.30739259999973,275.0241640999998,None,274.32401500000014,275.00783120000006,275.52435639999976,276.00803499999984,right,1,0.73203599999988,275.52435639999976,None,left,274.32401500000014,275.50774390000015,0.5121626000000106,0.5954195999997864,1.7124933000000055,1.795843099999729,,,,,0.6285301999996591,ashley_1,001,2020_Feb_12_1014,posner,3.1.5,60.007548949615604,
-0.5,180,0,left,2,3,1,0,1,0,0,1,1,4,,,,,,,,,276.2759965,276.77469900000006,277.4917062999998,None,276.79151920000004,277.4749348,277.9918711999999,None,left,1,0.43266829999993206,277.9918711999999,None,None,276.79151920000004,277.97523420000016,0.5100148000001354,0.5934342999998989,1.710537899999963,1.7937932999998338,,,,,,ashley_1,001,2020_Feb_12_1014,posner,3.1.5,60.007548949615604,
-0.5,0,1,left,1,3,1,0,1,0,0,2,2,0,,,,,,,,,278.44244549999985,278.94212590000006,279.65894879999996,None,278.9590763000001,279.64224090000016,280.1591893,None,left,1,0.3851724999999533,280.1591893,None,None,278.9590763000001,280.1425479999998,0.5110965999997461,0.5947133999998186,1.7115036999998665,1.7950485000001208,,,,,,ashley_1,001,2020_Feb_12_1014,posner,3.1.5,60.007548949615604,
0.5,180,1,right,2,4,1,0,1,0,0,3,3,6,,,,,,,,,280.5600211000001,281.05954040000006,281.7764652000001,None,281.0761726999999,281.75977969999985,282.27670249999983,None,right,1,0.33978079999997135,282.27670249999983,None,None,281.0761726999999,282.25973049999993,0.5112572000002729,0.5945087000000058,1.711430400000154,1.7947698000002674,,,,,,ashley_1,001,2020_Feb_12_1014,posner,3.1.5,60.007548949615604,
0.5,180,1,right,2,4,1,0,1,0,0,4,4,5,,,,,,,,,282.6435197999999,283.14325819999976,283.8604744999998,None,283.16014700000005,283.8435583999999,284.36047659999986,None,right,1,0.32814609999968525,284.36047659999986,None,None,283.16014700000005,284.3436397999999,0.5114881999998033,0.5950893999997788,1.7118507999998656,1.7954025999997612,,,,,,ashley_1,001,2020_Feb_12_1014,posner,3.1.5,60.007548949615604,
0.5,180,1,right,2,4,1,0,1,0,0,5,5,7,,,,,,,,,284.71128769999996,285.21087639999996,285.92758520000007,None,285.227566,285.9111435,286.42788840000003,None,right,1,0.44441710000000967,286.42788840000003,None,None,285.227566,286.4110829000001,0.5111892999998418,0.5943340999997417,1.7113840999995773,1.7946702999997797,,,,,,ashley_1,001,2020_Feb_12_1014,posner,3.1.5,60.007548949615604,
-0.5,0,1,left,1,3,1,0,1,0,0,6,6,1,,,,,,,,,286.89509420000013,287.39470040000015,288.11165389999996,None,287.4114844999999,288.09492839999984,288.61196889999974,None,left,1,0.32430710000016916,288.61196889999974,None,None,287.4114844999999,288.5950438,0.5115230000001247,0.5949353000000883,1.7118485000000874,1.7953840000000127,,,,,,ashley_1,001,2020_Feb_12_1014,posner,3.1.5,60.007548949615604,
-0.5,0,1,left,1,3,1,0,1,0,0,7,7,2,,,,,,,,,288.9626991,289.46216830000003,290.17939709999973,None,289.4788699999999,290.1622099000001,290.67941459999975,None,left,1,0.36099360000025627,290.67941459999975,None,None,289.4788699999999,290.66227979999985,0.5113608999999997,0.5947072999997545,1.711459399999967,1.7949862999998913,,,,,,ashley_1,001,2020_Feb_12_1014,posner,3.1.5,60.007548949615604,
0.5,180,1,right,2,4,1,0,1,0,1,0,8,7,,,,,,,,,291.0628905999997,291.5627177000001,292.2797940999999,None,291.57958740000004,292.26284039999973,292.77977310000006,None,right,1,0.3565164999999979,292.77977310000006,None,None,291.57958740000004,292.76294099999996,0.5115596000000551,0.5950399000003017,1.7117613000000347,1.7951496000000589,,,,,,ashley_1,001,2020_Feb_12_1014,posner,3.1.5,60.007548949615604,
-0.5,180,0,left,2,3,1,0,1,0,1,1,9,4,,,,,,,,,293.1642763,293.6632586999999,294.38030739999977,None,293.6800420999998,294.3636640999998,294.8805431999999,None,left,1,0.34373890000006213,294.8805431999999,None,None,293.6800420999998,294.8636698999999,0.5107979999997951,0.5941247000000658,1.7111902000001464,1.7946431999998822,,,,,,ashley_1,001,2020_Feb_12_1014,posner,3.1.5,60.007548949615604,
0.5,180,1,right,2,4,1,0,1,0,1,2,10,5,,,,,,,,,295.24829109999973,295.7472966,296.4641418000001,None,295.7640987,296.44748279999976,296.96432159999995,None,right,1,0.3240000999999211,296.96432159999995,None,None,295.7640987,296.9476454999999,0.5107769999999618,0.5942092999998749,1.7111093999997138,1.7944837999998526,,,,,,ashley_1,001,2020_Feb_12_1014,posner,3.1.5,60.007548949615604,
0.5,0,0,right,1,4,1,0,1,0,1,3,11,3,,,,,,,,,297.3161173999997,297.81453680000004,298.53162829999974,None,297.8313309,298.5148143000001,299.03168000000005,299.51521760000014,right,1,0.4806232999999338,299.03168000000005,None,None,297.8313309,299.0149207999998,0.5105720999999903,0.5942705999996178,1.710903899999721,1.7945255999998153,,,,,,ashley_1,001,2020_Feb_12_1014,posner,3.1.5,60.007548949615604,
-0.5,0,1,left,1,3,1,0,1,0,1,4,12,1,,,,,,,,,299.5326141999999,300.0319005000001,300.74902759999986,None,300.04872380000006,300.73223800000005,301.2492008999998,None,left,1,0.3991257000002406,301.2492008999998,None,None,300.04872380000006,301.2322143000001,0.51111469999978,0.5947722000000795,1.7114142000000356,1.795100299999831,,,,,,ashley_1,001,2020_Feb_12_1014,posner,3.1.5,60.007548949615604,
-0.5,0,1,left,1,3,1,0,1,0,1,5,13,0,,,,,,,,,301.66684559999976,302.1659153999999,302.88276080000014,None,302.18255640000007,302.86631020000004,303.3829483999998,None,left,1,0.41737190000003466,303.3829483999998,None,None,302.18255640000007,303.36651699999993,0.510880399999678,0.594418499999847,1.7114645999999993,1.7946506999996927,,,,,,ashley_1,001,2020_Feb_12_1014,posner,3.1.5,60.007548949615604,
-0.5,0,1,left,1,3,1,0,1,0,1,6,14,2,,,,,,,,,303.81764840000005,304.31676560000005,305.03352670000004,None,304.3334270999999,305.0169553999999,305.53362719999996,None,left,1,0.39486489999990226,305.53362719999996,None,None,304.3334270999999,305.5169858999998,0.5109385999999176,0.5941952999996829,1.7111465999996653,1.7945472999999765,,,,,,ashley_1,001,2020_Feb_12_1014,posner,3.1.5,60.007548949615604,
0.5,180,1,right,2,4,1,0,1,0,1,7,15,6,,,,,,,,,305.9513382,306.4506857000001,307.16755729999977,None,306.4674037,307.1509759999999,307.66779510000015,None,right,1,0.33258669999986523,307.66779510000015,None,None,306.4674037,307.6510542000001,0.5110633000003872,0.5942887000001065,1.711410600000363,1.7946536000004016,,,,,,ashley_1,001,2020_Feb_12_1014,posner,3.1.5,60.007548949615604,
0.5,180,1,right,2,4,1,0,1,0,2,0,16,5,,,,,,,,,308.0191967999999,308.51803629999995,309.2348186999998,None,308.5345256999999,309.21813059999977,309.7349697999998,None,right,1,0.3532775999997284,309.7349697999998,None,None,308.5345256999999,309.71830999999975,0.5108178000000407,0.594135499999993,1.7110759000001963,1.7946270000002187,,,,,,ashley_1,001,2020_Feb_12_1014,posner,3.1.5,60.007548949615604,
0.5,0,0,right,1,4,1,0,1,0,2,1,17,3,,,,,,,,,310.11921729999995,310.6185959999998,311.3355603,None,310.6349817999999,311.31899380000004,311.8357000000001,None,right,1,0.4205689000000348,311.8357000000001,None,None,310.6349817999999,311.81891940000014,0.5110541999997622,0.5943678999997246,1.711328599999888,1.794661299999916,,,,,,ashley_1,001,2020_Feb_12_1014,posner,3.1.5,60.007548949615604,
0.5,180,1,right,2,4,1,0,1,0,2,2,18,7,,,,,,,,,312.2860836,312.78595259999975,313.5027519999999,None,312.8026126,313.48603809999986,314.00285529999974,None,right,1,0.3813548999996783,314.00285529999974,None,None,312.8026126,313.9863458,0.5117264999998952,0.5950407999998788,1.7120899999999892,1.795440299999882,,,,,,ashley_1,001,2020_Feb_12_1014,posner,3.1.5,60.007548949615604,
-0.5,0,1,left,1,3,1,0,1,0,2,3,19,1,,,,,,,,,314.4043081,314.9032119999997,315.62012449999975,None,314.92007460000013,315.6034645999998,316.12049530000013,None,left,1,0.3197683999997025,316.12049530000013,None,None,314.92007460000013,316.1035533999998,0.5109391999999389,0.5944002999999611,1.711257100000239,1.7945392000001448,,,,,,ashley_1,001,2020_Feb_12_1014,posner,3.1.5,60.007548949615604,
0.5,180,1,right,2,4,1,0,1,0,2,4,20,6,,,,,,,,,316.47109139999975,316.9708052000001,317.6875922999998,None,316.98724379999976,317.67074219999995,318.1875998999999,None,right,1,0.3406787000003533,318.1875998999999,None,None,316.98724379999976,318.1710643000001,0.5113443000000188,0.5943717000000106,1.7115826999997807,1.7948089000001346,,,,,,ashley_1,001,2020_Feb_12_1014,posner,3.1.5,60.007548949615604,
-0.5,180,0,left,2,3,1,0,1,0,2,5,21,4,,,,,,,,,318.55567599999995,319.0545065000001,319.77153469999985,None,319.07136249999985,319.75473039999997,320.271663,None,left,1,0.3765957000000526,320.271663,None,None,319.07136249999985,320.25487299999986,0.5110144000000219,0.5943993999999293,1.7113573999999971,1.7948024000002079,,,,,,ashley_1,001,2020_Feb_12_1014,posner,3.1.5,60.007548949615604,
-0.5,0,1,left,1,3,1,0,1,0,2,6,22,0,,,,,,,,,320.67269020000003,321.17194119999976,321.8886969,None,321.1886970999999,321.87188849999984,322.3890661999999,None,left,1,0.35522279999986495,322.3890661999999,None,None,321.1886970999999,322.3721123999999,0.5110082999999577,0.5944937999997819,1.7111660000000484,1.7947403999996823,,,,,,ashley_1,001,2020_Feb_12_1014,posner,3.1.5,60.007548949615604,
-0.5,0,1,left,1,3,1,0,1,0,2,7,23,2,,,,,,,,,322.7733708999999,323.27243150000004,323.98957659999996,None,323.28929000000016,323.97273570000016,324.48952659999986,None,left,1,0.430673900000329,324.48952659999986,None,None,323.28929000000016,324.47279849999995,0.510903800000051,0.5943320000001222,1.7112566000000697,1.794696599999952,,,,,,ashley_1,001,2020_Feb_12_1014,posner,3.1.5,60.007548949615604,
0.5,0,0,right,1,4,1,0,1,0,3,0,24,3,,,,,,,,,324.94061439999996,325.44005930000003,326.15661969999974,None,325.4565779999998,326.1401848999999,326.6568821999999,327.14054910000004,None,0,,326.6568821999999,None,None,325.4565779999998,326.6404929,0.5111521000003449,0.5941913999999997,1.711569000000054,1.7945772000002762,,,,,,ashley_1,001,2020_Feb_12_1014,posner,3.1.5,60.007548949615604,
0.5,180,1,right,2,4,1,0,1,0,3,1,25,6,,,,,,,,,327.6405445999999,328.1407534,328.85747260000016,327.6405445999999,328.1573880000001,328.84094670000013,329.3576815000001,None,right,1,0.4425256999998055,329.3576815000001,None,None,328.1573880000001,329.34114499999987,0.5130334999998922,0.596249600000192,1.7134068000000298,1.7968799000000217,,,,,,ashley_1,001,2020_Feb_12_1014,posner,3.1.5,60.007548949615604,
-0.5,0,1,left,1,3,1,0,1,0,3,2,26,0,,,,,,,,,329.8249990999998,330.32478979999996,331.0416808,None,330.341308,331.0249362999998,331.5417548999999,None,left,1,0.33040310000023965,331.5417548999999,None,None,330.341308,331.52513279999994,0.5118618999999853,0.5950975000000653,1.7121952000002238,1.7955097000003661,,,,,,ashley_1,001,2020_Feb_12_1014,posner,3.1.5,60.007548949615604,
-0.5,0,1,left,1,3,1,0,1,0,3,3,27,2,,,,,,,,,331.89229369999975,332.39195199999995,333.10895679999976,None,332.4087604000001,333.09220319999986,333.6090799999997,None,left,1,0.4551385999998274,333.6090799999997,None,None,332.4087604000001,333.5922491000001,0.5113013999998657,0.5946828999999525,1.7115795999998227,1.7951045999998314,,,,,,ashley_1,001,2020_Feb_12_1014,posner,3.1.5,60.007548949615604,
-0.5,0,1,left,1,3,1,0,1,0,3,4,28,1,,,,,,,,,334.0933264,334.5925656999998,335.3095970999998,None,334.60941539999976,335.29272889999993,335.8097853999998,334.0933264,left,1,0.3984924999999748,335.8097853999998,None,None,334.60941539999976,335.7928840999998,0.5110091000001376,0.5946607000000768,1.7113061000000016,1.7948946999999862,,,,,,ashley_1,001,2020_Feb_12_1014,posner,3.1.5,60.007548949615604,
0.5,180,1,right,2,4,1,0,1,0,3,5,29,7,,,,,,,,,336.228024,336.72675560000016,337.4434305,None,336.74340649999976,337.42698629999995,337.9438415999998,None,right,1,0.3363251000000673,337.9438415999998,None,None,336.74340649999976,337.9271868999999,0.5107083999996576,0.5939658999996027,1.711127999999917,1.7944524999998066,,,,,,ashley_1,001,2020_Feb_12_1014,posner,3.1.5,60.007548949615604,
-0.5,180,0,left,2,3,1,0,1,0,3,6,30,4,,,,,,,,,338.3115579999999,338.8107482999999,339.52764560000014,None,338.8275189000001,339.5108258999999,340.0277993999998,None,left,1,0.34843580000006114,340.0277993999998,None,None,338.8275189000001,340.01098890000003,0.5108351000003495,0.5939938000001348,1.7110585000000356,1.7944678000003478,,,,,,ashley_1,001,2020_Feb_12_1014,posner,3.1.5,60.007548949615604,
0.5,180,1,right,2,4,1,0,1,0,3,7,31,5,,,,,,,,,340.3955363,340.89462520000006,341.6116536999998,None,340.91156150000006,341.5948436999997,342.11182199999985,None,right,1,0.3203832999997758,342.11182199999985,None,None,340.91156150000006,342.09492180000007,0.5110098000000107,0.594486599999982,1.7112771999995857,1.7947745999999825,,,,,,ashley_1,001,2020_Feb_12_1014,posner,3.1.5,60.007548949615604,
0.5,180,1,right,2,4,1,0,1,0,4,0,32,6,,,,,,,,,342.4626195999999,342.96194890000015,343.6789140000001,None,342.9786592999999,343.6620812000001,344.1790501999999,None,right,1,0.38924290000022665,344.1790501999999,None,None,342.9786592999999,344.1622456,0.5109311000001071,0.594173999999839,1.711213399999906,1.7945936999999503,,,,,,ashley_1,001,2020_Feb_12_1014,posner,3.1.5,60.007548949615604,
-0.5,180,0,left,2,3,1,0,1,0,4,1,33,4,,,,,,,,,344.59683210000003,345.0960477999997,345.8127571,None,345.11244480000005,345.7966986000001,346.31289530000004,None,left,1,0.3752670999997463,346.31289530000004,None,None,345.11244480000005,346.2967106000001,0.5110325000000557,0.5943774000002122,1.711688200000026,1.7946575000000848,,,,,,ashley_1,001,2020_Feb_12_1014,posner,3.1.5,60.007548949615604,
-0.5,0,1,left,1,3,1,0,1,0,4,2,34,1,,,,,,,,,346.714109,347.21310989999984,347.9302610999998,None,347.22991939999974,347.91346870000007,348.4306289000001,None,left,1,0.4015417000000525,348.4306289000001,None,None,347.22991939999974,348.4134448,0.510835500000212,0.5947810000002391,1.7111465000002681,1.7947766000002048,,,,,,ashley_1,001,2020_Feb_12_1014,posner,3.1.5,60.007548949615604,
-0.5,0,1,left,1,3,1,0,1,0,4,3,35,2,,,,,,,,,348.8484764,349.3472778999999,350.06428030000006,None,349.36397320000015,350.0475572,350.5642201999999,None,left,1,0.3400810000002821,350.5642201999999,None,None,349.36397320000015,350.54766930000005,0.5108284000002641,0.5942012000000432,1.7111971000003905,1.794489600000361,,,,,,ashley_1,001,2020_Feb_12_1014,posner,3.1.5,60.007548949615604,
-0.5,0,1,left,1,3,1,0,1,0,4,4,36,0,,,,,,,,,350.9319808,351.43123849999984,352.14814909999996,None,351.44802230000005,352.13149509999994,352.6482741,None,left,1,0.399975600000289,352.6482741,None,None,351.44802230000005,352.63150240000004,0.5109781999999541,0.5942392000001746,1.7112291000003097,1.7946599000001697,,,,,,ashley_1,001,2020_Feb_12_1014,posner,3.1.5,60.007548949615604,
0.5,0,0,right,1,4,1,0,1,0,4,5,37,3,,,,,,,,,353.06574880000016,353.56528930000013,354.28195989999995,None,353.58196670000007,354.2654861000001,354.78211150000016,None,right,1,0.3221309000000474,354.78211150000016,None,None,353.58196670000007,354.76570489999995,0.5117167999997037,0.5949264999999286,1.7120962999997573,1.7952970999999707,,,,,,ashley_1,001,2020_Feb_12_1014,posner,3.1.5,60.007548949615604,
0.5,180,1,right,2,4,1,0,1,0,4,6,38,5,,,,,,,,,355.1325081,355.6325090999999,356.3495603000001,None,355.6493234999998,356.33265900000015,356.8495144999997,None,right,1,0.3426516999998057,356.8495144999997,None,None,355.6493234999998,356.8327758999999,0.5118520000000899,0.5951681000001372,1.7121044999998958,1.795733200000086,,,,,,ashley_1,001,2020_Feb_12_1014,posner,3.1.5,60.007548949615604,
0.5,180,1,right,2,4,1,0,1,0,4,7,39,7,,,,,,,,,357.2175139000001,357.7165507999998,358.4333895999998,None,357.73310619999984,358.41665939999984,358.93343649999997,None,right,1,0.362682599999971,358.93343649999997,None,None,357.73310619999984,358.91688410000006,0.5108521999995901,0.5943240999999944,1.7111738999997215,1.794547799999691,,,,,,ashley_1,001,2020_Feb_12_1014,posner,3.1.5,60.007548949615604,
-0.5,0,1,left,1,3,1,0,1,0,5,0,40,1,,,,,,,,,359.3177943999999,359.8172678000001,360.53388799999993,None,359.8337305,360.51746409999987,361.0341435,None,left,1,0.35001740000006976,361.0341435,None,None,359.8337305,361.0174803,0.5111516999995729,0.5943904999999177,1.711342699999932,1.7948008999997,,,,,,ashley_1,001,2020_Feb_12_1014,posner,3.1.5,60.007548949615604,
0.5,0,0,right,1,4,1,0,1,0,5,1,41,3,,,,,,,,,361.40203070000007,361.90115609999975,362.61806990000014,None,361.91794649999974,362.6013109999999,363.1181349999997,None,right,1,0.3860180000001492,363.1181349999997,None,None,361.91794649999974,363.10172139999986,0.5110101000000213,0.5943455999999969,1.711557200000243,1.7946164999998473,,,,,,ashley_1,001,2020_Feb_12_1014,posner,3.1.5,60.007548949615604,
-0.5,180,0,left,2,3,1,0,1,0,5,2,42,4,,,,,,,,,363.53575279999995,364.03505510000014,364.7520132999998,None,364.0517497000001,364.7353358999999,365.2523576999997,None,left,1,0.3559229000002233,365.2523576999997,None,None,364.0517497000001,365.2354984999997,0.5111601000003247,0.5945481000003383,1.711578500000087,1.7949164999999994,,,,,,ashley_1,001,2020_Feb_12_1014,posner,3.1.5,60.007548949615604,
-0.5,0,1,left,1,3,1,0,1,0,5,3,43,2,,,,,,,,,365.63646059999974,366.13577899999973,366.8525838999999,None,366.1524857999998,366.83611900000005,367.3526748999998,None,left,1,0.2794123999997282,367.3526748999998,None,None,366.1524857999998,367.3362035,0.5110654000000068,0.5944647000001169,1.711466200000359,1.7948898000004192,,,,,,ashley_1,001,2020_Feb_12_1014,posner,3.1.5,60.007548949615604,
0.5,180,1,right,2,4,1,0,1,0,5,4,44,5,,,,,,,,,367.65380689999984,368.15297969999983,368.8699308999999,None,368.1697006999998,368.8532411000001,369.3702979999998,None,right,1,0.28581979999989926,369.3702979999998,None,None,368.1697006999998,369.35339280000017,0.5108288999999786,0.5943438999997852,1.7112223999997696,1.7947291999998924,,,,,,ashley_1,001,2020_Feb_12_1014,posner,3.1.5,60.007548949615604,
-0.5,0,1,left,1,3,1,0,1,0,5,5,45,0,,,,,,,,,369.68759009999985,370.1869349999997,370.9038652999998,None,370.20355070000005,370.8873288,371.4040442999999,None,left,1,0.26001359999963825,371.4040442999999,None,None,370.20355070000005,371.38757350000014,0.5108657999999195,0.5944927000000462,1.7114817000001494,1.794908200000009,,,,,,ashley_1,001,2020_Feb_12_1014,posner,3.1.5,60.007548949615604,
0.5,180,1,right,2,4,1,0,1,0,5,6,46,6,,,,,,,,,371.68858769999997,372.1875836999998,372.9044497,None,372.20436169999994,372.8879738999999,373.40463390000014,None,right,1,0.427355499999976,373.40463390000014,None,None,372.20436169999994,373.38811080000005,0.5109065000001465,0.5944457999999031,1.7114096999998765,1.7946756000001187,,,,,,ashley_1,001,2020_Feb_12_1014,posner,3.1.5,60.007548949615604,
0.5,180,1,right,2,4,1,0,1,0,5,7,47,7,,,,,,,,,373.8560898999999,374.35487520000015,375.07187109999995,None,374.37174490000007,375.05536459999985,375.57202039999993,None,right,1,0.33215859999972963,375.57202039999993,None,None,374.37174490000007,375.5553648,0.5107778999999937,0.5943225999999413,1.711244500000248,1.7946062999999413,,,,,,ashley_1,001,2020_Feb_12_1014,posner,3.1.5,60.007548949615604,
-0.5,0,1,left,1,3,1,0,1,0,6,0,48,0,,,,,,,,,375.9225213999998,376.42216640000015,377.13905650000015,None,376.43905129999985,377.1223918999999,377.6393227999997,None,left,1,0.2649034999999458,377.6393227999997,None,None,376.43905129999985,377.62259989999984,0.5113673000000745,0.5949764000001778,1.7117895000001226,1.795225500000015,,,,,,ashley_1,001,2020_Feb_12_1014,posner,3.1.5,60.007548949615604,
-0.5,0,1,left,1,3,1,0,1,0,6,1,49,2,,,,,,,,,377.9235319999998,378.4228272999999,379.1398623,None,378.43969130000005,379.12306609999996,379.64011819999996,None,left,1,0.36005670000031387,379.64011819999996,None,None,378.43969130000005,379.6231763999999,0.5110368999999082,0.5944257999999536,1.7113706000000093,1.7948710000000574,,,,,,ashley_1,001,2020_Feb_12_1014,posner,3.1.5,60.007548949615604,
0.5,180,1,right,2,4,1,0,1,0,6,2,50,5,,,,,,,,,380.024864,380.52356469999995,381.24046739999994,None,380.5403468999998,381.22374720000016,381.7406046000001,None,right,1,0.23540360000015426,381.7406046000001,None,None,380.5403468999998,381.72395529999994,0.5108761000001323,0.5941888000002109,1.7112827999999354,1.7945709000000534,,,,,,ashley_1,001,2020_Feb_12_1014,posner,3.1.5,60.007548949615604,
0.5,180,1,right,2,4,1,0,1,0,6,3,51,7,,,,,,,,,382.00814420000006,382.5075674999998,383.2243155000001,None,382.5241090999998,383.20776449999994,383.7245195999999,None,right,1,0.32372040000018387,383.7245195999999,None,None,382.5241090999998,383.7079512,0.5109778000000915,0.5941916000001584,1.7113347000004069,1.7946781000000556,,,,,,ashley_1,001,2020_Feb_12_1014,posner,3.1.5,60.007548949615604,
0.5,0,0,right,1,4,1,0,1,0,6,4,52,3,,,,,,,,,384.0757834000001,384.57494640000004,385.29170829999975,None,384.59154039999976,385.2751540999998,385.79183409999996,None,right,1,0.4322346000003563,385.79183409999996,None,None,384.59154039999976,385.77525079999987,0.5112272999999732,0.5944916999997076,1.711496999999781,1.794773300000088,,,,,,ashley_1,001,2020_Feb_12_1014,posner,3.1.5,60.007548949615604,
-0.5,0,1,left,1,3,1,0,1,0,6,5,53,1,,,,,,,,,386.24259440000014,386.74199739999995,387.45899499999996,None,386.7588219999998,387.4422761000001,387.9593795999999,None,left,1,0.32860210000035295,387.9593795999999,None,None,386.7588219999998,387.9423495000001,0.5111939999997048,0.5950871999998526,1.7115285999998378,1.795122099999844,,,,,,ashley_1,001,2020_Feb_12_1014,posner,3.1.5,60.007548949615604,
-0.5,180,0,left,2,3,1,0,1,0,6,6,54,4,,,,,,,,,388.3100212999998,388.8094996,389.52643499999976,None,388.8263529999999,389.5098459000001,390.02666120000004,None,left,1,0.41343300000016825,390.02666120000004,None,None,388.8263529999999,390.00984770000014,0.5114340000000084,0.5947479999999814,1.71175489999996,1.795008599999619,,,,,,ashley_1,001,2020_Feb_12_1014,posner,3.1.5,60.007548949615604,
0.5,180,1,right,2,4,1,0,1,0,6,7,55,6,,,,,,,,,390.4608884999998,390.96026859999984,391.6769559999998,None,390.9768239,391.6604219999999,392.1772345999998,None,right,1,0.3588241000002199,392.1772345999998,None,None,390.9768239,392.16049109999994,0.5111844000002748,0.5942972000002555,1.7113994000001185,1.794609600000058,,,,,,ashley_1,001,2020_Feb_12_1014,posner,3.1.5,60.007548949615604,
-0.5,0,1,left,1,3,1,0,1,0,7,0,56,2,,,,,,,,,392.56137339999987,393.0608078999999,393.7778634000001,None,393.0776028,393.7610160999998,394.27788839999994,None,left,1,0.3063179000000673,394.27788839999994,None,None,393.0776028,394.26116139999976,0.5111629000002722,0.5945043000001533,1.7114903000001505,1.7947935000001962,,,,,,ashley_1,001,2020_Feb_12_1014,posner,3.1.5,60.007548949615604,
0.5,180,1,right,2,4,1,0,1,0,7,1,57,6,,,,,,,,,394.6122666000001,395.1117644000001,395.8284324000001,None,395.1282993,395.81163419999984,396.3285596999999,None,right,1,0.3276247000003423,396.3285596999999,None,None,395.1282993,396.3117726999999,0.5114145000002281,0.5943050000000767,1.711403799999971,1.794733300000189,,,,,,ashley_1,001,2020_Feb_12_1014,posner,3.1.5,60.007548949615604,
0.5,180,1,right,2,4,1,0,1,0,7,2,58,7,,,,,,,,,396.67959429999974,397.17899959999977,397.8955922,None,397.1955597000001,397.87902209999993,398.39584149999973,398.8793664,right,1,0.476180199999817,398.39584149999973,None,None,397.1955597000001,398.3789840999998,0.5112340000000586,0.5940818000003674,1.7111939999999777,1.794503000000077,,,,,,ashley_1,001,2020_Feb_12_1014,posner,3.1.5,60.007548949615604,
-0.5,0,1,left,1,3,1,0,1,0,7,3,59,1,,,,,,,,,398.8971054999997,399.39627389999987,400.11298899999974,None,399.41278439999996,400.0961865999998,400.6132779999998,None,left,1,0.33070580000003247,400.6132779999998,None,None,399.41278439999996,400.59654279999995,0.5110721000000922,0.5942986999998539,1.711324500000046,1.7945833999997376,,,,,,ashley_1,001,2020_Feb_12_1014,posner,3.1.5,60.007548949615604,
-0.5,0,1,left,1,3,1,0,1,0,7,4,60,0,,,,,,,,,400.9647381,401.4632941,402.18044580000014,None,401.4801987999999,402.1634952999998,402.68053280000004,403.16392540000015,None,0,,402.68053280000004,None,None,401.4801987999999,402.6636817999997,0.5107880000000478,0.5941256000000976,1.711160700000164,1.7945973000000777,,,,,,ashley_1,001,2020_Feb_12_1014,posner,3.1.5,60.007548949615604,
-0.5,180,0,left,2,3,1,0,1,0,7,5,61,4,,,,,,,,,403.66403820000005,404.1641743,404.88120309999977,403.66403820000005,404.1810123,404.8644307999998,405.38122729999986,None,right,0,0.20273619999989023,405.38122729999986,None,None,404.1810123,405.36447850000013,0.5130325000000084,0.5963236000002325,1.7133178000003682,1.7970076999999947,,,,,,ashley_1,001,2020_Feb_12_1014,posner,3.1.5,60.007548949615604,
0.5,180,1,right,2,4,1,0,1,0,7,6,62,5,,,,,,,,,405.6157654999997,406.11473339999975,406.83152340000015,None,406.1317420999999,406.81516220000003,407.33187,407.81535099999974,right,1,0.500129300000026,407.33187,None,None,406.1317420999999,407.3153963999998,0.5109466999997494,0.5943563999999242,1.711583100000098,1.7947877999999946,,,,,,ashley_1,001,2020_Feb_12_1014,posner,3.1.5,60.007548949615604,
0.5,0,0,right,1,4,1,0,1,0,7,7,63,3,,,,,,,,,407.84918389999984,408.34896070000013,409.06562989999975,None,408.3654526,409.04919549999977,409.5658662000001,410.0495480999998,right,1,0.4822460999998839,409.5658662000001,None,None,408.3654526,409.5493127,0.5114544999996724,0.5945295999999871,1.7117889999999534,1.7949872999997751,,,,,,ashley_1,001,2020_Feb_12_1014,posner,3.1.5,60.007548949615604,
-0.5,180,0,left,2,3,1,0,1,0,8,0,64,4,,,,,,,,,410.06701239999984,410.5662812999999,411.2830052999998,None,410.5828664999999,411.26643490000015,411.78323009999986,None,left,1,0.3207876000001306,411.78323009999986,None,None,410.5828664999999,411.76665809999986,0.5109946999996282,0.5941256999999496,1.7113606999996591,1.7947783999998137,,,,,,ashley_1,001,2020_Feb_12_1014,posner,3.1.5,60.007548949615604,
-0.5,0,1,left,1,3,1,0,1,0,8,1,65,1,,,,,,,,,412.13403960000005,412.6333252999998,413.3505015999999,None,412.65016160000005,413.3336641000001,413.8507384999998,None,left,1,0.46145800000022064,413.8507384999998,None,None,412.65016160000005,413.8338100000001,0.5107124000001022,0.5942560000003141,1.7111306000001605,1.7945125000001099,,,,,,ashley_1,001,2020_Feb_12_1014,posner,3.1.5,60.007548949615604,
0.5,180,1,right,2,4,1,0,1,0,8,2,66,7,,,,,,,,,414.33476999999993,414.83425469999975,415.5512073,None,414.85100639999973,415.53439019999996,416.05122329999995,414.33476999999993,right,1,0.3327985999999328,416.05122329999995,None,None,414.85100639999973,416.03457739999976,0.5115157000000181,0.5949600000003556,1.7118451000001187,1.7952383000001646,,,,,,ashley_1,001,2020_Feb_12_1014,posner,3.1.5,60.007548949615604,
-0.5,0,1,left,1,3,1,0,1,0,8,3,67,2,,,,,,,,,416.40245259999983,416.9014033000003,417.6184069000001,None,416.9181484999999,417.60161100000005,418.118657,None,left,1,0.28939879999961704,418.118657,None,None,416.9181484999999,418.10174629999983,0.5107579000000442,0.5941612999999961,1.7110834000000068,1.79451089999975,,,,,,ashley_1,001,2020_Feb_12_1014,posner,3.1.5,60.007548949615604,
0.5,180,1,right,2,4,1,0,1,0,8,4,68,6,,,,,,,,,418.4362148,418.9353637000004,419.65221329999986,None,418.95196639999995,419.63579969999955,420.15243740000005,None,right,1,0.30350449999968987,420.15243740000005,None,None,418.95196639999995,420.13581090000025,0.5112716999992699,0.594413099999656,1.7113822000001164,1.7947693999994954,,,,,,ashley_1,001,2020_Feb_12_1014,posner,3.1.5,60.007548949615604,
0.5,0,0,right,1,4,1,0,1,0,8,5,69,3,,,,,,,,,420.4868540999996,420.9861208000002,421.7027914,None,421.0027334999995,421.6863744000002,422.2030609000003,422.68667259999984,None,0,,422.2030609000003,None,None,421.0027334999995,422.1865302999995,0.5108937000004516,0.5942536000002292,1.711283800000274,1.7945802000003823,,,,,,ashley_1,001,2020_Feb_12_1014,posner,3.1.5,60.007548949615604,
-0.5,0,1,left,1,3,1,0,1,0,8,6,70,0,,,,,,,,,423.18671650000033,423.6869635000003,424.40383779999956,423.18671650000033,423.7036247999995,424.38719690000016,424.90393700000004,None,left,1,0.2800257999997484,424.90393700000004,None,None,423.7036247999995,424.8873705999995,0.5130105999996886,0.5963199999996505,1.713403699999617,1.7967079000000012,,,,,,ashley_1,001,2020_Feb_12_1014,posner,3.1.5,60.007548949615604,
0.5,180,1,right,2,4,1,0,1,0,8,7,71,5,,,,,,,,,425.2052549,425.7041704000003,426.4212200000002,None,425.7209548999999,426.40436429999954,426.9211532999998,None,right,1,0.334799700000076,426.9211532999998,None,None,425.7209548999999,426.9045156000002,0.510889700000007,0.5942881000000853,1.711215500000435,1.7945665000006557,,,,,,ashley_1,001,2020_Feb_12_1014,posner,3.1.5,60.007548949615604,
-0.5,180,0,left,2,3,1,0,1,0,9,0,72,4,,,,,,,,,427.2723397999998,427.7715194000002,428.4884540000003,None,427.7881615999995,428.4716232999999,428.98868500000026,429.47196239999994,None,0,,428.98868500000026,None,None,427.7881615999995,428.9719024999995,0.5111213000000134,0.59451480000007,1.7114931999994951,1.7948351999993974,,,,,,ashley_1,001,2020_Feb_12_1014,posner,3.1.5,60.007548949615604,
-0.5,0,1,left,1,3,1,0,1,0,9,1,73,0,,,,,,,,,429.97206840000035,430.4723307000004,431.1894636999996,429.97206840000035,430.48912029999974,431.17249249999986,431.68926999999985,None,left,1,0.3666865000004691,431.68926999999985,None,None,430.48912029999974,431.6727523999998,0.5127740000007179,0.5961115000000063,1.713175200000478,1.7965919000007489,,,,,,ashley_1,001,2020_Feb_12_1014,posner,3.1.5,60.007548949615604,
0.5,0,0,right,1,4,1,0,1,0,9,2,74,3,,,,,,,,,432.0738091000003,432.57299820000026,433.28974180000023,None,432.5896869999997,433.27310789999956,433.7900946999998,None,right,1,0.4337585000002946,433.7900946999998,None,None,432.5896869999997,433.7734225000004,0.5108325999999579,0.5944516999998086,1.7112431000005017,1.7948198000003686,,,,,,ashley_1,001,2020_Feb_12_1014,posner,3.1.5,60.007548949615604,
0.5,180,1,right,2,4,1,0,1,0,9,3,75,7,,,,,,,,,434.24056480000036,434.74037709999993,435.4574907999995,None,434.75710830000025,435.4406213000002,435.95741220000036,None,right,1,0.38658720000057656,435.95741220000036,None,None,434.75710830000025,435.9408072999995,0.5116361999998844,0.5948148999996192,1.7120477999997092,1.795270900000105,,,,,,ashley_1,001,2020_Feb_12_1014,posner,3.1.5,60.007548949615604,
0.5,180,1,right,2,4,1,0,1,0,9,4,76,6,,,,,,,,,436.3752472999995,436.8743808999998,437.59133050000037,None,436.8909778999996,437.5745489000001,438.0914342999995,None,right,1,0.4445333000003302,438.0914342999995,None,None,436.8909778999996,438.0747474,0.5110927000005177,0.5943753999999899,1.711457899999914,1.7948105000004944,,,,,,ashley_1,001,2020_Feb_12_1014,posner,3.1.5,60.007548949615604,
0.5,180,1,right,2,4,1,0,1,0,9,5,77,5,,,,,,,,,438.5590919999995,439.05839300000025,439.7752461,None,439.0751720999997,439.75843629999963,440.27553119999993,None,right,1,0.4443327999997564,440.27553119999993,None,None,439.0751720999997,440.2587524999999,0.5111400000005233,0.5944353000004412,1.7114819999997053,1.794607900000301,,,,,,ashley_1,001,2020_Feb_12_1014,posner,3.1.5,60.007548949615604,
-0.5,0,1,left,1,3,1,0,1,0,9,6,78,2,,,,,,,,,440.74244519999957,441.24234139999953,441.9593212,None,441.2590871000002,441.9424810999999,442.4594476000002,None,left,1,0.37258879999990313,442.4594476000002,None,None,441.2590871000002,442.44266739999966,0.5114551999995456,0.5949740999994901,1.7117566999995688,1.7952456000002712,,,,,,ashley_1,001,2020_Feb_12_1014,posner,3.1.5,60.007548949615604,
-0.5,0,1,left,1,3,1,0,1,0,9,7,79,1,,,,,,,,,442.8603559000003,443.35976240000036,444.07655160000013,None,443.37641150000036,444.05993320000016,444.5766956999996,None,left,1,0.32714169999962905,444.5766956999996,None,None,443.37641150000036,444.5602895000002,0.5112494000004517,0.5943234000005759,1.711758500000542,1.7947081000002072,,,,,,ashley_1,001,2020_Feb_12_1014,posner,3.1.5,60.007548949615604,
0.5,180,1,right,2,4,1,0,1,0,10,0,80,7,,,,,,,,,444.9280173999996,445.4270899000003,446.14382079999996,None,445.4435376000001,446.1271588999998,446.6439683999997,None,right,1,0.3400301000001491,446.6439683999997,None,None,445.4435376000001,446.62755259999994,0.510900600000241,0.5940977000000203,1.7113510999997743,1.7945670999997674,,,,,,ashley_1,001,2020_Feb_12_1014,posner,3.1.5,60.007548949615604,
0.5,180,1,right,2,4,1,0,1,0,10,1,81,5,,,,,,,,,447.01185950000036,447.5109593999996,448.2280559000001,None,447.5277000999995,448.21118190000016,448.72811920000004,None,right,1,0.2876611000001503,448.72811920000004,None,None,447.5277000999995,448.7115571000004,0.5109793999999965,0.594354700000622,1.711551000000327,1.7950931000004857,,,,,,ashley_1,001,2020_Feb_12_1014,posner,3.1.5,60.007548949615604,
-0.5,0,1,left,1,3,1,0,1,0,10,2,82,0,,,,,,,,,449.04557300000033,449.54485039999963,450.2618593999996,None,449.56152959999963,450.24509020000005,450.76192699999956,None,left,1,0.3178509999997914,450.76192699999956,None,None,449.56152959999963,450.74528459999965,0.511305099999845,0.5944050999996762,1.7113795999994181,1.794818700000178,,,,,,ashley_1,001,2020_Feb_12_1014,posner,3.1.5,60.007548949615604,
0.5,180,1,right,2,4,1,0,1,0,10,3,83,6,,,,,,,,,451.0962851000004,451.5955713000003,452.3123687999996,None,451.61215470000025,452.29596029999993,452.81263599999966,None,right,1,0.32334999999966385,452.81263599999966,None,None,451.61215470000025,452.7962566999995,0.5117488999994748,0.5951414000001023,1.7124252999992677,1.7956534999993892,,,,,,ashley_1,001,2020_Feb_12_1014,posner,3.1.5,60.007548949615604,
-0.5,0,1,left,1,3,1,0,1,0,10,4,84,2,,,,,,,,,453.1639030999995,453.6628498,454.3798823999996,None,453.67965129999993,454.36307560000023,454.8800248999996,None,left,1,0.26384219999999914,454.8800248999996,None,None,453.67965129999993,454.8631376000003,0.5109986000006757,0.5943021000002773,1.7112666000002719,1.7947487000001274,,,,,,ashley_1,001,2020_Feb_12_1014,posner,3.1.5,60.007548949615604,
-0.5,0,1,left,1,3,1,0,1,0,10,5,85,1,,,,,,,,,455.16424860000006,455.66348199999993,456.3804030000001,None,455.6802834,456.3636805999995,456.8806119000001,457.36380219999955,left,1,0.559260500000164,456.8806119000001,None,None,455.6802834,456.8639339000001,0.510929600000054,0.594350399999712,1.711363800000072,1.7948413000003711,,,,,,ashley_1,001,2020_Feb_12_1014,posner,3.1.5,60.007548949615604,
-0.5,180,0,left,2,3,1,0,1,0,10,6,86,4,,,,,,,,,457.4652801000002,457.9640411999999,458.6810327000003,None,457.98085340000034,458.6643826999998,459.18114570000034,459.66491529999985,left,1,0.47469679999994696,459.18114570000034,None,None,457.98085340000034,459.16464650000034,0.5108828000002177,0.5944400999997015,1.7117148999996061,1.7947315999999773,,,,,,ashley_1,001,2020_Feb_12_1014,posner,3.1.5,60.007548949615604,
0.5,0,0,right,1,4,1,0,1,0,10,7,87,3,,,,,,,,,459.68213209999976,460.1814972000002,460.89850920000026,None,460.19827609999993,460.8817008999995,461.3986579000002,None,right,1,0.39317769999979646,461.3986579000002,None,None,460.19827609999993,461.3818345999998,0.5115217000002303,0.5948011000000406,1.711841899999854,1.7953096999999616,,,,,,ashley_1,001,2020_Feb_12_1014,posner,3.1.5,60.007548949615604,
,,,,,,1,0,1,0,,,,,,,,,,,,,,,,,,,,,,,,,,,,,,,,,461.8163396,None,1.6400000276917126e-05,0.994545300000027,,ashley_1,001,2020_Feb_12_1014,posner,3.1.5,60.007548949615604,
-0.5,0,1,left,1,3,2,0,2,0,0,0,0,2,1.2500000593718141e-05,0.0974411000006512,522.8342555999998,None,1.5300000086426735e-05,0.09773949999998877,524.9350223000001,None,525.2141394,525.7184642000002,526.4354912999997,None,525.7354354999998,526.4187734999996,526.9356177999998,None,left,1,0.424050100000386,526.9356177999998,None,None,525.7354354999998,526.9188799000003,0.513713700000153,0.5970774999996138,1.714105600000039,1.7976123999997071,,,,,,ashley_1,001,2020_Feb_12_1014,posner,3.1.5,60.007548949615604,
-0.5,0,1,left,1,3,2,0,2,0,0,1,1,0,,,,,,,,,527.3875105999996,527.8859268999995,528.6026363999999,None,527.9023206000002,528.5862057000004,529.1028065999999,None,left,1,0.36890970000058587,529.1028065999999,None,None,527.9023206000002,529.0862859999997,0.5100205999997343,0.5932768999991822,1.7103645999995933,1.793740699999944,,,,,,ashley_1,001,2020_Feb_12_1014,posner,3.1.5,60.007548949615604,
-0.5,180,0,left,2,3,2,0,2,0,0,2,2,4,,,,,,,,,529.4874385000003,529.9865908000002,530.7034545999995,None,530.0030557999999,530.6867329999995,531.2034586999998,None,left,1,0.3723104999999123,531.2034586999998,None,None,530.0030557999999,531.1868728,0.5109810999992987,0.5943342999999004,1.7112497999996776,1.7946296999998594,,,,,,ashley_1,001,2020_Feb_12_1014,posner,3.1.5,60.007548949615604,
0.5,0,0,right,1,4,2,0,2,0,0,3,3,3,,,,,,,,,531.6048072000003,532.1036997000001,532.8207081,None,532.1205000999998,532.8040471000004,533.3209819000003,None,right,1,0.3826721000004909,533.3209819000003,None,None,532.1205000999998,533.3041191000002,0.5109764999997424,0.5944005000001198,1.711383300000307,1.7948994999997012,,,,,,ashley_1,001,2020_Feb_12_1014,posner,3.1.5,60.007548949615604,
0.5,180,1,right,2,4,2,0,2,0,0,4,4,5,,,,,,,,,533.7218788,534.2213421999995,534.9381115999995,None,534.2377311999999,534.9213331000001,535.4383029,None,right,1,0.3293739999999161,535.4383029,None,None,534.2377311999999,535.4214996000001,0.5113490000003367,0.5943656999997984,1.711491400000341,1.7950642000005246,,,,,,ashley_1,001,2020_Feb_12_1014,posner,3.1.5,60.007548949615604,
-0.5,0,1,left,1,3,2,0,2,0,0,5,5,1,,,,,,,,,535.7891680000002,536.2885999,537.00533,None,536.3051888999998,536.988789,537.5055648999996,537.9892938000003,left,1,0.4784689999996772,537.5055648999996,None,None,536.3051888999998,537.4890187000001,0.5111907000000429,0.594210700000076,1.7116010999998252,1.7946501999995235,,,,,,ashley_1,001,2020_Feb_12_1014,posner,3.1.5,60.007548949615604,
0.5,180,1,right,2,4,2,0,2,0,0,6,6,6,,,,,,,,,538.0071491999997,538.5059676999999,539.2225828,None,538.5224851000003,539.2060481999997,539.7228015999999,None,right,1,0.3007231999999931,539.7228015999999,None,None,538.5224851000003,539.7060676000001,0.5109593000006498,0.5941627000001972,1.7110517000000982,1.7947229000001244,,,,,,ashley_1,001,2020_Feb_12_1014,posner,3.1.5,60.007548949615604,
0.5,180,1,right,2,4,2,0,2,0,0,7,7,7,,,,,,,,,540.0401867999999,540.5399557000001,541.2566847999997,None,540.5564428999996,541.2400311000001,541.7567097000001,None,right,1,0.4589587999998912,541.7567097000001,None,None,540.5564428999996,541.7401914000002,0.511706399999639,0.5946867000002385,1.7119301000002451,1.7951273999997284,,,,,,ashley_1,001,2020_Feb_12_1014,posner,3.1.5,60.007548949615604,
-0.5,0,1,left,1,3,2,0,2,0,1,0,8,1,,,,,,,,,542.2406181999995,542.7404794000004,543.4575100000002,None,542.7571883999999,543.4406116999999,543.9576225000001,542.2406181999995,left,1,0.31397629999992205,543.9576225000001,None,None,542.7571883999999,543.9407991999997,0.5116527000000133,0.5948411999997916,1.7119503000003533,1.7952230999999301,,,,,,ashley_1,001,2020_Feb_12_1014,posner,3.1.5,60.007548949615604,
-0.5,0,1,left,1,3,2,0,2,0,1,1,9,0,,,,,,,,,544.2916354999998,544.7911008000001,545.5080724,None,544.8078078999997,545.4913577999996,546.0080932000001,None,left,1,0.35155959999974584,546.0080932000001,None,None,544.8078078999997,545.9914288,0.5114031999992221,0.5951347999998688,1.7117147999997542,1.7952160999993794,,,,,,ashley_1,001,2020_Feb_12_1014,posner,3.1.5,60.007548949615604,
0.5,180,1,right,2,4,2,0,2,0,1,2,10,6,,,,,,,,,546.3758664999996,546.8752458999998,547.5917546999999,None,546.8918470999997,547.5754815,548.092138,None,right,1,0.3316322000000582,548.092138,None,None,546.8918470999997,548.0754349999997,0.5111989999995785,0.5942900000000009,1.7113730000000942,1.7947351000002527,,,,,,ashley_1,001,2020_Feb_12_1014,posner,3.1.5,60.007548949615604,
-0.5,0,1,left,1,3,2,0,2,0,1,3,11,2,,,,,,,,,548.4433223999995,548.9423519000002,549.6593350000003,None,548.9590185999996,549.6424483000001,550.1597916000001,None,left,1,0.3280243999997765,550.1597916000001,None,None,548.9590185999996,550.1427215000003,0.5110377000000881,0.594586100000015,1.7113843000006455,1.79481240000041,,,,,,ashley_1,001,2020_Feb_12_1014,posner,3.1.5,60.007548949615604,
0.5,180,1,right,2,4,2,0,2,0,1,4,12,5,,,,,,,,,550.5107114000002,551.0097364000003,551.7266706999999,None,551.0264454999997,551.7098685999999,552.2264407000002,None,right,1,0.3332116000001406,552.2264407000002,None,None,551.0264454999997,552.2099818999995,0.5108868000006623,0.5940121000003273,1.7111115000006976,1.7945011000001614,,,,,,ashley_1,001,2020_Feb_12_1014,posner,3.1.5,60.007548949615604,
0.5,0,0,right,1,4,2,0,2,0,1,5,13,3,,,,,,,,,552.5780453999996,553.0770223999998,553.7942772999995,None,553.0936295000001,553.7773257999997,554.2946249999995,None,right,1,0.42494339999939257,554.2946249999995,None,None,553.0936295000001,554.2774166999998,0.5108173999997234,0.5942409999997835,1.7112019999995027,1.7946020999997927,,,,,,ashley_1,001,2020_Feb_12_1014,posner,3.1.5,60.007548949615604,
-0.5,180,0,left,2,3,2,0,2,0,1,6,14,4,,,,,,,,,554.7455186999996,555.2442668000003,555.9613037999998,None,555.2610870999997,555.9445622000003,556.4612294999997,None,left,1,0.31440590000056545,556.4612294999997,None,None,555.2610870999997,556.4448286999996,0.5108766000003016,0.5943691000002218,1.7114152000003742,1.7946808000006058,,,,,,ashley_1,001,2020_Feb_12_1014,posner,3.1.5,60.007548949615604,
0.5,180,1,right,2,4,2,0,2,0,1,7,15,7,,,,,,,,,556.7960889999995,557.2952327000003,558.0116526000002,None,557.3115121999999,557.9950763999996,558.5117913000004,558.9956607000004,None,0,,558.5117913000004,None,None,557.3115121999999,558.4954910999995,0.5110549999999421,0.5942982999995365,1.7112908999997671,1.7946037000001525,,,,,,ashley_1,001,2020_Feb_12_1014,posner,3.1.5,60.007548949615604,
-0.5,180,0,left,2,3,2,0,2,0,2,0,16,4,,,,,,,,,559.4960025,559.9958809,560.7125907,559.4960025,560.0123201999995,560.6963595999996,561.2127928999998,None,left,1,0.3388074999993478,561.2127928999998,None,None,560.0123201999995,561.1960406999997,0.5115617999999813,0.5949546000001646,1.7117145000001983,1.7953596000006655,,,,,,ashley_1,001,2020_Feb_12_1014,posner,3.1.5,60.007548949615604,
0.5,180,1,right,2,4,2,0,2,0,2,1,17,5,,,,,,,,,561.5803711999997,562.0799974000001,562.7968394,None,562.0966331999998,562.7800846999999,563.2972379000003,None,right,1,0.31078120000074705,563.2972379000003,None,None,562.0966331999998,563.2801609999997,0.5113709000006565,0.5943794000004345,1.711522500000683,1.7950499000007767,,,,,,ashley_1,001,2020_Feb_12_1014,posner,3.1.5,60.007548949615604,
-0.5,0,1,left,1,3,2,0,2,0,2,2,18,1,,,,,,,,,563.6317605000004,564.1305820999996,564.8473425000002,None,564.1471068000001,564.8306192999999,565.3474997000003,None,left,1,0.3080344999998488,565.3474997000003,None,None,564.1471068000001,565.3309270999998,0.5109081999999034,0.594000899999628,1.7112404999998034,1.7944107000002987,,,,,,ashley_1,001,2020_Feb_12_1014,posner,3.1.5,60.007548949615604,
0.5,0,0,right,1,4,2,0,2,0,2,3,19,3,,,,,,,,,565.6815414000002,566.1810016,566.8981671000001,None,566.1980302000002,566.8812103,567.3983486999996,None,right,1,0.3932622000002084,567.3983486999996,None,None,566.1980302000002,567.3813621999998,0.5115167000003566,0.594895400000496,1.7118564000002152,1.7952663000005487,,,,,,ashley_1,001,2020_Feb_12_1014,posner,3.1.5,60.007548949615604,
-0.5,0,1,left,1,3,2,0,2,0,2,4,20,0,,,,,,,,,567.8162966999998,568.3152522,569.0318477000001,None,568.3317011999998,569.0152158000001,569.5319475999995,None,left,1,0.3156378000003315,569.5319475999995,None,None,568.3317011999998,569.5153947999997,0.5109780000002502,0.5941769000000932,1.711104300000443,1.794539800000166,,,,,,ashley_1,001,2020_Feb_12_1014,posner,3.1.5,60.007548949615604,
0.5,180,1,right,2,4,2,0,2,0,2,5,21,6,,,,,,,,,569.8663907,570.3658233999995,571.0826423999997,None,570.3822739999996,571.0657209999999,571.5827100999995,None,right,1,0.3368194000004223,571.5827100999995,None,None,570.3822739999996,571.5661166,0.5113486000000194,0.5947657000006075,1.7116215000005468,1.7949579000005542,,,,,,ashley_1,001,2020_Feb_12_1014,posner,3.1.5,60.007548949615604,
0.5,180,1,right,2,4,2,0,2,0,2,6,22,7,,,,,,,,,571.9499968999999,572.4496141999998,573.1667441,None,572.4664528000003,573.1499125,573.6666852999997,None,right,1,0.42088650000005146,573.6666852999997,None,None,572.4664528000003,573.6503353999997,0.5111556000001656,0.5945594999993773,1.7118494999995164,1.7947988999994777,,,,,,ashley_1,001,2020_Feb_12_1014,posner,3.1.5,60.007548949615604,
-0.5,0,1,left,1,3,2,0,2,0,2,7,23,2,,,,,,,,,574.1177220999998,574.6170867000001,575.3338322,None,574.6335257999999,575.3172648999998,575.8339367999997,None,left,1,0.3336608999998134,575.8339367999997,None,None,574.6335257999999,575.8174442999998,0.5109516000002259,0.5942121000007319,1.7112967000002755,1.794684800000141,,,,,,ashley_1,001,2020_Feb_12_1014,posner,3.1.5,60.007548949615604,
-0.5,0,1,left,1,3,2,0,2,0,3,0,24,2,,,,,,,,,576.1847539,576.6842778999999,577.4012004999995,None,576.7009436999997,577.3848076000004,577.9012692999995,None,left,1,0.36222859999998036,577.9012692999995,None,None,576.7009436999997,577.8846548000001,0.511276899999757,0.5945934999999736,1.711629499999617,1.7950777999994898,,,,,,ashley_1,001,2020_Feb_12_1014,posner,3.1.5,60.007548949615604,
0.5,180,1,right,2,4,2,0,2,0,3,1,25,5,,,,,,,,,578.2861893999998,578.7849806000004,579.5018084000003,None,578.8017231000003,579.4853168,580.0020386999995,None,right,1,0.341411500000504,580.0020386999995,None,None,578.8017231000003,579.9854248000001,0.5109283000001597,0.5943441999997958,1.7113489000003028,1.7945613000001686,,,,,,ashley_1,001,2020_Feb_12_1014,posner,3.1.5,60.007548949615604,
-0.5,180,0,left,2,3,2,0,2,0,3,2,26,4,,,,,,,,,580.3695274000002,580.8691554999996,581.585795,None,580.8856883999997,581.5692693000001,582.0859950000004,None,left,1,0.3295687999998336,582.0859950000004,None,None,580.8856883999997,582.0693314999999,0.5115222000003996,0.5945190000002185,1.711690400000407,1.7948822999996992,,,,,,ashley_1,001,2020_Feb_12_1014,posner,3.1.5,60.007548949615604,
-0.5,0,1,left,1,3,2,0,2,0,3,3,27,0,,,,,,,,,582.43714,582.9361603999996,583.6530544999996,None,582.9527372000002,583.6364217,584.1531347999999,None,left,1,0.3824356000004627,584.1531347999999,None,None,582.9527372000002,584.1366840000001,0.5106882000000041,0.5943582000008973,1.711184200000389,1.7944777000002432,,,,,,ashley_1,001,2020_Feb_12_1014,posner,3.1.5,60.007548949615604,
-0.5,0,1,left,1,3,2,0,2,0,3,4,28,1,,,,,,,,,584.5545614000002,585.0534508999999,585.7704236,None,585.0702765999995,585.7537830000001,586.2706431999995,None,left,1,0.4248755999997229,586.2706431999995,None,None,585.0702765999995,586.2538541000004,0.5107910000006086,0.5943171999997503,1.7111761000005572,1.794551599999977,,,,,,ashley_1,001,2020_Feb_12_1014,posner,3.1.5,60.007548949615604,
0.5,0,0,right,1,4,2,0,2,0,3,5,29,3,,,,,,,,,586.7215632999996,587.2209741999995,587.9378022999999,None,587.2375702999998,587.9210615000002,588.4378273000002,None,right,1,0.417600400000083,588.4378273000002,None,None,587.2375702999998,588.4212942000004,0.511211999999432,0.594455299999936,1.7115171999994345,1.7951295999991999,,,,,,ashley_1,001,2020_Feb_12_1014,posner,3.1.5,60.007548949615604,
0.5,180,1,right,2,4,2,0,2,0,3,6,30,7,,,,,,,,,588.8719265999998,589.3715106999998,590.0885177999999,None,589.3883976999996,590.0717223000001,590.5885190999998,None,right,1,0.45891539999956876,590.5885190999998,None,None,589.3883976999996,590.5718559999996,0.511352700000316,0.5949835000001258,1.7116758000001937,1.795117399999981,,,,,,ashley_1,001,2020_Feb_12_1014,posner,3.1.5,60.007548949615604,
0.5,180,1,right,2,4,2,0,2,0,3,7,31,6,,,,,,,,,591.0727877999998,591.5722657999995,592.2892069,None,591.5889212000002,592.2724411999998,592.7896287000003,591.0727877999998,right,1,0.42583190000004834,592.7896287000003,None,None,591.5889212000002,592.7725338,0.511307300000226,0.5947210000003906,1.7115602000003491,1.7949797999999646,,,,,,ashley_1,001,2020_Feb_12_1014,posner,3.1.5,60.007548949615604,
0.5,180,1,right,2,4,2,0,2,0,4,0,32,5,,,,,,,,,593.2402836000001,593.7395260000003,594.4564333999997,None,593.7563760000003,594.4399302000002,594.9566507,None,right,1,0.306934000000183,594.9566507,None,None,593.7563760000003,594.9400024999995,0.5111301000006279,0.5943376000004719,1.7115828000005422,1.7948030000006838,,,,,,ashley_1,001,2020_Feb_12_1014,posner,3.1.5,60.007548949615604,
-0.5,0,1,left,1,3,2,0,2,0,4,1,33,1,,,,,,,,,595.2906376000001,595.7902369000003,596.5071683999995,None,595.8069760999997,596.4904031999995,597.0072823999999,None,left,1,0.3681784999998854,597.0072823999999,None,None,595.8069760999997,596.9904500000002,0.5111768999995547,0.5944829000000027,1.7113781999996718,1.7947776000000886,,,,,,ashley_1,001,2020_Feb_12_1014,posner,3.1.5,60.007548949615604,
-0.5,180,0,left,2,3,2,0,2,0,4,2,34,4,,,,,,,,,597.3915182999999,597.8907834000001,598.6078810999998,None,597.9076365000001,598.5909592999997,599.1078330999999,None,left,1,0.4278647999999521,599.1078330999999,None,None,597.9076365000001,599.0911237,0.5110036999994918,0.5943951999997807,1.7113260999994964,1.7947804999994332,,,,,,ashley_1,001,2020_Feb_12_1014,posner,3.1.5,60.007548949615604,
0.5,180,1,right,2,4,2,0,2,0,4,3,35,6,,,,,,,,,599.5593188000003,600.0582132,600.7752511999997,None,600.0752273999997,600.7584256,601.2755822999998,None,right,1,0.3478757000002588,601.2755822999998,None,None,600.0752273999997,601.2585609999996,0.5106599000000642,0.594006299999819,1.7109954999996262,1.7942517999999836,,,,,,ashley_1,001,2020_Feb_12_1014,posner,3.1.5,60.007548949615604,
-0.5,0,1,left,1,3,2,0,2,0,4,4,36,2,,,,,,,,,601.6431745999998,602.1420927999998,602.8591239999996,None,602.1588112,602.8422843999997,603.3593153000002,None,left,1,0.3120696999994834,603.3593153000002,None,None,602.1588112,603.342412,0.510787000000164,0.5943705999998201,1.7110893999997643,1.7946062000000893,,,,,,ashley_1,001,2020_Feb_12_1014,posner,3.1.5,60.007548949615604,
-0.5,0,1,left,1,3,2,0,2,0,4,5,37,0,,,,,,,,,603.6932626999997,604.1927341999999,604.9097481999997,None,604.2095915,604.8929509,605.4099364000003,None,left,1,0.3735189999997601,605.4099364000003,None,None,604.2095915,605.3930228999998,0.5113249999994878,0.5949490000002697,1.711595099999613,1.7951655999995637,,,,,,ashley_1,001,2020_Feb_12_1014,posner,3.1.5,60.007548949615604,
0.5,180,1,right,2,4,2,0,2,0,4,6,38,7,,,,,,,,,605.8108505,606.3101384000001,607.0271211999998,None,606.3267951999997,607.0104530999997,607.5273319999997,None,right,1,0.32826120000027004,607.5273319999997,None,None,606.3267951999997,607.5106588999997,0.510975199999848,0.594136200000321,1.7114789999995992,1.7946412000001146,,,,,,ashley_1,001,2020_Feb_12_1014,posner,3.1.5,60.007548949615604,
0.5,0,0,right,1,4,2,0,2,0,4,7,39,3,,,,,,,,,607.8784679999999,608.3773641999996,609.0943003000002,None,608.3940541000002,609.0776415,609.5944822000001,None,right,1,0.45287889999963227,609.5944822000001,None,None,608.3940541000002,609.5778497000001,0.5105561000000307,0.5940823000000819,1.7110169000006863,1.7942627000002176,,,,,,ashley_1,001,2020_Feb_12_1014,posner,3.1.5,60.007548949615604,
0.5,0,0,right,1,4,2,0,2,0,5,0,40,3,,,,,,,,,610.0783757999998,610.5782093999997,611.2952742999996,None,610.5947347000001,611.2783948999995,611.7954209,610.0783757999998,right,1,0.45982739999999467,611.7954209,None,None,610.5947347000001,611.7785760999996,0.5112942000005205,0.5944786999998541,1.7116468000003806,1.7947965000003023,,,,,,ashley_1,001,2020_Feb_12_1014,posner,3.1.5,60.007548949615604,
-0.5,0,1,left,1,3,2,0,2,0,5,1,41,2,,,,,,,,,612.2796705999999,612.7788891,613.4957711999996,None,612.7955782999998,613.4792385999999,613.9958340000003,612.2796705999999,left,1,0.3556632999998328,613.9958340000003,None,None,612.7955782999998,613.9793247999996,0.5107794000005015,0.5938999999998487,1.7111912000000302,1.7943747999997868,,,,,,ashley_1,001,2020_Feb_12_1014,posner,3.1.5,60.007548949615604,
0.5,180,1,right,2,4,2,0,2,0,5,2,42,6,,,,,,,,,614.3801633000003,614.8795735000003,615.5962438999995,None,614.8962327999998,615.5798446999997,616.0964236,None,right,1,0.35102809999989404,616.0964236,None,None,614.8962327999998,616.0799877,0.5113264000001436,0.5944672000005085,1.7117292000002635,1.7949631999999838,,,,,,ashley_1,001,2020_Feb_12_1014,posner,3.1.5,60.007548949615604,
-0.5,180,0,left,2,3,2,0,2,0,5,3,43,4,,,,,,,,,616.4642406000003,616.9633818000002,617.6803848999998,None,616.9800554000003,617.6636488000004,618.1805590000004,None,left,1,0.3389134999997623,618.1805590000004,None,None,616.9800554000003,618.1637762,0.5111445000002277,0.5945741000005,1.7115215000003445,1.7948479000006046,,,,,,ashley_1,001,2020_Feb_12_1014,posner,3.1.5,60.007548949615604,
-0.5,0,1,left,1,3,2,0,2,0,5,4,44,1,,,,,,,,,618.5480552999998,619.0473295000002,619.7643452000002,None,619.0641176999998,619.7476576999998,620.2644064999995,None,left,1,0.4310226999996303,620.2644064999995,None,None,619.0641176999998,620.2477638,0.5110441000006176,0.594708200000241,1.7114542999997866,1.7949110999998084,,,,,,ashley_1,001,2020_Feb_12_1014,posner,3.1.5,60.007548949615604,
0.5,180,1,right,2,4,2,0,2,0,5,5,45,5,,,,,,,,,620.7158484000001,621.2147496999996,621.9314661999997,None,621.2312452999995,621.9149556000002,622.4316784000002,None,right,1,0.3436764000007315,622.4316784000002,None,None,621.2312452999995,622.4151322999996,0.5109779000003982,0.5945926000003965,1.7113485999998375,1.7947136000002502,,,,,,ashley_1,001,2020_Feb_12_1014,posner,3.1.5,60.007548949615604,
-0.5,0,1,left,1,3,2,0,2,0,5,6,46,0,,,,,,,,,622.7995953999998,623.2989601999998,624.0156393999996,None,623.3154840999996,623.9989822999996,624.5157200000003,None,left,1,0.33173100000021805,624.5157200000003,None,None,623.3154840999996,624.4992548,0.5113203999999314,0.5944029000002047,1.7115906999997605,1.7947531999998318,,,,,,ashley_1,001,2020_Feb_12_1014,posner,3.1.5,60.007548949615604,
0.5,180,1,right,2,4,2,0,2,0,5,7,47,7,,,,,,,,,624.8670475999998,625.3661392000004,626.0829259000002,None,625.3826123999997,626.0662310999996,626.5829385999996,None,right,1,0.328688499999771,626.5829385999996,None,None,625.3826123999997,626.5666042000003,0.5107362999997349,0.5939627999996446,1.7111855000002834,1.7943420999999944,,,,,,ashley_1,001,2020_Feb_12_1014,posner,3.1.5,60.007548949615604,
-0.5,180,0,left,2,3,2,0,2,0,6,0,48,4,,,,,,,,,626.9344680000004,627.4333285000002,628.1502221000001,None,627.4499637999998,628.1334618000001,628.6504193000001,None,left,1,0.3570454000000609,628.6504193000001,None,None,627.4499637999998,628.6335595999999,0.5107227000007697,0.5942327000002479,1.7109299000003375,1.7944497000007686,,,,,,ashley_1,001,2020_Feb_12_1014,posner,3.1.5,60.007548949615604,
0.5,180,1,right,2,4,2,0,2,0,6,1,49,7,,,,,,,,,629.0349034000001,629.5339146999995,630.2508773,None,629.5505631999995,630.2341833999999,630.7509719999998,None,right,1,0.33647910000036063,630.7509719999998,None,None,629.5505631999995,630.7343308,0.511113500000647,0.5945133000004716,1.7115233000004082,1.794937600000594,,,,,,ashley_1,001,2020_Feb_12_1014,posner,3.1.5,60.007548949615604,
-0.5,0,1,left,1,3,2,0,2,0,6,2,50,1,,,,,,,,,631.1184333000001,631.617913,632.3348036999996,None,631.6346235999999,632.3181947000003,632.8351802999996,None,left,1,0.33216859999993176,632.8351802999996,None,None,631.6346235999999,632.8182804999997,0.5109857000006741,0.5943650999997772,1.7113421000003655,1.7945556000004217,,,,,,ashley_1,001,2020_Feb_12_1014,posner,3.1.5,60.007548949615604,
0.5,180,1,right,2,4,2,0,2,0,6,3,51,6,,,,,,,,,633.1860006999996,633.6853356000001,634.4020509000002,None,633.7018504999996,634.385558,634.9022010999997,None,right,1,0.33714340000005905,634.9022010999997,None,None,633.7018504999996,634.8857079999998,0.5115298000000621,0.594978799999808,1.7118723000003229,1.7951182000006156,,,,,,ashley_1,001,2020_Feb_12_1014,posner,3.1.5,60.007548949615604,
-0.5,0,1,left,1,3,2,0,2,0,6,4,52,2,,,,,,,,,635.2695800000001,635.7692895999999,636.4862092000003,None,635.7861094999998,636.4695322999996,636.9863058999999,None,left,1,0.33315119999952003,636.9863058999999,None,None,635.7861094999998,636.9695992999996,0.5112170000002152,0.5944256000002497,1.7115148000002591,1.7947307000004002,,,,,,ashley_1,001,2020_Feb_12_1014,posner,3.1.5,60.007548949615604,
0.5,0,0,right,1,4,2,0,2,0,6,5,53,3,,,,,,,,,637.3368285999995,637.8364076999997,638.5533855000003,None,637.8531093000001,638.5367581,639.0535245000001,None,right,1,0.37794040000062523,639.0535245000001,None,None,637.8531093000001,639.0371048999996,0.5114130000001751,0.5948662999999215,1.7120821999997133,1.7951513999996678,,,,,,ashley_1,001,2020_Feb_12_1014,posner,3.1.5,60.007548949615604,
0.5,180,1,right,2,4,2,0,2,0,6,6,54,5,,,,,,,,,639.4552407000001,639.9539180000002,640.6707421000001,None,639.9706506000002,640.6539149999999,641.1708719999997,None,right,1,0.3726083000001381,641.1708719999997,None,None,639.9706506000002,641.1541375999996,0.5108622999996442,0.5941960000000108,1.7110731000002488,1.7945341000004191,,,,,,ashley_1,001,2020_Feb_12_1014,posner,3.1.5,60.007548949615604,
-0.5,0,1,left,1,3,2,0,2,0,6,7,55,0,,,,,,,,,641.5717850000001,642.0710431999996,642.7880573000002,None,642.0879374999995,642.7713169999997,643.2884082999999,None,left,1,0.23904770000081044,643.2884082999999,None,None,642.0879374999995,643.2714888,0.5108712999999625,0.5945769999998447,1.7112799000005907,1.7946081999998569,,,,,,ashley_1,001,2020_Feb_12_1014,posner,3.1.5,60.007548949615604,
-0.5,0,1,left,1,3,2,0,2,0,7,0,56,0,,,,,,,,,643.5560476,644.0551282999995,644.7719422,None,644.0718194000001,644.7553521999998,645.2720084000002,645.7557958999996,left,1,0.5913443000008556,645.2720084000002,None,None,644.0718194000001,645.2554196000001,0.510856099999728,0.5941466000003857,1.7111403999997492,1.7946492999999464,,,,,,ashley_1,001,2020_Feb_12_1014,posner,3.1.5,60.007548949615604,
-0.5,0,1,left,1,3,2,0,2,0,7,1,57,1,,,,,,,,,645.8898233999998,646.3891923000001,647.1060046000002,None,646.4059260000004,647.0894337,647.6061958999999,None,left,1,0.3851724000005561,647.6061958999999,None,None,646.4059260000004,647.5896176999995,0.5111919999999373,0.5945056000000477,1.7115966000001208,1.7947543999998743,,,,,,ashley_1,001,2020_Feb_12_1014,posner,3.1.5,60.007548949615604,
-0.5,180,0,left,2,3,2,0,2,0,7,2,58,4,,,,,,,,,648.0071726999995,648.5064160000002,649.2232076,None,648.523279,649.2070679999997,649.7236315,None,left,1,0.3557864000003974,649.7236315,None,None,648.523279,649.7068900000004,0.5109478999993371,0.5944634999996197,1.71139519999997,1.7947675999994317,,,,,,ashley_1,001,2020_Feb_12_1014,posner,3.1.5,60.007548949615604,
0.5,0,0,right,1,4,2,0,2,0,7,3,59,3,,,,,,,,,650.1081811000004,650.6072420999999,651.3239415999997,None,650.6237411000002,651.3073103999996,651.8241552,None,right,1,0.375190400000065,651.8241552,None,None,650.6237411000002,651.8075976,0.5107499000005191,0.5940243000004557,1.7110959000001458,1.7942769999999655,,,,,,ashley_1,001,2020_Feb_12_1014,posner,3.1.5,60.007548949615604,
-0.5,0,1,left,1,3,2,0,2,0,7,4,60,2,,,,,,,,,652.2255833999998,652.7246067999995,653.4413831000002,None,652.7412392999995,653.4247061999995,653.9414639999995,None,left,1,0.3539022000004479,653.9414639999995,None,None,652.7412392999995,653.9247579000003,0.5111094000003504,0.5943513000001985,1.7112338000006275,1.7946030000002793,,,,,,ashley_1,001,2020_Feb_12_1014,posner,3.1.5,60.007548949615604,
0.5,180,1,right,2,4,2,0,2,0,7,5,61,6,,,,,,,,,654.3257932999995,654.8253171999995,655.5421004999998,None,654.8417137999995,655.5256380000001,656.0420787000003,None,right,1,0.38124659999994037,656.0420787000003,None,None,654.8417137999995,656.0256318000002,0.5110976999994818,0.5942336999996769,1.7113973999994414,1.7946990999998889,,,,,,ashley_1,001,2020_Feb_12_1014,posner,3.1.5,60.007548949615604,
0.5,180,1,right,2,4,2,0,2,0,7,6,62,5,,,,,,,,,656.4423238999998,656.9424915,657.6593880999999,None,656.9592433999997,657.6426038,658.1595483000001,None,right,1,0.4238202000005913,658.1595483000001,None,None,656.9592433999997,658.1429663999998,0.5118648999996367,0.5951862000001711,1.7123248999996576,1.7955701999999292,,,,,,ashley_1,001,2020_Feb_12_1014,posner,3.1.5,60.007548949615604,
0.5,180,1,right,2,4,2,0,2,0,7,7,63,7,,,,,,,,,658.6103035999995,659.1098417000003,659.8267518000002,None,659.1265061000004,659.8100437000003,660.3268195,None,right,1,0.40053749999970023,660.3268195,None,None,659.1265061000004,660.3103932000004,0.5111952000006568,0.5945031000001109,1.7117354000001797,1.7947395999999571,,,,,,ashley_1,001,2020_Feb_12_1014,posner,3.1.5,60.007548949615604,
-0.5,180,0,left,2,3,2,0,2,0,8,0,64,4,,,,,,,,,660.7448240000003,661.2438283000001,661.9606541000003,None,661.2607170000001,661.9439440999995,662.4608741000002,None,left,1,0.41842630000064673,662.4608741000002,None,None,661.2607170000001,662.4441686999999,0.511015099999895,0.5942262999997183,1.7113258999997925,1.7947871999995186,,,,,,ashley_1,001,2020_Feb_12_1014,posner,3.1.5,60.007548949615604,
0.5,180,1,right,2,4,2,0,2,0,8,1,65,6,,,,,,,,,662.9113029999999,663.4111751999999,664.1280100000004,None,663.4279843000004,664.1113084999997,664.6282336000004,None,right,1,0.33912559999953373,664.6282336000004,None,None,663.4279843000004,664.6115228999997,0.5115990999993301,0.5949207999992723,1.7119297999997798,1.7952681999995548,,,,,,ashley_1,001,2020_Feb_12_1014,posner,3.1.5,60.007548949615604,
-0.5,0,1,left,1,3,2,0,2,0,8,2,66,1,,,,,,,,,664.9959945999999,665.4950956000002,666.2119993999995,None,665.5116122,666.1952959,666.7119843999999,None,left,1,0.367507600000863,666.7119843999999,None,None,665.5116122,666.6956172999999,0.5109471000005215,0.5944226999999955,1.711452399999871,1.7946600000004764,,,,,,ashley_1,001,2020_Feb_12_1014,posner,3.1.5,60.007548949615604,
-0.5,0,1,left,1,3,2,0,2,0,8,3,67,2,,,,,,,,,667.0966966999995,667.5958517999998,668.3125602999999,None,667.6124684999995,668.2962286000002,668.8127175999998,None,left,1,0.4506018000001859,668.8127175999998,None,None,667.6124684999995,668.7962828999998,0.5110352000001512,0.5943833999999697,1.7114564000003156,1.7947629999998753,,,,,,ashley_1,001,2020_Feb_12_1014,posner,3.1.5,60.007548949615604,
0.5,0,0,right,1,4,2,0,2,0,8,4,68,3,,,,,,,,,669.2804177999997,669.7798359999997,670.4967262,None,669.7967009000004,670.4798537999995,670.9968497999998,None,right,1,0.41829450000022916,670.9968497999998,None,None,669.7967009000004,670.9801089000002,0.5111900000001697,0.5943622000004325,1.711445900000399,1.7947032000001855,,,,,,ashley_1,001,2020_Feb_12_1014,posner,3.1.5,60.007548949615604,
0.5,180,1,right,2,4,2,0,2,0,8,5,69,7,,,,,,,,,671.4308002999996,671.9304726999999,672.6480363000001,None,671.9471334999998,672.6305192,673.1475178999999,None,right,1,0.3956743999997343,673.1475178999999,None,None,671.9471334999998,673.1308114000003,0.5115560000003825,0.594722400000137,1.7118530999996437,1.7954617000004873,,,,,,ashley_1,001,2020_Feb_12_1014,posner,3.1.5,60.007548949615604,
-0.5,0,1,left,1,3,2,0,2,0,8,6,70,0,,,,,,,,,673.5658157999997,674.0646078,674.7812432999999,None,674.0810609999999,674.7648423999999,675.2813319999996,None,left,1,0.4060787000007622,675.2813319999996,None,None,674.0810609999999,675.2647698000001,0.5108527000002141,0.5941530000000057,1.7109974000004513,1.7944032000004881,,,,,,ashley_1,001,2020_Feb_12_1014,posner,3.1.5,60.007548949615604,
0.5,180,1,right,2,4,2,0,2,0,8,7,71,5,,,,,,,,,675.7159678999997,676.2153257999998,676.9319157999998,None,676.2316338999999,676.9154447999999,677.4321287000002,677.9157321000002,right,1,0.5831725999996706,677.4321287000002,None,None,676.2316338999999,677.4154504999997,0.5111398999997618,0.5946165000004839,1.711258700000144,1.7946944000004805,,,,,,ashley_1,001,2020_Feb_12_1014,posner,3.1.5,60.007548949615604,
-0.5,0,1,left,1,3,2,0,2,0,9,0,72,1,,,,,,,,,678.0335113000001,678.5323927,679.2494386999997,None,678.5492935000002,679.2325589000002,679.7496008999997,None,left,1,0.3135675000003175,679.7496008999997,None,None,678.5492935000002,679.7326831999999,0.5108399999999165,0.5943003000002136,1.7111108999997668,1.7946982000003118,,,,,,ashley_1,001,2020_Feb_12_1014,posner,3.1.5,60.007548949615604,
