targetX,cueOri,congr,corrAns,pin_cue,pin_target,block.thisRepN,block.thisTrialN,block.thisN,block.thisIndex,posner_task.thisRepN,posner_task.thisTrialN,posner_task.thisN,posner_task.thisIndex,port_start_block.started,port_start_block.stopped,text_2.started,text_2.stopped,p_port.started,p_port.stopped,text.started,text.stopped,fixation_1.started,fixation_1.stopped,fixation_2.started,fixation_2.stopped,cue.started,cue.stopped,target.started,target.stopped,correct_key_resp.keys,correct_key_resp.corr,correct_key_resp.rt,correct_key_resp.started,correct_key_resp.stopped,early_resp.keys,early_resp.started,early_resp.stopped,trigger_cue.started,trigger_cue.stopped,trigger_target.started,trigger_target.stopped,break_text.started,break_text.stopped,end_port.started,end_port.stopped,participant,session,date,expName,psychopyVersion,frameRate,
-0.5,0,1,left,1,3,0,0,0,0,0,0,0,2,1.7700000171316788e-05,0.1030587000000196,13.515542099999948,None,1.3800000033370452e-05,0.09949750000032509,15.401149700000133,None,15.732840900000156,16.23603099999991,16.95330240000021,None,16.252251100000194,16.9368757000002,17.453957400000036,None,left,1,0.3219752999998491,17.453957400000036,None,None,16.252251100000194,17.437747299999955,0.5126669999999649,0.5958172999999078,1.7143687999996473,1.7975063999997474,,,,,nikita_1,001,2020_Feb_13_1306,posner,3.1.5,59.94025155722416,
0.5,180,1,right,2,4,0,0,0,0,0,1,1,5,,,,,,,,,17.805291000000125,18.30531770000016,19.02286570000024,None,18.321805699999913,19.006396300000233,19.52351520000002,None,right,1,0.31649479999987307,19.52351520000002,None,None,18.321805699999913,19.506787799999984,0.5107003000002805,0.5941775000001144,1.7121577000002617,1.7957885000000715,,,,,nikita_1,001,2020_Feb_13_1306,posner,3.1.5,59.94025155722416,
-0.5,180,0,left,2,3,0,0,0,0,0,2,2,4,,,,,,,,,19.85809330000029,20.358216000000084,21.0756894000001,None,20.374738700000307,21.059065100000225,21.57647730000008,None,left,1,0.3114599000000453,21.57647730000008,None,None,20.374738700000307,21.55987210000012,0.5116793000001962,0.5949980000000323,1.7133195000001251,1.796569399999953,,,,,nikita_1,001,2020_Feb_13_1306,posner,3.1.5,59.94025155722416,
0.5,0,0,right,1,4,0,0,0,0,0,3,3,3,,,,,,,,,21.911023900000146,22.41093490000003,23.128608100000292,None,22.42753470000025,23.111773399999947,23.629348400000254,None,right,1,0.29862649999995483,23.629348400000254,None,None,22.42753470000025,23.61240050000015,0.5116145000001779,0.5948312000000442,1.713070499999958,1.7968771999999262,,,,,nikita_1,001,2020_Feb_13_1306,posner,3.1.5,59.94025155722416,
-0.5,0,1,left,1,3,0,0,0,0,0,4,4,1,,,,,,,,,23.947626800000307,24.44729240000015,25.164617100000214,None,24.463589200000115,25.14809030000015,25.66564180000023,None,left,1,0.2785188000002563,25.66564180000023,None,None,24.463589200000115,25.648769599999923,0.5117479999998977,0.5948844999998073,1.713211599999795,1.796395500000017,,,,,nikita_1,001,2020_Feb_13_1306,posner,3.1.5,59.94025155722416,
-0.5,0,1,left,1,3,0,0,0,0,0,5,5,0,,,,,,,,,25.96738600000026,26.466789500000232,27.184195400000135,None,26.48311220000005,27.16746860000012,27.684902800000145,None,left,1,0.3150658999998086,27.684902800000145,None,None,26.48311220000005,27.66820890000008,0.5114612000002126,0.5945366999999351,1.7128496000000268,1.7962273000002824,,,,,nikita_1,001,2020_Feb_13_1306,posner,3.1.5,59.94025155722416,
0.5,180,1,right,2,4,0,0,0,0,0,6,6,7,,,,,,,,,28.01937850000013,28.51945079999996,29.23695970000017,None,28.535921700000017,29.220049400000335,29.737655800000084,None,right,1,0.3022377000002052,29.737655800000084,None,None,28.535921700000017,29.721036899999945,0.5118361999998342,0.5951138000000356,1.7134064000001672,1.796784900000148,,,,,nikita_1,001,2020_Feb_13_1306,posner,3.1.5,59.94025155722416,
0.5,180,1,right,2,4,0,0,0,0,0,7,7,6,,,,,,,,,30.0557960000001,30.55544080000027,31.272938200000226,None,30.572044500000175,31.25647710000021,31.773714400000244,None,right,1,0.2902014999999665,31.773714400000244,None,None,30.572044500000175,31.75707050000028,0.511507299999721,0.5951347999998688,1.713125399999626,1.796639099999993,,,,,nikita_1,001,2020_Feb_13_1306,posner,3.1.5,59.94025155722416,
-0.5,0,1,left,1,3,0,0,0,0,1,0,8,0,,,,,,,,,32.09150129999989,32.591362200000276,33.309359100000165,None,32.6083636000003,33.29237899999998,33.80997750000006,None,left,1,0.3098866000000271,33.80997750000006,None,None,32.6083636000003,33.7931908999999,0.5116188000001785,0.5953238000001875,1.713428400000339,1.796921999999995,,,,,nikita_1,001,2020_Feb_13_1306,posner,3.1.5,59.94025155722416,
0.5,0,0,right,1,4,0,0,0,0,1,1,9,3,,,,,,,,,34.14454560000013,34.644311000000016,35.361949600000116,None,34.66092280000021,35.345473500000026,35.86271230000011,None,right,1,0.27333260000023074,35.86271230000011,None,None,34.66092280000021,35.84617320000007,0.5115512999996099,0.5951319999999214,1.7133937999997215,1.7967828999999256,,,,,nikita_1,001,2020_Feb_13_1306,posner,3.1.5,59.94025155722416,
0.5,180,1,right,2,4,0,0,0,0,1,2,10,7,,,,,,,,,36.16404800000009,36.66400090000025,37.38123570000016,None,36.68046600000025,37.36488129999998,37.88213560000031,None,right,1,0.30172140000013314,37.88213560000031,None,None,36.68046600000025,37.86550380000017,0.5117087999997239,0.5946525999997903,1.7131976000000577,1.7966028000000733,,,,,nikita_1,001,2020_Feb_13_1306,posner,3.1.5,59.94025155722416,
0.5,180,1,right,2,4,0,0,0,0,1,3,11,5,,,,,,,,,38.2001193000001,38.70020670000031,39.41766710000002,None,38.716707900000074,39.40081740000005,39.918456400000196,None,right,1,0.32934449999993376,39.918456400000196,None,None,38.716707900000074,39.90166360000012,0.5118606999999429,0.5949297999995906,1.7133049999997638,1.796670599999743,,,,,nikita_1,001,2020_Feb_13_1306,posner,3.1.5,59.94025155722416,
-0.5,180,0,left,2,3,0,0,0,0,1,4,12,4,,,,,,,,,40.26949670000022,40.769452,41.48702660000026,None,40.78620020000017,41.470890000000054,41.98770830000012,None,left,1,0.27613990000008926,41.98770830000012,None,None,40.78620020000017,41.9713913999999,0.5114678999998432,0.5947975999997652,1.7133861999996043,1.7966372999999294,,,,,nikita_1,001,2020_Feb_13_1306,posner,3.1.5,59.94025155722416,
-0.5,0,1,left,1,3,0,0,0,0,1,5,13,2,,,,,,,,,42.28886319999992,42.78891659999999,43.50661340000033,None,42.8056902000003,43.489745200000016,44.00723800000014,None,left,1,0.3525996000003033,44.00723800000014,None,None,42.8056902000003,43.990554599999996,0.5117093000003479,0.5951019000003726,1.7133150000004207,1.796918900000037,,,,,nikita_1,001,2020_Feb_13_1306,posner,3.1.5,59.94025155722416,
-0.5,0,1,left,1,3,0,0,0,0,1,6,14,1,,,,,,,,,44.391221000000314,44.89181159999998,45.60951900000009,None,44.908502000000226,45.592796400000225,46.11026720000018,None,left,1,0.3216141000002608,46.11026720000018,None,None,44.908502000000226,46.09350600000016,0.5122045999996772,0.59554449999996,1.713884699999653,1.7974229999999807,,,,,nikita_1,001,2020_Feb_13_1306,posner,3.1.5,59.94025155722416,
0.5,180,1,right,2,4,0,0,0,0,1,7,15,6,,,,,,,,,46.46146339999996,46.96103889999995,47.67907439999999,None,46.978093100000024,47.6621626000001,48.17958950000002,None,right,1,0.24417780000021594,48.17958950000002,None,None,46.978093100000024,48.16287490000013,0.5113198000003649,0.5952767000003405,1.7131419000002097,1.7968237000000045,,,,,nikita_1,001,2020_Feb_13_1306,posner,3.1.5,59.94025155722416,
0.5,180,1,right,2,4,0,0,0,0,2,0,16,6,,,,,,,,,48.44767589999992,48.94740610000008,49.664992299999994,None,48.96410370000012,49.64836420000029,50.165818299999955,None,right,1,0.3699653999997281,50.165818299999955,None,None,48.96410370000012,50.14913710000019,0.5115270000001146,0.5948432999998658,1.7132440000000315,1.79646670000011,,,,,nikita_1,001,2020_Feb_13_1306,posner,3.1.5,59.94025155722416,
0.5,180,1,right,2,4,0,0,0,0,2,1,17,5,,,,,,,,,50.566937399999915,51.067022799999904,51.7845497000003,None,51.083561100000225,51.76778779999995,52.28537460000007,None,right,1,0.29044900000008056,52.28537460000007,None,None,51.083561100000225,52.26870409999992,0.511354300000221,0.5946714000001521,1.7130173000000468,1.7962188999999853,,,,,nikita_1,001,2020_Feb_13_1306,posner,3.1.5,59.94025155722416,
-0.5,0,1,left,1,3,0,0,0,0,2,2,18,0,,,,,,,,,52.60304440000027,53.103089199999886,53.820737700000336,None,53.11988100000008,53.80397300000004,54.32138930000019,None,left,1,0.2784087999998519,54.32138930000019,None,None,53.11988100000008,54.30492050000021,0.5115903999999318,0.595072699999946,1.7134001999997963,1.7967404999999417,,,,,nikita_1,001,2020_Feb_13_1306,posner,3.1.5,59.94025155722416,
0.5,180,1,right,2,4,0,0,0,0,2,3,19,7,,,,,,,,,54.62392820000014,55.12252519999993,55.84031890000006,None,55.1391136000002,55.82359690000021,56.34091350000017,None,right,1,0.25079760000016904,56.34091350000017,None,None,55.1391136000002,56.32429769999999,0.5106432000002314,0.5940823000000819,1.7124063999999635,1.7957096999998612,,,,,nikita_1,001,2020_Feb_13_1306,posner,3.1.5,59.94025155722416,
0.5,0,0,right,1,4,0,0,0,0,2,4,20,3,,,,,,,,,56.608526299999994,57.1087250999999,57.82631429999992,None,57.12530820000029,57.80946380000023,58.32692850000012,None,right,1,0.3128116000002592,58.32692850000012,None,None,57.12530820000029,58.31035180000026,0.5116339000001062,0.5947201000003588,1.71324500000037,1.796523800000159,,,,,nikita_1,001,2020_Feb_13_1306,posner,3.1.5,59.94025155722416,
-0.5,0,1,left,1,3,0,0,0,0,2,5,21,1,,,,,,,,,58.66145030000007,59.161319000000276,59.87914660000024,None,59.17819980000013,59.86224560000028,60.37966600000027,None,left,1,0.3321375000000444,60.37966600000027,None,None,59.17819980000013,60.36297760000025,0.5115740000001097,0.5952416999998604,1.7132132000001548,1.7968073000001823,,,,,nikita_1,001,2020_Feb_13_1306,posner,3.1.5,59.94025155722416,
-0.5,0,1,left,1,3,0,0,0,0,2,6,22,2,,,,,,,,,60.730661300000065,61.2310250999999,61.9487366000003,None,61.24759620000032,61.931845200000225,62.44954800000005,None,left,1,0.3021942999998828,62.44954800000005,None,None,61.24759620000032,62.43253380000033,0.5117640000003121,0.5951092000000244,1.7132602000001498,1.7968426000002182,,,,,nikita_1,001,2020_Feb_13_1306,posner,3.1.5,59.94025155722416,
-0.5,180,0,left,2,3,0,0,0,0,2,7,23,4,,,,,,,,,62.7671177000002,63.267057900000054,63.98487030000024,None,63.28362109999989,63.96855480000022,64.48559860000023,None,left,1,0.3380815000000439,64.48559860000023,None,None,63.28362109999989,64.4689784000002,0.5114731000003303,0.595053800000187,1.7133822000000691,1.7965260999999373,,,,,nikita_1,001,2020_Feb_13_1306,posner,3.1.5,59.94025155722416,
0.5,0,0,right,1,4,0,0,0,0,3,0,24,3,,,,,,,,,64.8530909000001,65.35322580000002,66.07090120000021,None,65.36984530000018,66.05439650000017,66.57152900000028,None,right,1,0.2601745000001756,66.57152900000028,None,None,65.36984530000018,66.55493770000021,0.5115466000002016,0.595127500000217,1.713238000000274,1.7965583000000152,,,,,nikita_1,001,2020_Feb_13_1306,posner,3.1.5,59.94025155722416,
-0.5,0,1,left,1,3,0,0,0,0,3,1,25,2,,,,,,,,,66.85608090000005,67.35600870000007,68.07362680000006,None,67.37258139999994,68.05717260000029,68.57435080000005,None,left,1,0.24938680000013846,68.57435080000005,None,None,67.37258139999994,68.55775670000003,0.5115359999999782,0.595186300000023,1.7132615999998961,1.7965031000003364,,,,,nikita_1,001,2020_Feb_13_1306,posner,3.1.5,59.94025155722416,
0.5,180,1,right,2,4,0,0,0,0,3,2,26,6,,,,,,,,,68.84217889999991,69.34218150000015,70.05974980000019,None,69.3588506000001,70.0429709,70.56047800000033,None,right,1,0.29545150000012654,70.56047800000033,None,None,69.3588506000001,70.54364340000029,0.5115679999998974,0.5948325999997905,1.7130113999996865,1.7964271000000736,,,,,nikita_1,001,2020_Feb_13_1306,posner,3.1.5,59.94025155722416,
-0.5,0,1,left,1,3,0,0,0,0,3,3,27,0,,,,,,,,,70.87829490000013,71.37802170000032,72.09600159999991,None,71.39493240000002,72.07928489999995,72.59672900000032,None,left,1,0.2589488000003257,72.59672900000032,None,None,71.39493240000002,72.58003589999998,0.5113256999998157,0.5949695999997857,1.713316500000019,1.7967094000000543,,,,,nikita_1,001,2020_Feb_13_1306,posner,3.1.5,59.94025155722416,
0.5,180,1,right,2,4,0,0,0,0,3,4,28,5,,,,,,,,,72.88097330000028,73.38081069999998,74.09858949999989,None,73.39762430000019,74.08183670000017,74.59927090000019,None,right,1,0.24061739999979181,74.59927090000019,None,None,73.39762430000019,74.58251160000009,0.5115120000000388,0.5951369999997951,1.7131949999998142,1.796922199999699,,,,,nikita_1,001,2020_Feb_13_1306,posner,3.1.5,59.94025155722416,
-0.5,180,0,left,2,3,0,0,0,0,3,5,29,4,,,,,,,,,74.86714810000012,75.3669347,76.08463340000026,None,75.38365730000032,76.06795800000009,76.58542429999989,None,left,1,0.2542429000000084,76.58542429999989,None,None,75.38365730000032,76.56880520000004,0.5114335999996911,0.5950275999998667,1.7132821999998669,1.7966428999998243,,,,,nikita_1,001,2020_Feb_13_1306,posner,3.1.5,59.94025155722416,
-0.5,0,1,left,1,3,0,0,0,0,3,6,30,1,,,,,,,,,76.86959240000033,77.36982790000002,78.08757749999995,None,77.38642350000009,78.07059170000002,78.58812830000034,None,left,1,0.2836405999996714,78.58812830000034,None,None,77.38642350000009,78.57134160000032,0.5115982000002077,0.5948863000003257,1.7130960000004052,1.7966714000003776,,,,,nikita_1,001,2020_Feb_13_1306,posner,3.1.5,59.94025155722416,
0.5,180,1,right,2,4,0,0,0,0,3,7,31,7,,,,,,,,,78.88942610000004,79.38914990000012,80.10691590000033,None,79.40585839999994,80.09030260000009,80.60753950000026,None,right,1,0.24816710000004605,80.60753950000026,None,None,79.40585839999994,80.59081460000016,0.5114846999999827,0.5950735999999779,1.7131280999997216,1.7965636999997514,,,,,nikita_1,001,2020_Feb_13_1306,posner,3.1.5,59.94025155722416,
-0.5,0,1,left,1,3,0,0,0,0,4,0,32,2,,,,,,,,,80.87520390000009,81.37531020000006,82.09291840000014,None,81.39188409999997,82.07636679999996,82.5935359,None,left,1,0.2380737999997109,82.5935359,None,None,81.39188409999997,82.57687890000034,0.511774399999922,0.5952572000001055,1.7133201000001463,1.7968982000002143,,,,,nikita_1,001,2020_Feb_13_1306,posner,3.1.5,59.94025155722416,
-0.5,180,0,left,2,3,0,0,0,0,4,1,33,4,,,,,,,,,82.8608575000003,83.36126100000001,84.07902719999993,None,83.37789680000014,84.0621699000003,84.57975880000004,None,left,1,0.3160192999998799,84.57975880000004,None,None,83.37789680000014,84.56304080000018,0.5118255999996109,0.5952385999999024,1.713585299999977,1.7971544999995785,,,,,nikita_1,001,2020_Feb_13_1306,posner,3.1.5,59.94025155722416,
0.5,180,1,right,2,4,0,0,0,0,4,2,34,7,,,,,,,,,84.91472770000018,85.41402270000026,86.13163290000011,None,85.4308460000002,86.11527060000026,86.63242290000017,None,right,1,0.31119630000011966,86.63242290000017,None,None,85.4308460000002,86.61586140000009,0.511217900000247,0.5947254000002431,1.7130161000000044,1.796657100000175,,,,,nikita_1,001,2020_Feb_13_1306,posner,3.1.5,59.94025155722416,
0.5,180,1,right,2,4,0,0,0,0,4,3,35,5,,,,,,,,,86.96747950000008,87.46736469999996,88.18469510000023,None,87.48355880000008,88.16797670000005,88.68527799999993,None,right,1,0.24235779999980878,88.68527799999993,None,None,87.48355880000008,88.6686708000002,0.5117637000003015,0.5950080000002345,1.7130550000001676,1.7962983000002168,,,,,nikita_1,001,2020_Feb_13_1306,posner,3.1.5,59.94025155722416,
-0.5,0,1,left,1,3,0,0,0,0,4,4,36,1,,,,,,,,,88.9529834,89.45300189999989,90.17083020000018,None,89.4700726000001,90.15395340000032,90.67130990000032,None,left,1,0.2564508000000387,90.67130990000032,None,None,89.4700726000001,90.65478979999989,0.5117666999999528,0.5953051000001324,1.7135324000000764,1.7966565000001538,,,,,nikita_1,001,2020_Feb_13_1306,posner,3.1.5,59.94025155722416,
0.5,180,1,right,2,4,0,0,0,0,4,5,37,6,,,,,,,,,90.95530529999996,91.45594690000007,92.1733919000003,None,91.47257260000015,92.15677589999996,92.67407980000007,None,right,1,0.26949500000000626,92.67407980000007,None,None,91.47257260000015,92.65746740000031,0.512362899999971,0.595767799999976,1.7138683000002857,1.7971621000001505,,,,,nikita_1,001,2020_Feb_13_1306,posner,3.1.5,59.94025155722416,
0.5,0,0,right,1,4,0,0,0,0,4,6,38,3,,,,,,,,,92.97525330000008,93.47514769999998,94.19277180000017,None,93.49185080000007,94.1766760999999,94.69356259999995,None,right,1,0.31410260000029666,94.69356259999995,None,None,93.49185080000007,94.67705370000022,0.511685800000123,0.5953340999999455,1.7135704000002079,1.7968547999998918,,,,,nikita_1,001,2020_Feb_13_1306,posner,3.1.5,59.94025155722416,
-0.5,0,1,left,1,3,0,0,0,0,4,7,39,0,,,,,,,,,95.0282717,95.5283414999999,96.24587380000003,None,95.54482680000001,96.22910559999991,96.74649610000006,None,left,1,0.22093580000000657,96.74649610000006,None,None,95.54482680000001,96.72974270000032,0.5118275999998332,0.5948806999999761,1.7132108999999218,1.796586699999807,,,,,nikita_1,001,2020_Feb_13_1306,posner,3.1.5,59.94025155722416,
0.5,180,1,right,2,4,0,0,0,0,5,0,40,6,,,,,,,,,96.99691549999989,97.49736530000018,98.21501699999999,None,97.51422720000028,98.19847400000026,98.71580750000021,None,right,1,0.25182059999997364,98.71580750000021,None,None,97.51422720000028,98.69919000000027,0.5122169000001122,0.5956393999999818,1.71402020000005,1.7972626999999193,,,,,nikita_1,001,2020_Feb_13_1306,posner,3.1.5,59.94025155722416,
0.5,180,1,right,2,4,0,0,0,0,5,1,41,7,,,,,,,,,98.98368560000017,99.48352780000005,100.20103689999996,None,99.50028440000006,100.18471600000021,100.70172400000001,None,right,1,0.31386609999981374,100.70172400000001,None,None,99.50028440000006,100.6852085999999,0.5114134000000377,0.5948781000001873,1.7130637000000206,1.7965933000000405,,,,,nikita_1,001,2020_Feb_13_1306,posner,3.1.5,59.94025155722416,
-0.5,0,1,left,1,3,0,0,0,0,5,2,42,1,,,,,,,,,101.0365224000002,101.5364085000001,102.25402639999993,None,101.5529277999999,102.23716719999993,102.75464330000023,None,left,1,0.3330151999998634,102.75464330000023,None,None,101.5529277999999,102.73799020000024,0.5115027000001646,0.5949455000004491,1.7130723000000216,1.7964887000002818,,,,,nikita_1,001,2020_Feb_13_1306,posner,3.1.5,59.94025155722416,
-0.5,0,1,left,1,3,0,0,0,0,5,3,43,0,,,,,,,,,103.10619750000023,103.60591590000013,104.32344160000002,None,103.62258229999998,104.30677700000024,104.82423860000017,None,left,1,0.30333089999976437,104.82423860000017,None,None,103.62258229999998,104.80766990000029,0.5114548999999897,0.5950106000000233,1.7131859000000986,1.796338200000264,,,,,nikita_1,001,2020_Feb_13_1306,posner,3.1.5,59.94025155722416,
-0.5,0,1,left,1,3,0,0,0,0,5,4,44,2,,,,,,,,,105.15833920000023,105.65881590000026,106.37661720000006,None,105.67539320000014,106.35960840000007,106.87713220000023,None,left,1,0.2905764000001909,106.87713220000023,None,None,105.67539320000014,106.86015330000009,0.5119303999999829,0.5950975000000653,1.7132560999998532,1.796809100000246,,,,,nikita_1,001,2020_Feb_13_1306,posner,3.1.5,59.94025155722416,
0.5,0,0,right,1,4,0,0,0,0,5,5,45,3,,,,,,,,,107.19489789999989,107.69501310000032,108.41234710000026,None,107.7114402000002,108.39590540000017,108.91303939999989,None,right,1,0.2624967000001561,108.91303939999989,None,None,107.7114402000002,108.89648720000014,0.5119186000001719,0.5953174000001127,1.7133767000000262,1.796641300000374,,,,,nikita_1,001,2020_Feb_13_1306,posner,3.1.5,59.94025155722416,
-0.5,180,0,left,2,3,0,0,0,0,5,6,46,4,,,,,,,,,109.19742380000025,109.69760560000032,110.41533830000026,None,109.71429390000003,110.39882360000001,110.91591980000021,None,left,1,0.2595919000000322,110.91591980000021,None,None,109.71429390000003,110.8994689000001,0.5120320999999421,0.5952867999999398,1.7138795000000755,1.7971550000002026,,,,,nikita_1,001,2020_Feb_13_1306,posner,3.1.5,59.94025155722416,
0.5,180,1,right,2,4,0,0,0,0,5,7,47,5,,,,,,,,,111.2004022000001,111.70032790000005,112.41786499999989,None,111.71718540000029,112.4012259000001,112.91879180000024,None,right,1,0.24880800000028103,112.91879180000024,None,None,111.71718540000029,112.90192789999992,0.5115584000000126,0.5949709000001349,1.713128500000039,1.7967859000000317,,,,,nikita_1,001,2020_Feb_13_1306,posner,3.1.5,59.94025155722416,
-0.5,0,1,left,1,3,0,0,0,0,6,0,48,2,,,,,,,,,113.18667630000027,113.6864427999999,114.40397400000029,None,113.70308750000004,114.38738520000015,114.90466809999998,None,left,1,0.27082119999977294,114.90466809999998,None,None,113.70308750000004,114.88821540000026,0.5114172000003236,0.5947390999999698,1.7131724999999278,1.7966166999999587,,,,,nikita_1,001,2020_Feb_13_1306,posner,3.1.5,59.94025155722416,
-0.5,180,0,left,2,3,0,0,0,0,6,1,49,4,,,,,,,,,115.20561170000019,115.7058477999999,116.42347820000032,None,115.72230770000033,116.40666600000031,116.9242319,None,left,1,0.323316099999829,116.9242319,None,None,115.72230770000033,116.90767450000021,0.5116077000002406,0.5950434000001223,1.7134184999999889,1.7964987000000292,,,,,nikita_1,001,2020_Feb_13_1306,posner,3.1.5,59.94025155722416,
0.5,180,1,right,2,4,0,0,0,0,6,2,50,5,,,,,,,,,117.27583230000027,117.77530410000008,118.49290810000002,None,117.79171330000008,118.47634920000019,118.99382220000007,None,right,1,0.2618695999999545,118.99382220000007,None,None,117.79171330000008,118.9769080000001,0.5111257999997179,0.594397299999855,1.7127166999998735,1.7962890999997398,,,,,nikita_1,001,2020_Feb_13_1306,posner,3.1.5,59.94025155722416,
0.5,180,1,right,2,4,0,0,0,0,6,3,51,6,,,,,,,,,119.27827770000022,119.77816540000003,120.49576490000027,None,119.7946780000002,120.47923680000031,120.99652749999996,None,right,1,0.2829884999996466,120.99652749999996,None,None,119.7946780000002,120.97976530000005,0.5115968999998586,0.5948713000002499,1.7131742000001395,1.7964793999999529,,,,,nikita_1,001,2020_Feb_13_1306,posner,3.1.5,59.94025155722416,
-0.5,0,1,left,1,3,0,0,0,0,6,4,52,1,,,,,,,,,121.29754150000008,121.7975222,122.5152051,None,121.81442610000022,122.49862699999994,123.01592840000012,None,left,1,0.23958270000002813,123.01592840000012,None,None,121.81442610000022,122.99927000000025,0.5113225000000057,0.594586100000015,1.713057899999967,1.7963110999999117,,,,,nikita_1,001,2020_Feb_13_1306,posner,3.1.5,59.94025155722416,
-0.5,0,1,left,1,3,0,0,0,0,6,5,53,0,,,,,,,,,123.28382760000022,123.78347050000002,124.50111050000032,None,123.8003819999999,124.48460580000028,125.00185360000023,None,left,1,0.2935592999997425,125.00185360000023,None,None,123.8003819999999,124.98529090000011,0.5113532000000305,0.594879199999923,1.7131545000002006,1.796632000000045,,,,,nikita_1,001,2020_Feb_13_1306,posner,3.1.5,59.94025155722416,
0.5,180,1,right,2,4,0,0,0,0,6,6,54,7,,,,,,,,,125.31964050000033,125.81970170000022,126.5372296999999,None,125.83659370000032,126.52060680000022,127.0380140000002,None,right,1,0.4413774000004196,127.0380140000002,None,None,125.83659370000032,127.02139660000012,0.5116726000001108,0.5951334999999744,1.7133554000001823,1.7969009000003098,,,,,nikita_1,001,2020_Feb_13_1306,posner,3.1.5,59.94025155722416,
0.5,0,0,right,1,4,0,0,0,0,6,7,55,3,,,,,,,,,127.50618750000012,128.00605799999994,128.72362479999993,None,128.0227428000003,128.70729699999993,129.22442030000002,None,right,1,0.31900369999993927,129.22442030000002,None,None,128.0227428000003,129.2076962000001,0.5115225000004102,0.5949376000003213,1.7131481999999778,1.796419799999967,,,,,nikita_1,001,2020_Feb_13_1306,posner,3.1.5,59.94025155722416,
0.5,180,1,right,2,4,0,0,0,0,7,0,56,6,,,,,,,,,129.5587803000003,130.05891950000023,130.7765069000002,None,130.07554660000005,130.75989180000033,131.27736390000018,None,right,1,0.3220582999997532,131.27736390000018,None,None,130.07554660000005,131.2603681999999,0.511716499999693,0.5950475999998162,1.7131499999995867,1.7970660999999382,,,,,nikita_1,001,2020_Feb_13_1306,posner,3.1.5,59.94025155722416,
-0.5,0,1,left,1,3,0,0,0,0,7,1,57,1,,,,,,,,,131.6284399000001,132.12842550000005,132.84618900000032,None,132.14527150000004,132.8294132000001,133.34692429999996,None,left,1,0.26849870000023657,133.34692429999996,None,None,132.14527150000004,133.3300846000002,0.5113672000002225,0.5948376999999709,1.7130041000000347,1.7963385000002745,,,,,nikita_1,001,2020_Feb_13_1306,posner,3.1.5,59.94025155722416,
-0.5,180,0,left,2,3,0,0,0,0,7,2,58,4,,,,,,,,,133.63117490000013,134.13098720000016,134.84915619999992,None,134.14800379999997,134.83200160000024,135.34952569999996,None,left,1,0.31387519999998403,135.34952569999996,None,None,134.14800379999997,135.33270730000004,0.5115847999995822,0.5952151999999842,1.7132856999996875,1.7968965000000026,,,,,nikita_1,001,2020_Feb_13_1306,posner,3.1.5,59.94025155722416,
0.5,180,1,right,2,4,0,0,0,0,7,3,59,7,,,,,,,,,135.6837869000001,136.18403880000005,136.90164360000017,None,136.20049130000007,136.88481430000002,137.4022030000001,None,right,1,0.2531721000000289,137.4022030000001,None,None,136.20049130000007,137.3857680000001,0.5118667000001551,0.595433100000264,1.7135731000003034,1.7973160000001371,,,,,nikita_1,001,2020_Feb_13_1306,posner,3.1.5,59.94025155722416,
-0.5,0,1,left,1,3,0,0,0,0,7,4,60,2,,,,,,,,,137.6864043999999,138.18679550000024,138.9044288,None,138.2034953000002,138.8877064000003,139.4050913000001,None,left,1,0.2904716999996708,139.4050913000001,None,None,138.2034953000002,139.38851150000028,0.5116381000002548,0.5950667000001886,1.713337799999863,1.7967429000000266,,,,,nikita_1,001,2020_Feb_13_1306,posner,3.1.5,59.94025155722416,
-0.5,0,1,left,1,3,0,0,0,0,7,5,61,0,,,,,,,,,139.72274240000024,140.22269110000025,140.94041300000026,None,140.23946849999993,140.92380830000002,141.4411356999999,None,left,1,0.2781813000001421,141.4411356999999,None,None,140.23946849999993,141.4245579000003,0.5114746000003834,0.5951646000003166,1.7133226000000832,1.7967046000003393,,,,,nikita_1,001,2020_Feb_13_1306,posner,3.1.5,59.94025155722416,
0.5,180,1,right,2,4,0,0,0,0,7,6,62,5,,,,,,,,,141.7430374999999,142.24265100000002,142.9600333000003,None,142.25903560000006,142.94324189999998,143.4604462000002,None,right,1,0.2749033000000054,143.4604462000002,None,None,142.25903560000006,143.4440268000003,0.5117795000001024,0.5949063000002752,1.7134243000000424,1.7965830000002825,,,,,nikita_1,001,2020_Feb_13_1306,posner,3.1.5,59.94025155722416,
0.5,0,0,right,1,4,0,0,0,0,7,7,63,3,,,,,,,,,143.76133710000022,144.2617092999999,144.97942120000016,None,144.27850750000016,144.96257330000026,145.48004880000008,None,right,1,0.2953585000000203,145.48004880000008,None,None,144.27850750000016,145.46328979999998,0.5121337000000494,0.5957659000000604,1.713683299999957,1.7971731000002364,,,,,nikita_1,001,2020_Feb_13_1306,posner,3.1.5,59.94025155722416,
-0.5,0,1,left,1,3,0,0,0,0,8,0,64,0,,,,,,,,,145.79829860000018,146.2979451000001,147.0154606000001,None,146.31446670000014,146.99899630000027,147.5162736000002,None,left,1,0.25107170000001133,147.5162736000002,None,None,146.31446670000014,147.49967770000012,0.5114088999998785,0.5946754999999939,1.7131254000000808,1.7963434000002962,,,,,nikita_1,001,2020_Feb_13_1306,posner,3.1.5,59.94025155722416,
-0.5,180,0,left,2,3,0,0,0,0,8,1,65,4,,,,,,,,,147.78424369999993,148.28400630000033,149.00151380000034,None,148.30039840000018,148.9848253,149.5021959999999,None,left,1,0.3291263000000981,149.5021959999999,None,None,148.30039840000018,149.48555860000033,0.5116653999998562,0.5949695999997857,1.7131924000000254,1.7966373999997813,,,,,nikita_1,001,2020_Feb_13_1306,posner,3.1.5,59.94025155722416,
-0.5,0,1,left,1,3,0,0,0,0,8,2,66,1,,,,,,,,,149.85423310000033,150.35335149999992,151.07100040000023,None,150.37009290000015,151.05446370000027,151.57171580000022,None,left,1,0.30753139999978885,151.57171580000022,None,None,150.37009290000015,151.5550902,0.5112457000000177,0.5946963000001233,1.7129601000001458,1.7966146999997363,,,,,nikita_1,001,2020_Feb_13_1306,posner,3.1.5,59.94025155722416,
0.5,180,1,right,2,4,0,0,0,0,8,3,67,7,,,,,,,,,151.9061767000003,152.4063524000003,153.12418590000016,None,152.42287590000024,153.1073676000001,153.6246239000002,None,right,1,0.2626669999999649,153.6246239000002,None,None,152.42287590000024,153.60813180000014,0.5115519000000859,0.5947728000001007,1.7133160000003045,1.796410299999934,,,,,nikita_1,001,2020_Feb_13_1306,posner,3.1.5,59.94025155722416,
0.5,180,1,right,2,4,0,0,0,0,8,4,68,6,,,,,,,,,153.90905350000003,154.40907880000032,155.1266459000003,None,154.42582690000017,155.10994410000012,155.62741340000002,None,right,1,0.32383600000002843,155.62741340000002,None,None,154.42582690000017,155.61047260000032,0.5116984000001139,0.595032799999899,1.713089299999865,1.7968746000001374,,,,,nikita_1,001,2020_Feb_13_1306,posner,3.1.5,59.94025155722416,
0.5,180,1,right,2,4,0,0,0,0,8,5,69,5,,,,,,,,,155.97843760000023,156.47854320000033,157.19606650000014,None,156.49525500000027,157.17968079999991,157.69698560000006,None,right,1,0.3182776000003287,157.69698560000006,None,None,156.49525500000027,157.68012679999993,0.5117384999998649,0.5951470999998492,1.7132919999999103,1.7967605999997431,,,,,nikita_1,001,2020_Feb_13_1306,posner,3.1.5,59.94025155722416,
-0.5,0,1,left,1,3,0,0,0,0,8,6,70,2,,,,,,,,,158.03119860000015,158.5312245,159.24908110000024,None,158.54800680000017,159.2321804000003,159.74980340000002,None,left,1,0.30562519999966753,159.74980340000002,None,None,158.54800680000017,159.73310070000025,0.5117786999999225,0.5954710000000887,1.7136663999999655,1.796910999999909,,,,,nikita_1,001,2020_Feb_13_1306,posner,3.1.5,59.94025155722416,
0.5,0,0,right,1,4,0,0,0,0,8,7,71,3,,,,,,,,,160.08424839999998,160.58439880000014,161.30176710000023,None,160.60076359999994,161.28526069999998,161.8024088000002,None,right,1,0.2928878999996414,161.8024088000002,None,None,160.60076359999994,161.78577160000032,0.5117831000002298,0.5952170999998998,1.713142600000083,1.7967225000002145,,,,,nikita_1,001,2020_Feb_13_1306,posner,3.1.5,59.94025155722416,
0.5,180,1,right,2,4,0,0,0,0,9,0,72,6,,,,,,,,,162.1202400000002,162.62019950000013,163.33786850000024,None,162.63705980000032,163.3212484999999,163.8386158000003,None,right,1,0.32057069999973464,163.8386158000003,None,None,162.63705980000032,163.82195490000004,0.5115633000000344,0.5950568000002932,1.7133010000002287,1.7967624000002616,,,,,nikita_1,001,2020_Feb_13_1306,posner,3.1.5,59.94025155722416,
0.5,180,1,right,2,4,0,0,0,0,9,1,73,7,,,,,,,,,164.18960749999997,164.68987460000017,165.40754809999999,None,164.70649720000029,165.39066309999998,165.9084628999999,None,right,1,0.2829123999999865,165.9084628999999,None,None,164.70649720000029,165.89131380000026,0.5117475000001832,0.5950595000003887,1.7131756000003406,1.7968141000001197,,,,,nikita_1,001,2020_Feb_13_1306,posner,3.1.5,59.94025155722416,
-0.5,0,1,left,1,3,0,0,0,0,9,2,74,1,,,,,,,,,166.2094503000003,166.7092901000001,167.42690820000007,None,166.72605340000018,167.41023029999997,167.92750270000033,None,left,1,0.3117624999999862,167.92750270000033,None,None,166.72605340000018,167.9109222000002,0.5115577000001394,0.5949236999999812,1.713167599999906,1.7966584999999213,,,,,nikita_1,001,2020_Feb_13_1306,posner,3.1.5,59.94025155722416,
0.5,180,1,right,2,4,0,0,0,0,9,3,75,5,,,,,,,,,168.2616919000002,168.7620893000003,169.47990290000007,None,168.7788617000001,169.4629433,169.98031260000016,None,right,1,0.2508314000001519,169.98031260000016,None,None,168.7788617000001,169.96389799999997,0.5119964999998956,0.595638400000098,1.7137818999999581,1.7971622999998544,,,,,nikita_1,001,2020_Feb_13_1306,posner,3.1.5,59.94025155722416,
-0.5,0,1,left,1,3,0,0,0,0,9,4,76,2,,,,,,,,,170.2481729000001,170.7483084999999,171.46591630000012,None,170.76492280000002,171.4492706000001,171.96689500000002,None,left,1,0.2567031999997198,171.96689500000002,None,None,170.76492280000002,171.94978179999998,0.511822100000245,0.5950032000000647,1.7132817000001523,1.7966325000002143,,,,,nikita_1,001,2020_Feb_13_1306,posner,3.1.5,59.94025155722416,
-0.5,0,1,left,1,3,0,0,0,0,9,5,77,0,,,,,,,,,172.2509356999999,172.75071049999997,173.4691041000001,None,172.76750820000007,173.45185710000032,173.9697587999999,None,left,1,0.2935554000000593,173.9697587999999,None,None,172.76750820000007,173.95244700000012,0.5115740999999616,0.5953815000002578,1.7133020999999644,1.7968498000000181,,,,,nikita_1,001,2020_Feb_13_1306,posner,3.1.5,59.94025155722416,
-0.5,180,0,left,2,3,0,0,0,0,9,6,78,4,,,,,,,,,174.28731319999997,174.7871553,175.50493180000012,None,174.80366630000026,175.4880221000003,176.00545839999995,None,left,1,0.3297585000000254,176.00545839999995,None,None,174.80366630000026,175.98874049999995,0.5115322999999989,0.5948643000001539,1.7131005999999616,1.7963795000000573,,,,,nikita_1,001,2020_Feb_13_1306,posner,3.1.5,59.94025155722416,
0.5,0,0,right,1,4,0,0,0,0,9,7,79,3,,,,,,,,,176.35676349999994,176.85652580000033,177.57426579999992,None,176.8730843000003,177.55748840000024,178.07505730000003,None,right,1,0.27611380000007557,178.07505730000003,None,None,176.8730843000003,178.05818100000033,0.5115200000000186,0.5949865000002319,1.7131460999999035,1.796509899999819,,,,,nikita_1,001,2020_Feb_13_1306,posner,3.1.5,59.94025155722416,
-0.5,0,1,left,1,3,0,0,0,0,10,0,80,2,,,,,,,,,178.37592339999992,178.87594179999996,179.59348470000032,None,178.89271860000008,179.57716179999989,180.09436700000015,None,left,1,0.2809102000001076,180.09436700000015,None,None,178.89271860000008,180.07762970000022,0.5115929999997206,0.5949547999998686,1.7132610999997269,1.7965659999999843,,,,,nikita_1,001,2020_Feb_13_1306,posner,3.1.5,59.94025155722416,
-0.5,0,1,left,1,3,0,0,0,0,10,1,81,1,,,,,,,,,180.39594480000005,180.8956459000001,181.61300299999994,None,180.9120382000001,181.59635200000002,182.11381520000032,None,left,1,0.293337099999917,182.11381520000032,None,None,180.9120382000001,182.09726900000032,0.5115498999998636,0.5949670999998489,1.7131570999999894,1.7964019999999437,,,,,nikita_1,001,2020_Feb_13_1306,posner,3.1.5,59.94025155722416,
-0.5,180,0,left,2,3,0,0,0,0,10,2,82,4,,,,,,,,,182.43171359999997,182.9313615000001,183.6495786999999,None,182.94830200000024,183.63232319999997,184.1500705000003,None,left,1,0.32107970000015484,184.1500705000003,None,None,182.94830200000024,184.1332021000003,0.5111573999997745,0.5948690999998689,1.7129767999999785,1.7964176999998926,,,,,nikita_1,001,2020_Feb_13_1306,posner,3.1.5,59.94025155722416,
0.5,180,1,right,2,4,0,0,0,0,10,3,83,6,,,,,,,,,184.5009785000002,185.00114600000006,185.71882370000003,None,185.01780159999998,185.70203020000008,186.21953010000016,None,right,1,0.3156951000000845,186.21953010000016,None,None,185.01780159999998,186.20275870000023,0.5118326000001616,0.5951990000003207,1.7134227999999894,1.7966513000001214,,,,,nikita_1,001,2020_Feb_13_1306,posner,3.1.5,59.94025155722416,
-0.5,0,1,left,1,3,0,0,0,0,10,4,84,0,,,,,,,,,186.55413980000003,187.05377339999995,187.77148450000004,None,187.07042720000027,187.7549985999999,188.2721722000001,None,left,1,0.24704900000006091,188.2721722000001,None,None,187.07042720000027,188.2554485999999,0.5114764999998442,0.5950620999997227,1.7131338999997752,1.7967450999999528,,,,,nikita_1,001,2020_Feb_13_1306,posner,3.1.5,59.94025155722416,
0.5,0,0,right,1,4,0,0,0,0,10,5,85,3,,,,,,,,,188.5400407000002,189.04002730000002,189.7576967,None,189.05656219999992,189.74077320000015,190.25843590000022,None,right,1,0.31682130000035613,190.25843590000022,None,None,189.05656219999992,190.24154270000008,0.5116493000000446,0.5951267000000371,1.7131520000002638,1.796742400000312,,,,,nikita_1,001,2020_Feb_13_1306,posner,3.1.5,59.94025155722416,
0.5,180,1,right,2,4,0,0,0,0,10,6,86,7,,,,,,,,,190.59311019999996,191.09271770000032,191.81040510000003,None,191.10943160000033,191.79366299999992,192.3110555000003,None,right,1,0.3282500999998774,192.3110555000003,None,None,191.10943160000033,192.2944553000002,0.5113713000000644,0.5948604999998679,1.7130871999997908,1.7966494000002058,,,,,nikita_1,001,2020_Feb_13_1306,posner,3.1.5,59.94025155722416,
0.5,180,1,right,2,4,0,0,0,0,10,7,87,5,,,,,,,,,192.66189600000007,193.1620925000002,193.87972760000002,None,193.1790507999999,193.86326050000025,194.38052130000005,None,right,1,0.3227461999999832,194.38052130000005,None,None,193.1790507999999,194.3640249,0.5117153999999573,0.5954983999999968,1.7136285000001408,1.7969651000003068,,,,,nikita_1,001,2020_Feb_13_1306,posner,3.1.5,59.94025155722416,
,,,,,,0,0,0,0,,,,,,,,,,,,,,,,,,,,,,,,,,,,,,,,,194.7323779000003,None,1.810000003388268e-05,0.9957954000001337,nikita_1,001,2020_Feb_13_1306,posner,3.1.5,59.94025155722416,
0.5,180,1,right,2,4,1,0,1,0,0,0,0,7,1.160000010713702e-05,0.09773309999991397,255.74853500000017,None,1.5000000075815478e-05,0.09822459999986677,257.8510578999999,None,258.12292620000017,258.61891890000015,259.3365315000001,None,258.63579630000004,259.3196445000003,259.83726720000004,None,right,1,0.2735972000000402,259.83726720000004,None,None,258.63579630000004,259.8204003000001,0.505168600000161,0.5885137000000213,1.7066342000002805,1.7902412000003096,,,,,nikita_1,001,2020_Feb_13_1306,posner,3.1.5,59.94025155722416,
-0.5,180,0,left,2,3,1,0,1,0,0,1,1,4,,,,,,,,,260.1384966999999,260.63843180000003,261.35600280000017,None,260.65517,261.33927870000025,261.85680900000034,None,left,1,0.2859668999999485,261.85680900000034,None,None,260.65517,261.8399297000001,0.5110883000002104,0.5944278000001759,1.7125731000000997,1.7960398000000168,,,,,nikita_1,001,2020_Feb_13_1306,posner,3.1.5,59.94025155722416,
-0.5,0,1,left,1,3,1,0,1,0,0,2,2,0,,,,,,,,,262.17402070000026,262.6744853,263.39206300000023,None,262.69136819999994,263.3755076000002,263.8926798000002,None,left,1,0.33014249999996537,263.8926798000002,None,None,262.69136819999994,263.8760919000001,0.5122920999997405,0.5957981999999902,1.7138715999999476,1.797213499999998,,,,,nikita_1,001,2020_Feb_13_1306,posner,3.1.5,59.94025155722416,
0.5,0,0,right,1,4,1,0,1,0,0,3,3,3,,,,,,,,,264.2443800000001,264.74424210000006,265.46162060000006,None,264.7605953000002,265.4452017000003,265.9623203000001,None,right,1,0.3005628999999317,265.9623203000001,None,None,264.7605953000002,265.94567929999994,0.5116486000001714,0.5947986000001038,1.7130732999999054,1.796574999999848,,,,,nikita_1,001,2020_Feb_13_1306,posner,3.1.5,59.94025155722416,
0.5,180,1,right,2,4,1,0,1,0,0,4,4,6,,,,,,,,,266.2797555000002,266.7800416,267.4978446,None,266.7969062000002,267.48121820000006,267.9987117999999,None,right,1,0.32015169999976933,267.9987117999999,None,None,266.7969062000002,267.9816800000003,0.5117109000002529,0.5953398000001471,1.7133281000001261,1.796889800000372,,,,,nikita_1,001,2020_Feb_13_1306,posner,3.1.5,59.94025155722416,
0.5,180,1,right,2,4,1,0,1,0,0,5,5,5,,,,,,,,,268.3491962000003,268.8496097000002,269.56737350000003,None,268.86647930000026,269.55059930000016,270.06788800000004,None,right,1,0.34688999999980297,270.06788800000004,None,None,268.86647930000026,270.0511346000003,0.5122535999998945,0.5959914000000026,1.7137447000000066,1.7973035999998501,,,,,nikita_1,001,2020_Feb_13_1306,posner,3.1.5,59.94025155722416,
-0.5,0,1,left,1,3,1,0,1,0,0,6,6,2,,,,,,,,,270.43560890000026,270.9358772999999,271.6534919999999,None,270.9525202,271.63686880000023,272.1542238000002,None,left,1,0.32454180000013366,272.1542238000002,None,None,270.9525202,272.13752060000024,0.5117252000000008,0.5952312999997957,1.7133504999997058,1.7968563999997968,,,,,nikita_1,001,2020_Feb_13_1306,posner,3.1.5,59.94025155722416,
-0.5,0,1,left,1,3,1,0,1,0,0,7,7,1,,,,,,,,,272.50554200000033,273.0054688,273.7230450000002,None,273.02201490000016,273.7063011,274.2237441000002,None,left,1,0.3189700000002631,274.2237441000002,None,None,273.02201490000016,274.2070028000003,0.5115390999999363,0.5948366000002352,1.713057899999967,1.7965972000001784,,,,,nikita_1,001,2020_Feb_13_1306,posner,3.1.5,59.94025155722416,
-0.5,0,1,left,1,3,1,0,1,0,1,0,8,1,,,,,,,,,274.5749715000002,275.0750006000003,275.79249340000024,None,275.0916116000003,275.7759163999999,276.29349920000004,None,left,1,0.3452965999999833,276.29349920000004,None,None,275.0916116000003,276.2765912,0.5114827000002151,0.5949712999999974,1.7130609000000732,1.7962996999999632,,,,,nikita_1,001,2020_Feb_13_1306,posner,3.1.5,59.94025155722416,
0.5,0,0,right,1,4,1,0,1,0,1,1,9,3,,,,,,,,,276.6610980999999,277.160981,277.8789293,None,277.1778171000001,277.8622875000001,278.37953000000016,None,right,1,0.31518880000021454,278.37953000000016,None,None,277.1778171000001,278.36269930000026,0.5112985999999182,0.5947833000000173,1.7130380999997215,1.7966137999997045,,,,,nikita_1,001,2020_Feb_13_1306,posner,3.1.5,59.94025155722416,
0.5,180,1,right,2,4,1,0,1,0,1,2,10,6,,,,,,,,,278.71428920000017,279.21399120000024,279.9314053000003,None,279.23055350000004,279.9150182000003,280.4321798000001,None,right,1,0.31054349999976694,280.4321798000001,None,None,279.23055350000004,280.41558750000013,0.5115890000001855,0.5948910000001888,1.7131690999999591,1.7966808000001038,,,,,nikita_1,001,2020_Feb_13_1306,posner,3.1.5,59.94025155722416,
-0.5,180,0,left,2,3,1,0,1,0,1,3,11,4,,,,,,,,,280.7666443000003,281.26678300000003,281.98444640000025,None,281.2833725999999,281.9678063000001,282.4851513000003,None,left,1,0.27367359999971086,282.4851513000003,None,None,281.2833725999999,282.46877369999993,0.5117845999998281,0.5949603999997635,1.7137552999997752,1.796763800000008,,,,,nikita_1,001,2020_Feb_13_1306,posner,3.1.5,59.94025155722416,
0.5,180,1,right,2,4,1,0,1,0,1,4,12,7,,,,,,,,,282.78618989999995,283.2860783000001,284.0037744000001,None,283.30281560000003,283.9872058000001,284.50445119999995,None,right,1,0.2622516999999789,284.50445119999995,None,None,283.30281560000003,284.4880098000003,0.5116038000001026,0.5950344000002588,1.713515500000085,1.796702600000117,,,,,nikita_1,001,2020_Feb_13_1306,posner,3.1.5,59.94025155722416,
-0.5,0,1,left,1,3,1,0,1,0,1,5,13,2,,,,,,,,,284.7891404000002,285.28896280000026,286.00668810000025,None,285.30567840000003,285.9897662000003,286.5069662000001,None,left,1,0.3716552999999294,286.5069662000001,None,None,285.30567840000003,286.49043140000003,0.5115081999997528,0.594811099999788,1.7129644999999982,1.7964638999997078,,,,,nikita_1,001,2020_Feb_13_1306,posner,3.1.5,59.94025155722416,
0.5,180,1,right,2,4,1,0,1,0,1,6,14,5,,,,,,,,,286.9082548000001,287.4085091000002,288.12629300000026,None,287.4252830999999,288.10942730000033,288.6267736,None,right,1,0.3078292000000147,288.6267736,None,None,287.4252830999999,288.6099168999999,0.5115556999999171,0.5948549999998249,1.712942799999837,1.7966434999998455,,,,,nikita_1,001,2020_Feb_13_1306,posner,3.1.5,59.94025155722416,
-0.5,0,1,left,1,3,1,0,1,0,1,7,15,0,,,,,,,,,288.96140060000016,289.46139949999997,290.1790549000002,None,289.4783188000001,290.16223820000005,290.67973740000025,None,left,1,0.2948934000000918,290.67973740000025,None,None,289.4783188000001,290.6628536000003,0.5116796000002068,0.595118800000364,1.7131272000001445,1.7967974000002869,,,,,nikita_1,001,2020_Feb_13_1306,posner,3.1.5,59.94025155722416,
-0.5,180,0,left,2,3,1,0,1,0,2,0,16,4,,,,,,,,,290.9976644000003,291.49769860000015,292.2153023999999,None,291.5141543,292.19837559999996,292.7157674,None,left,1,0.2588484000002609,292.7157674,None,None,291.5141543,292.69916360000025,0.5118453999998565,0.5950351999999839,1.7132950999998684,1.7966339999998127,,,,,nikita_1,001,2020_Feb_13_1306,posner,3.1.5,59.94025155722416,
-0.5,0,1,left,1,3,1,0,1,0,2,1,17,2,,,,,,,,,293.0001718000003,293.5002208000001,294.21824830000014,None,293.5170174,294.20104930000025,294.71851590000006,None,left,1,0.3761146000001645,294.71851590000006,None,None,293.5170174,294.7018754999999,0.511823600000298,0.5954454000002443,1.7134635000002163,1.7969468000001143,,,,,nikita_1,001,2020_Feb_13_1306,posner,3.1.5,59.94025155722416,
0.5,180,1,right,2,4,1,0,1,0,2,2,18,5,,,,,,,,,295.11976170000025,295.61973590000025,296.33755410000003,None,295.63644060000024,296.3206607000002,296.8382375000001,None,right,1,0.33644219999996494,296.8382375000001,None,None,295.63644060000024,296.8216841000003,0.5115719999998873,0.5950520000001234,1.7135071000002426,1.7968120000000454,,,,,nikita_1,001,2020_Feb_13_1306,posner,3.1.5,59.94025155722416,
0.5,0,0,right,1,4,1,0,1,0,2,3,19,3,,,,,,,,,297.20591090000016,297.70623890000024,298.42373590000034,None,297.72273440000026,298.4068683999999,298.9244157000003,None,right,1,0.3381099999996877,298.9244157000003,None,None,297.72273440000026,298.90772530000004,0.5117284999996627,0.5951628999996501,1.7131940999997823,1.796520800000053,,,,,nikita_1,001,2020_Feb_13_1306,posner,3.1.5,59.94025155722416,
0.5,180,1,right,2,4,1,0,1,0,2,4,20,7,,,,,,,,,299.29219349999994,299.7921731000001,300.50947399999995,None,299.8090691000002,300.4931236000002,301.01057579999997,None,right,1,0.40400769999996555,301.01057579999997,None,None,299.8090691000002,300.9939988000001,0.5116425000001072,0.5951506000001245,1.7134454000001824,1.7967398000000685,,,,,nikita_1,001,2020_Feb_13_1306,posner,3.1.5,59.94025155722416,
0.5,180,1,right,2,4,1,0,1,0,2,5,21,6,,,,,,,,,301.44454190000033,301.9452218000001,302.6626977000001,None,301.96186179999995,302.6463708000001,303.1634494,None,right,1,0.38716569999996864,303.1634494,None,None,301.96186179999995,303.1469284,0.5123567000000548,0.5957318999999188,1.7140463000000636,1.7973345999998855,,,,,nikita_1,001,2020_Feb_13_1306,posner,3.1.5,59.94025155722416,
-0.5,0,1,left,1,3,1,0,1,0,2,6,22,0,,,,,,,,,303.58077330000015,304.08137149999993,304.7992701000003,None,304.0982283000003,304.78230470000017,305.2996856,None,left,1,0.21085600000014892,305.2996856,None,None,304.0982283000003,305.2829523999999,0.5119992999998431,0.5956007999998292,1.71356250000008,1.7971222999999554,,,,,nikita_1,001,2020_Feb_13_1306,posner,3.1.5,59.94025155722416,
-0.5,0,1,left,1,3,1,0,1,0,2,7,23,1,,,,,,,,,305.5345388999999,306.0340907,306.7518048000002,None,306.0507966,306.7350320999999,307.25249680000024,None,left,1,0.330003200000192,307.25249680000024,None,None,306.0507966,307.23587610000004,0.5113139999998566,0.5949184000000969,1.713083000000097,1.7964210999998613,,,,,nikita_1,001,2020_Feb_13_1306,posner,3.1.5,59.94025155722416,
0.5,0,0,right,1,4,1,0,1,0,3,0,24,3,,,,,,,,,307.60392900000033,308.1039245000002,308.8210981000002,None,308.1201587999999,308.80481469999995,309.32190089999995,None,right,1,0.2607877999998891,309.32190089999995,None,None,308.1201587999999,309.30526580000014,0.5116984999999659,0.5949580999999853,1.7130293999998685,1.7964569000000665,,,,,nikita_1,001,2020_Feb_13_1306,posner,3.1.5,59.94025155722416,
0.5,180,1,right,2,4,1,0,1,0,3,1,25,7,,,,,,,,,309.6064915000002,310.1065014999999,310.8243861000001,None,310.12298020000026,310.8074024000002,311.32466490000024,None,right,1,0.32993179999994027,311.32466490000024,None,None,310.12298020000026,311.3081336,0.5115530999996736,0.594728799999757,1.713155999999799,1.7963838999999098,,,,,nikita_1,001,2020_Feb_13_1306,posner,3.1.5,59.94025155722416,
0.5,180,1,right,2,4,1,0,1,0,3,2,26,5,,,,,,,,,311.67599169999994,312.17593510000006,312.8936480000002,None,312.19252300000016,312.87680090000003,313.39423880000004,None,right,1,0.3404389000002084,313.39423880000004,None,None,312.19252300000016,313.37761720000026,0.511530600000242,0.5949991000002228,1.7131967000000259,1.7965410000001611,,,,,nikita_1,001,2020_Feb_13_1306,posner,3.1.5,59.94025155722416,
-0.5,180,0,left,2,3,1,0,1,0,3,3,27,4,,,,,,,,,313.7617166,314.2621266000001,314.9796415999999,None,314.2789292000002,314.9630026,315.4805053,None,left,1,0.31804280000005747,315.4805053,None,None,314.2789292000002,315.4638050000003,0.5122842999999193,0.5958299999997507,1.7139422999998715,1.797368600000027,,,,,nikita_1,001,2020_Feb_13_1306,posner,3.1.5,59.94025155722416,
0.5,180,1,right,2,4,1,0,1,0,3,4,28,6,,,,,,,,,315.8151019000002,316.3148526,317.0323791999999,None,316.33144660000016,317.01590250000027,317.5331949000001,None,right,1,0.28955980000000636,317.5331949000001,None,None,316.33144660000016,317.5166211999999,0.5114702999999281,0.5950186000000031,1.7132148999999117,1.796370399999887,,,,,nikita_1,001,2020_Feb_13_1306,posner,3.1.5,59.94025155722416,
-0.5,0,1,left,1,3,1,0,1,0,3,5,29,2,,,,,,,,,317.85054560000026,318.35097730000007,319.0686578,None,318.3677597000001,319.05193710000003,319.56920070000024,None,left,1,0.37347929999987173,319.56920070000024,None,None,318.3677597000001,319.5526278000002,0.512100499999633,0.5955300999999054,1.7137304999996559,1.7973408999996536,,,,,nikita_1,001,2020_Feb_13_1306,posner,3.1.5,59.94025155722416,
-0.5,0,1,left,1,3,1,0,1,0,3,6,30,1,,,,,,,,,319.9710047000003,320.47074680000014,321.18821290000005,None,320.4873163000002,321.17152209999995,321.6890570999999,None,left,1,0.3736586999998508,321.6890570999999,None,None,320.4873163000002,321.67214330000024,0.5118895000000521,0.5951789000000645,1.7132661000000553,1.7968591999997443,,,,,nikita_1,001,2020_Feb_13_1306,posner,3.1.5,59.94025155722416,
-0.5,0,1,left,1,3,1,0,1,0,3,7,31,0,,,,,,,,,322.09022959999993,322.5901180000001,323.3079858000001,None,322.6069513000002,323.29102760000023,323.8084941000002,None,left,1,0.32598049999978684,323.8084941000002,None,None,322.6069513000002,323.79182820000005,0.511732800000118,0.5952406000001247,1.7134239000001799,1.7967961999997897,,,,,nikita_1,001,2020_Feb_13_1306,posner,3.1.5,59.94025155722416,
0.5,180,1,right,2,4,1,0,1,0,4,0,32,5,,,,,,,,,324.1596712999999,324.65957030000027,325.3774920999999,None,324.67649440000014,325.3605961000003,325.87830380000014,None,right,1,0.4081538000000364,325.87830380000014,None,None,324.67649440000014,325.8614324,0.5114983000003122,0.5951491000000715,1.7133453999999801,1.796718399999918,,,,,nikita_1,001,2020_Feb_13_1306,posner,3.1.5,59.94025155722416,
0.5,0,0,right,1,4,1,0,1,0,4,1,33,3,,,,,,,,,326.3129699000001,326.8126897000002,327.5301916000003,None,326.8292790999999,327.51362880000033,328.0309406000001,None,right,1,0.3675966000000699,328.0309406000001,None,None,326.8292790999999,328.0145285000003,0.5117527999996128,0.5949545999997099,1.7132950999998684,1.796523900000011,,,,,nikita_1,001,2020_Feb_13_1306,posner,3.1.5,59.94025155722416,
-0.5,0,1,left,1,3,1,0,1,0,4,2,34,0,,,,,,,,,328.41580060000024,328.9156582999999,329.6333281000002,None,328.9321149000002,329.6167767000002,330.13411799999994,None,left,1,0.2564690999997765,330.13411799999994,None,None,328.9321149000002,330.1173294,0.5115083999999115,0.5950090999999702,1.7131695999996737,1.796438699999726,,,,,nikita_1,001,2020_Feb_13_1306,posner,3.1.5,59.94025155722416,
-0.5,180,0,left,2,3,1,0,1,0,4,3,35,4,,,,,,,,,330.41811000000007,330.9182813000002,331.6360133000003,None,330.9350703,331.61916969999993,332.13666600000033,None,left,1,0.3577642999998716,332.13666600000033,None,None,330.9350703,332.1198569000003,0.5118422000000464,0.5953014000001531,1.7133934000003137,1.7969493000000512,,,,,nikita_1,001,2020_Feb_13_1306,posner,3.1.5,59.94025155722416,
-0.5,0,1,left,1,3,1,0,1,0,4,4,36,1,,,,,,,,,332.5205796,333.0211460999999,333.7390521000002,None,333.0378546000002,333.7220494000003,334.2395236000002,None,left,1,0.3269074000004366,334.2395236000002,None,None,333.0378546000002,334.22285920000013,0.5122382999998081,0.5955810000000383,1.7139275999998063,1.797396800000115,,,,,nikita_1,001,2020_Feb_13_1306,posner,3.1.5,59.94025155722416,
0.5,180,1,right,2,4,1,0,1,0,4,5,37,7,,,,,,,,,334.5904002000002,335.0906083,335.8085487000003,None,335.10742100000016,335.7917056000001,336.3093339000002,None,right,1,0.2491440999997394,336.3093339000002,None,None,335.10742100000016,336.2927440000003,0.5117256999997153,0.5953672999999071,1.7138489999997546,1.797056099999736,,,,,nikita_1,001,2020_Feb_13_1306,posner,3.1.5,59.94025155722416,
0.5,180,1,right,2,4,1,0,1,0,4,6,38,6,,,,,,,,,336.57690630000025,337.07694850000007,337.7943792000001,None,337.0936034000001,337.7780269,338.2949238000001,None,right,1,0.31958069999973304,338.2949238000001,None,None,337.0936034000001,338.27830270000004,0.511569000000236,0.5947088000002623,1.7128938000000744,1.7964787000000797,,,,,nikita_1,001,2020_Feb_13_1306,posner,3.1.5,59.94025155722416,
-0.5,0,1,left,1,3,1,0,1,0,4,7,39,2,,,,,,,,,338.64598380000007,339.1463119,339.8641451000003,None,339.16298110000025,339.8474710999999,340.36458840000023,None,left,1,0.24989000000005035,340.36458840000023,None,None,339.16298110000025,340.347902,0.511627899999894,0.5949970000001485,1.7131999000002907,1.796604699999989,,,,,nikita_1,001,2020_Feb_13_1306,posner,3.1.5,59.94025155722416,
-0.5,180,0,left,2,3,1,0,1,0,5,0,40,4,,,,,,,,,340.6326005000001,341.13222399999995,341.84999289999996,None,341.1492108000002,341.83352620000005,342.35065410000016,None,left,1,0.35176400000000285,342.35065410000016,None,None,341.1492108000002,342.3339470000001,0.5112521999999444,0.5949187999999594,1.712950500000261,1.796557600000142,,,,,nikita_1,001,2020_Feb_13_1306,posner,3.1.5,59.94025155722416,
-0.5,0,1,left,1,3,1,0,1,0,5,1,41,2,,,,,,,,,342.71850870000026,343.2185061,343.93639740000026,None,343.23511529999996,343.9194207999999,344.4369200000001,None,left,1,0.313499899999897,344.4369200000001,None,None,343.23511529999996,344.4201358,0.5113764000002448,0.5947610000002896,1.7129937000004247,1.796519100000296,,,,,nikita_1,001,2020_Feb_13_1306,posner,3.1.5,59.94025155722416,
0.5,180,1,right,2,4,1,0,1,0,5,2,42,6,,,,,,,,,344.7717837,345.27133410000033,345.98925529999997,None,345.28818090000004,345.97238830000015,346.4896198000001,None,right,1,0.27673909999975876,346.4896198000001,None,None,345.28818090000004,346.4730881999999,0.5113510999999562,0.594741200000044,1.71308769999996,1.7965601000000788,,,,,nikita_1,001,2020_Feb_13_1306,posner,3.1.5,59.94025155722416,
-0.5,0,1,left,1,3,1,0,1,0,5,3,43,0,,,,,,,,,346.79080620000013,347.29070330000013,348.0086580000002,None,347.30756640000027,347.9917383000002,348.50925559999996,None,left,1,0.27330550000033327,348.50925559999996,None,None,347.30756640000027,348.4924593999999,0.5115365000001475,0.5952907999999297,1.713274100000035,1.7967932000001383,,,,,nikita_1,001,2020_Feb_13_1306,posner,3.1.5,59.94025155722416,
0.5,0,0,right,1,4,1,0,1,0,5,4,44,3,,,,,,,,,348.81001530000003,349.3100754000002,350.02816410000014,None,349.3270969,350.01121680000006,350.5286318000003,None,right,1,0.3017291999999543,350.5286318000003,None,None,349.3270969,350.51192029999993,0.5117378999998436,0.5953508999996302,1.7135694999997213,1.7971152000000075,,,,,nikita_1,001,2020_Feb_13_1306,posner,3.1.5,59.94025155722416,
0.5,180,1,right,2,4,1,0,1,0,5,5,45,7,,,,,,,,,350.8460398000002,351.34657080000034,352.06409600000006,None,351.36303829999997,352.0473841000003,352.5648492,None,right,1,0.3535061000002315,352.5648492,None,None,351.36303829999997,352.54816800000026,0.5121828999999707,0.595189599999685,1.7137665999998717,1.7968646999997873,,,,,nikita_1,001,2020_Feb_13_1306,posner,3.1.5,59.94025155722416,
0.5,180,1,right,2,4,1,0,1,0,5,6,46,5,,,,,,,,,352.9490453000003,353.44936099999995,354.16686759999993,None,353.46613590000015,354.15016060000016,354.6678842000001,None,right,1,0.29851360000020577,354.6678842000001,None,None,353.46613590000015,354.6508157000003,0.5117683999997098,0.5953514999996514,1.7132090000000062,1.7969248999997944,,,,,nikita_1,001,2020_Feb_13_1306,posner,3.1.5,59.94025155722416,
-0.5,0,1,left,1,3,1,0,1,0,5,7,47,1,,,,,,,,,354.98607790000005,355.48558619999994,356.2032634000002,None,355.5020531,356.18654259999994,356.70376810000016,None,left,1,0.28658919999998034,356.70376810000016,None,None,355.5020531,356.68722890000026,0.5113970000002155,0.594769499999984,1.713009300000067,1.7961095999999088,,,,,nikita_1,001,2020_Feb_13_1306,posner,3.1.5,59.94025155722416,
0.5,180,1,right,2,4,1,0,1,0,6,0,48,5,,,,,,,,,357.0213976,357.52151410000033,358.2392405999999,None,357.5382761999999,358.2225634000001,358.7398115000001,None,right,1,0.2666027000000213,358.7398115000001,None,None,357.5382761999999,358.7232451,0.5115341999999146,0.5950654999996914,1.7132409000000735,1.796749600000112,,,,,nikita_1,001,2020_Feb_13_1306,posner,3.1.5,59.94025155722416,
-0.5,0,1,left,1,3,1,0,1,0,6,1,49,2,,,,,,,,,359.02440990000014,359.52454260000013,360.24192790000006,None,359.5409125000001,360.22532249999995,360.74260090000007,None,left,1,0.26379229999974996,360.74260090000007,None,None,359.5409125000001,360.7259852000002,0.5117725000000064,0.5949866000000839,1.7132015000001957,1.796714200000224,,,,,nikita_1,001,2020_Feb_13_1306,posner,3.1.5,59.94025155722416,
0.5,180,1,right,2,4,1,0,1,0,6,2,50,6,,,,,,,,,361.02733639999997,361.52719130000014,362.24473350000017,None,361.54388960000006,362.2281717000001,362.7455586000001,None,right,1,0.2207391000001735,362.7455586000001,None,None,361.54388960000006,362.72858620000034,0.5116174999998293,0.5948905999998715,1.712999200000013,1.7965432999999393,,,,,nikita_1,001,2020_Feb_13_1306,posner,3.1.5,59.94025155722416,
0.5,180,1,right,2,4,1,0,1,0,6,3,51,7,,,,,,,,,362.99633900000026,363.4965416,364.21431120000034,None,363.51325270000007,364.19752990000006,364.71474979999994,None,right,1,0.3236435000003439,364.71474979999994,None,None,363.51325270000007,364.6981273000001,0.5115167999997539,0.5949037999998836,1.7130764999997155,1.7963691999998446,,,,,nikita_1,001,2020_Feb_13_1306,posner,3.1.5,59.94025155722416,
-0.5,180,0,left,2,3,1,0,1,0,6,4,52,4,,,,,,,,,365.0661693000002,365.5660069999999,366.2837777,None,365.58244430000013,366.2670043000003,366.78440249999994,None,left,1,0.3018993999999111,366.78440249999994,None,None,365.58244430000013,366.7677595,0.5115277999998398,0.5949273999999605,1.7132645000001503,1.7965229999999792,,,,,nikita_1,001,2020_Feb_13_1306,posner,3.1.5,59.94025155722416,
-0.5,0,1,left,1,3,1,0,1,0,6,5,53,0,,,,,,,,,367.1021131000002,367.60198020000007,368.31959589999997,None,367.6187643000003,368.30308730000024,368.8202785000003,369.3045715000003,None,0,,368.8202785000003,None,None,367.6187643000003,368.80364959999997,0.5115295999999034,0.5948942999998508,1.71318250000013,1.7968126000000666,,,,,nikita_1,001,2020_Feb_13_1306,posner,3.1.5,59.94025155722416,
-0.5,0,1,left,1,3,1,0,1,0,6,6,54,1,,,,,,,,,369.8052053000001,370.30580610000015,371.0235187000003,369.8052053000001,370.3223631999999,371.00677910000013,371.5242555,None,left,1,0.30622859999994034,371.5242555,None,None,370.3223631999999,371.50742850000006,0.5137423999999555,0.5971799000003557,1.7153534000003674,1.7987338000002637,,,,,nikita_1,001,2020_Feb_13_1306,posner,3.1.5,59.94025155722416,
0.5,0,0,right,1,4,1,0,1,0,6,7,55,3,,,,,,,,,371.8586588000003,372.35873690000017,373.0763919000001,None,372.37540190000027,373.05939290000015,373.57708520000006,None,right,1,0.29313319999982923,373.57708520000006,None,None,372.37540190000027,373.56029179999996,0.5118165999997473,0.5951139999997395,1.713358900000003,1.7970138000000588,,,,,nikita_1,001,2020_Feb_13_1306,posner,3.1.5,59.94025155722416,
0.5,180,1,right,2,4,1,0,1,0,7,0,56,5,,,,,,,,,373.8947954,374.3947797000001,375.11223340000015,None,374.41130969999995,375.0958258999999,375.61303420000013,None,right,1,0.36125929999980144,375.61303420000013,None,None,374.41130969999995,375.5964193,0.5115822000002481,0.5951853999999912,1.7131994999999733,1.7964433000001918,,,,,nikita_1,001,2020_Feb_13_1306,posner,3.1.5,59.94025155722416,
0.5,0,0,right,1,4,1,0,1,0,7,1,57,3,,,,,,,,,375.9977762000003,376.4978911000003,377.2153776,None,376.5145590000002,377.1986810000003,377.7160551000002,None,right,1,0.40217840000013894,377.7160551000002,None,None,376.5145590000002,377.6993640999999,0.5118385000000671,0.5949181999999382,1.7132973000002494,1.7969710000002124,,,,,nikita_1,001,2020_Feb_13_1306,posner,3.1.5,59.94025155722416,
-0.5,0,1,left,1,3,1,0,1,0,7,2,58,1,,,,,,,,,378.13399900000013,378.6339149999999,379.3516552000001,None,378.65060870000025,379.3350671000003,379.8521386000002,None,left,1,0.3540696999998545,379.8521386000002,None,None,378.65060870000025,379.8354589999999,0.5115987999997742,0.5952892999998767,1.7131334000000606,1.7968360999998367,,,,,nikita_1,001,2020_Feb_13_1306,posner,3.1.5,59.94025155722416,
-0.5,0,1,left,1,3,1,0,1,0,7,3,59,2,,,,,,,,,380.23656660000006,380.7366584000001,381.4545680000001,None,380.75349030000007,381.4377147,381.95508930000005,None,left,1,0.36310839999987365,381.95508930000005,None,None,380.75349030000007,381.93859010000006,0.5116265000001476,0.5950167999999394,1.7135370000000876,1.796704999999747,,,,,nikita_1,001,2020_Feb_13_1306,posner,3.1.5,59.94025155722416,
-0.5,180,0,left,2,3,1,0,1,0,7,4,60,4,,,,,,,,,382.3393825000003,382.83968300000015,383.5573717000002,None,382.85632140000007,383.54059430000007,384.0580487000002,None,left,1,0.4520954999998139,384.0580487000002,None,None,382.85632140000007,384.0413069000001,0.5117706000000908,0.5952959000001101,1.7133770000000368,1.7968464000000495,,,,,nikita_1,001,2020_Feb_13_1306,posner,3.1.5,59.94025155722416,
-0.5,0,1,left,1,3,1,0,1,0,7,5,61,0,,,,,,,,,384.52610810000033,385.02615689999993,385.7437823,None,385.0425915999999,385.72707690000016,386.2444448000001,None,left,1,0.30592169999999896,386.2444448000001,None,None,385.0425915999999,386.22790910000003,0.5115221000000929,0.5946653999999398,1.7132615000000442,1.7966443999998774,,,,,nikita_1,001,2020_Feb_13_1306,posner,3.1.5,59.94025155722416,
0.5,180,1,right,2,4,1,0,1,0,7,6,62,7,,,,,,,,,386.57878310000024,387.0789393,387.7965425000002,None,387.0956457000002,387.77952540000024,388.2972354000003,None,right,1,0.27698240000017904,388.2972354000003,None,None,387.0956457000002,388.2802958000002,0.5116974000002301,0.5949083000000428,1.7130333000000064,1.796735500000068,,,,,nikita_1,001,2020_Feb_13_1306,posner,3.1.5,59.94025155722416,
0.5,180,1,right,2,4,1,0,1,0,7,7,63,6,,,,,,,,,388.5978522999999,389.09834679999994,389.8160177,None,389.1150573,389.7992158000002,390.3166037000001,None,right,1,0.3615884000000733,390.3166037000001,None,None,389.1150573,390.29989680000017,0.5122710000000552,0.5954947999998694,1.7138021999999182,1.7972319000000425,,,,,nikita_1,001,2020_Feb_13_1306,posner,3.1.5,59.94025155722416,
-0.5,180,0,left,2,3,1,0,1,0,8,0,64,4,,,,,,,,,390.7006862000003,391.2010072000003,391.9189434,None,391.2179275000003,391.9020998000001,392.4194087000001,None,left,1,0.30687070000021777,392.4194087000001,None,None,391.2179275000003,392.4027203999999,0.5119866000000002,0.5955111999996916,1.713680899999872,1.797334299999875,,,,,nikita_1,001,2020_Feb_13_1306,posner,3.1.5,59.94025155722416,
0.5,180,1,right,2,4,1,0,1,0,8,1,65,5,,,,,,,,,392.7543086999999,393.2540573000001,393.9716515,None,393.2706161000001,393.95497810000006,394.4723845000003,None,right,1,0.2457499000001917,394.4723845000003,None,None,393.2706161000001,394.45571689999997,0.5115058999999746,0.5949233999999706,1.7131524000001264,1.7965972000001784,,,,,nikita_1,001,2020_Feb_13_1306,posner,3.1.5,59.94025155722416,
0.5,180,1,right,2,4,1,0,1,0,8,2,66,6,,,,,,,,,394.7400445000003,395.2399903999999,395.95797330000005,None,395.2568073000002,395.94087720000016,396.4582912000001,None,right,1,0.3559539000002587,396.4582912000001,None,None,395.2568073000002,396.4416406,0.511484499999824,0.5951539999996385,1.7131147999998575,1.7966100999997252,,,,,nikita_1,001,2020_Feb_13_1306,posner,3.1.5,59.94025155722416,
-0.5,0,1,left,1,3,1,0,1,0,8,3,67,1,,,,,,,,,396.84313820000034,397.3432757999999,398.0604241000001,None,397.35971020000034,398.04388659999995,398.5611478999999,None,left,1,0.27696229999992283,398.5611478999999,None,None,397.35971020000034,398.54464770000004,0.5118211999997584,0.5948712999997952,1.7131772999996429,1.7963064999999006,,,,,nikita_1,001,2020_Feb_13_1306,posner,3.1.5,59.94025155722416,
0.5,0,0,right,1,4,1,0,1,0,8,4,68,3,,,,,,,,,398.86253510000006,399.36263940000026,400.0799383000003,None,399.3790564000001,400.0633534000003,400.5806413,None,right,1,0.29765469999983907,400.5806413,None,None,399.3790564000001,400.5641728999999,0.5120868999997583,0.5954038999998374,1.7136037999998734,1.79709129999992,,,,,nikita_1,001,2020_Feb_13_1306,posner,3.1.5,59.94025155722416,
-0.5,0,1,left,1,3,1,0,1,0,8,5,69,2,,,,,,,,,400.89877019999994,401.39863220000007,402.1162578000003,None,401.4151710000001,402.09941789999993,402.61693400000013,None,left,1,0.29320170000028156,402.61693400000013,None,None,401.4151710000001,402.60015920000023,0.5116130999999768,0.5948373000001084,1.7131272999999965,1.7968043999999281,,,,,nikita_1,001,2020_Feb_13_1306,posner,3.1.5,59.94025155722416,
0.5,180,1,right,2,4,1,0,1,0,8,6,70,7,,,,,,,,,402.93477950000033,403.4346792000001,404.1523784000001,None,403.4513592000003,404.13560069999994,404.65304560000004,None,right,1,0.39303679999966334,404.65304560000004,None,None,403.4513592000003,404.63644810000005,0.5115286000000197,0.5950550000002295,1.7132745000003524,1.796462000000247,,,,,nikita_1,001,2020_Feb_13_1306,posner,3.1.5,59.94025155722416,
-0.5,0,1,left,1,3,1,0,1,0,8,7,71,0,,,,,,,,,405.0711280999999,405.57098270000006,406.28860250000025,None,405.58771479999996,406.27189640000006,406.7891583999999,None,left,1,0.33689860000004046,406.7891583999999,None,None,405.58771479999996,406.7726143,0.5116597000001093,0.5949127999997472,1.7133104999998068,1.7966873999998825,,,,,nikita_1,001,2020_Feb_13_1306,posner,3.1.5,59.94025155722416,
-0.5,0,1,left,1,3,1,0,1,0,9,0,72,1,,,,,,,,,407.15690140000015,407.6572103000003,408.37483139999995,None,407.67408380000006,408.35814849999997,408.8754705000001,None,left,1,0.2987060999998903,408.8754705000001,None,None,407.67408380000006,408.8587914,0.5116776999998365,0.5948768999996901,1.7132370999997875,1.7969984999999724,,,,,nikita_1,001,2020_Feb_13_1306,posner,3.1.5,59.94025155722416,
-0.5,180,0,left,2,3,1,0,1,0,9,1,73,4,,,,,,,,,409.1937011,409.69338590000007,410.4108268,None,409.7097272000001,410.39425759999995,410.9115654000002,None,left,1,0.35063270000000557,410.9115654000002,None,None,409.7097272000001,410.8950328000001,0.511385600000267,0.5945733000003202,1.7130282000002808,1.7963719000003948,,,,,nikita_1,001,2020_Feb_13_1306,posner,3.1.5,59.94025155722416,
0.5,180,1,right,2,4,1,0,1,0,9,2,74,7,,,,,,,,,411.2793710000001,411.7793822000003,412.4972929999999,None,411.7961018000001,412.4804008000001,412.99773189999996,None,right,1,0.3203324999999495,412.99773189999996,None,None,411.7961018000001,412.9811603000003,0.5117208000001483,0.5952554000000418,1.713482699999986,1.797082699999919,,,,,nikita_1,001,2020_Feb_13_1306,posner,3.1.5,59.94025155722416,
0.5,0,0,right,1,4,1,0,1,0,9,3,75,3,,,,,,,,,413.3486704000002,413.8488967000003,414.56604990000005,None,413.86578899999995,414.5496865,415.0674936999999,None,right,1,0.34659590000001117,415.0674936999999,None,None,413.86578899999995,415.05062940000016,0.5115793999998459,0.5953162000000702,1.7132944999998472,1.7966695000000072,,,,,nikita_1,001,2020_Feb_13_1306,posner,3.1.5,59.94025155722416,
-0.5,0,1,left,1,3,1,0,1,0,9,4,76,2,,,,,,,,,415.43549170000006,415.9353612,416.65291160000015,None,415.95178540000006,416.6361978,417.15357410000024,None,left,1,0.29244070000004285,417.15357410000024,None,None,415.95178540000006,417.1367685,0.5114422999999988,0.594677000000047,1.7128358999998454,1.7962870999999723,,,,,nikita_1,001,2020_Feb_13_1306,posner,3.1.5,59.94025155722416,
0.5,180,1,right,2,4,1,0,1,0,9,5,77,5,,,,,,,,,417.47158290000016,417.97130030000017,418.68889190000027,None,417.9880791999999,418.67227950000006,419.18950940000013,None,right,1,0.2806221999999252,419.18950940000013,None,None,417.9880791999999,419.17316340000025,0.5111829000002217,0.5947011000002931,1.7130181000002267,1.7963049999998475,,,,,nikita_1,001,2020_Feb_13_1306,posner,3.1.5,59.94025155722416,
0.5,180,1,right,2,4,1,0,1,0,9,6,78,6,,,,,,,,,419.49071660000027,419.9905794000001,420.7082482999999,None,420.0074902000001,420.69166350000023,421.2089341000001,None,right,1,0.33317369999986113,421.2089341000001,None,None,420.0074902000001,421.19251250000025,0.5112231000002794,0.5948693000000276,1.713140199999998,1.796632800000225,,,,,nikita_1,001,2020_Feb_13_1306,posner,3.1.5,59.94025155722416,
-0.5,0,1,left,1,3,1,0,1,0,9,7,79,0,,,,,,,,,421.5606839000002,422.0601479000002,422.7779565000001,None,422.0772006000002,422.7612062000003,423.2786447000003,None,left,1,0.26342909999993935,423.2786447000003,None,None,422.0772006000002,423.2618612000001,0.511175699999967,0.594684000000143,1.7128726999999344,1.796452400000362,,,,,nikita_1,001,2020_Feb_13_1306,posner,3.1.5,59.94025155722416,
0.5,0,0,right,1,4,1,0,1,0,10,0,80,3,,,,,,,,,423.5636801999999,424.06294750000006,424.78071420000015,None,424.0797070000003,424.76393110000026,425.2813120999999,None,right,1,0.27670549999993455,425.2813120999999,None,None,424.0797070000003,425.2647084,0.5114415999996709,0.5949077999998735,1.7129273000000467,1.7962671999998747,,,,,nikita_1,001,2020_Feb_13_1306,posner,3.1.5,59.94025155722416,
0.5,180,1,right,2,4,1,0,1,0,10,1,81,5,,,,,,,,,425.58272000000034,426.0823491000001,426.80007909999995,None,426.0991191000003,426.7835347,427.30078249999997,None,right,1,0.3372194000003219,427.30078249999997,None,None,426.0991191000003,427.28413880000016,0.5115642999999181,0.5949762999998711,1.7133135999997648,1.796733900000163,,,,,nikita_1,001,2020_Feb_13_1306,posner,3.1.5,59.94025155722416,
-0.5,0,1,left,1,3,1,0,1,0,10,2,82,0,,,,,,,,,427.66849490000004,428.1685586000003,428.8864103000001,None,428.1852871000001,428.8695321,429.387033,None,left,1,0.21898899999996502,429.387033,None,None,428.1852871000001,429.37020970000003,0.5115654000001086,0.5950769999999466,1.7131937000003745,1.7967031000002862,,,,,nikita_1,001,2020_Feb_13_1306,posner,3.1.5,59.94025155722416,
-0.5,0,1,left,1,3,1,0,1,0,10,3,83,1,,,,,,,,,429.63806909999994,430.1380398000001,430.8557629000002,None,430.1547700000001,430.83884209999997,431.35632910000004,None,left,1,0.32154979999995703,431.35632910000004,None,None,430.1547700000001,431.3395568000001,0.5115492999998423,0.5948865999998816,1.713046999999733,1.7965445999998337,,,,,nikita_1,001,2020_Feb_13_1306,posner,3.1.5,59.94025155722416,
0.5,180,1,right,2,4,1,0,1,0,10,4,84,6,,,,,,,,,431.7073389000002,432.2075875999999,432.92522670000017,None,432.22423590000017,432.90864790000023,433.4258877000002,None,right,1,0.23610659999985728,433.4258877000002,None,None,432.22423590000017,433.4090271,0.5114319999997861,0.5946905000000697,1.7128569000001335,1.7964724999997088,,,,,nikita_1,001,2020_Feb_13_1306,posner,3.1.5,59.94025155722416,
-0.5,0,1,left,1,3,1,0,1,0,10,5,85,2,,,,,,,,,433.6935738000002,434.1936332,434.91122429999996,None,434.21026660000007,434.89461600000004,435.4118133000002,None,left,1,0.18619679999983418,435.4118133000002,None,None,434.21026660000007,435.3952205999999,0.511761000000206,0.5952781999999388,1.71332829999983,1.7966394999998556,,,,,nikita_1,001,2020_Feb_13_1306,posner,3.1.5,59.94025155722416,
-0.5,180,0,left,2,3,1,0,1,0,10,6,86,4,,,,,,,,,435.62933980000025,436.1294557000001,436.84739820000004,None,436.14647220000006,436.8304102000002,437.3480098,None,left,1,0.3300057999999808,437.3480098,None,None,436.14647220000006,437.3312159000002,0.5115688000000773,0.5951249999998254,1.7133192999999665,1.7968845999998848,,,,,nikita_1,001,2020_Feb_13_1306,posner,3.1.5,59.94025155722416,
0.5,180,1,right,2,4,1,0,1,0,10,7,87,7,,,,,,,,,437.6993473000002,438.19929189999993,438.9167689000001,None,438.21582639999997,438.90011129999993,439.4175905000002,None,right,1,0.22856940000019677,439.4175905000002,None,None,438.21582639999997,439.40070259999993,0.5118147000002864,0.5953027000000475,1.713209800000186,1.7967756000002737,,,,,nikita_1,001,2020_Feb_13_1306,posner,3.1.5,59.94025155722416,
,,,,,,1,0,1,0,,,,,,,,,,,,,,,,,,,,,,,,,,,,,,,,,439.6682694000001,None,1.5699999948992627e-05,0.9957437000002756,nikita_1,001,2020_Feb_13_1306,posner,3.1.5,59.94025155722416,
-0.5,0,1,left,1,3,2,0,2,0,0,0,0,2,1.1699999959091656e-05,0.09768439999970724,500.6850411999999,None,1.4700000065204222e-05,0.0976872999999614,502.7878897999999,None,503.4467088000001,503.9562612,504.6571506,None,503.9562612,504.6571506,505.15787880000016,None,left,1,0.32766739999988204,505.15787880000016,None,None,503.9562612,505.14107330000024,0.5024835999997777,0.6026839000001019,1.7041868999999679,1.7877537999997912,,,,,nikita_1,001,2020_Feb_13_1306,posner,3.1.5,59.94025155722416,
-0.5,180,0,left,2,3,2,0,2,0,0,1,1,4,,,,,,,,,505.51008219999994,506.00902640000004,506.7267479000002,None,506.02572280000004,506.70983220000016,507.2273872999999,None,left,1,0.2742550999996638,507.2273872999999,None,None,506.02572280000004,507.21054559999993,0.5105733999998847,0.5940599000000475,1.712080799999967,1.795700399999987,,,,,nikita_1,001,2020_Feb_13_1306,posner,3.1.5,59.94025155722416,
-0.5,0,1,left,1,3,2,0,2,0,0,2,2,0,,,,,,,,,507.52852269999994,508.0283564000001,508.74641010000005,None,508.04524459999993,508.72936690000006,509.24674700000014,None,left,1,0.2708141000002797,509.24674700000014,None,None,508.04524459999993,509.23001030000023,0.5116589999997814,0.5953833999997187,1.7132840999997825,1.7968399999999747,,,,,nikita_1,001,2020_Feb_13_1306,posner,3.1.5,59.94025155722416,
0.5,0,0,right,1,4,2,0,2,0,0,3,3,3,,,,,,,,,509.5474451,510.04800939999996,510.7656863000002,None,510.06466950000004,510.74896880000006,511.26625680000006,None,right,1,0.3312794000003123,511.26625680000006,None,None,510.06466950000004,511.24951520000013,0.5121506000000409,0.5953164000002289,1.7136442000000898,1.7970672000001287,,,,,nikita_1,001,2020_Feb_13_1306,posner,3.1.5,59.94025155722416,
0.5,180,1,right,2,4,2,0,2,0,0,4,4,7,,,,,,,,,511.6175664000002,512.1174324000003,512.8352070999999,None,512.1341539,512.8184461000001,513.3357285000002,None,right,1,0.30178620000015144,513.3357285000002,None,None,512.1341539,513.3189537000003,0.5116917999998805,0.5949746999999661,1.7131546000000526,1.7967672999998285,,,,,nikita_1,001,2020_Feb_13_1306,posner,3.1.5,59.94025155722416,
-0.5,0,1,left,1,3,2,0,2,0,0,5,5,1,,,,,,,,,513.6536874000003,514.1536324000003,514.8712453000003,None,514.170153,514.8544476000002,515.3718383999999,None,left,1,0.3137993999998798,515.3718383999999,None,None,514.170153,515.3552087000003,0.5116696000000047,0.5949814999999035,1.7132329000000937,1.7965240000003178,,,,,nikita_1,001,2020_Feb_13_1306,posner,3.1.5,59.94025155722416,
0.5,180,1,right,2,4,2,0,2,0,0,6,6,5,,,,,,,,,515.7065396000003,516.2063238000001,516.9240746999999,None,516.2230079000001,516.9073054,517.4248295000002,None,right,1,0.24483229999987088,517.4248295000002,None,None,516.2230079000001,517.4081879,0.5114920000000893,0.5949113000001489,1.7133393000003707,1.796492599999965,,,,,nikita_1,001,2020_Feb_13_1306,posner,3.1.5,59.94025155722416,
0.5,180,1,right,2,4,2,0,2,0,0,7,7,6,,,,,,,,,517.6926692000002,518.1925154999999,518.9100603000002,None,518.2088561,518.8933529000001,519.4109725000003,None,right,1,0.27455909999980577,519.4109725000003,None,None,518.2088561,519.3938800999999,0.5117271999997683,0.5952337999997326,1.7130729999998948,1.7964701000000787,,,,,nikita_1,001,2020_Feb_13_1306,posner,3.1.5,59.94025155722416,
-0.5,180,0,left,2,3,2,0,2,0,1,0,8,4,,,,,,,,,519.7118577000001,520.2121018000003,520.9294073000001,None,520.2285214000003,520.9128218999999,521.4301711000003,None,left,1,0.2713103000000956,521.4301711000003,None,None,520.2285214000003,521.4136524,0.5119085999999697,0.5952677000000222,1.713437299999896,1.7967540999998164,,,,,nikita_1,001,2020_Feb_13_1306,posner,3.1.5,59.94025155722416,
-0.5,0,1,left,1,3,2,0,2,0,1,1,9,1,,,,,,,,,521.7309981000003,522.2312473000002,522.9489140000001,None,522.248047,522.9327536999999,523.4496475999999,None,left,1,0.3079054999998334,523.4496475999999,None,None,522.248047,523.4330077,0.5115605999999389,0.5951027999999496,1.7132986000001438,1.7968442999999752,,,,,nikita_1,001,2020_Feb_13_1306,posner,3.1.5,59.94025155722416,
0.5,180,1,right,2,4,2,0,2,0,1,2,10,7,,,,,,,,,523.7843172000003,524.2841389,525.0018647000002,None,524.3007924000003,524.9850319000002,525.5027288000001,None,right,1,0.27881040000011126,525.5027288000001,None,None,524.3007924000003,525.4858503999999,0.511395900000025,0.5947390999999698,1.7130954999997812,1.7963408999999047,,,,,nikita_1,001,2020_Feb_13_1306,posner,3.1.5,59.94025155722416,
-0.5,0,1,left,1,3,2,0,2,0,1,3,11,0,,,,,,,,,525.8038421000001,526.3036039000003,527.0211189000001,None,526.3200956999999,527.004641,527.5220158000002,None,left,1,0.26746749999983876,527.5220158000002,None,None,526.3200956999999,527.5052651000001,0.5114604000000327,0.5949511999997412,1.713106499999867,1.7961763999996947,,,,,nikita_1,001,2020_Feb_13_1306,posner,3.1.5,59.94025155722416,
-0.5,0,1,left,1,3,2,0,2,0,1,4,12,2,,,,,,,,,527.8063418000002,528.3065068000001,529.0239132000002,None,528.3230391000002,529.0073508,529.5247863,None,left,1,0.31267790000038076,529.5247863,None,None,528.3230391000002,529.5080637000001,0.5117236000000958,0.5948752000003878,1.7132692000000134,1.7965864000002512,,,,,nikita_1,001,2020_Feb_13_1306,posner,3.1.5,59.94025155722416,
0.5,180,1,right,2,4,2,0,2,0,1,5,13,5,,,,,,,,,529.8588,530.3590158000002,531.0769694,None,530.3756622000001,531.0601231999999,531.5775984000002,None,right,1,0.2278862000002846,531.5775984000002,None,None,530.3756622000001,531.5607867000003,0.5116352000000006,0.5951666999999361,1.7133869999997842,1.7969766000001073,,,,,nikita_1,001,2020_Feb_13_1306,posner,3.1.5,59.94025155722416,
0.5,180,1,right,2,4,2,0,2,0,1,6,14,6,,,,,,,,,531.8283706000002,532.3286590000002,533.0461597000003,None,532.3453783,533.0294036,533.5469307000003,None,left,0,0.21057479999990392,533.5469307000003,None,None,532.3453783,533.5301643000003,0.5117998999999145,0.5950267999996868,1.7132945999996991,1.7968536999997013,,,,,nikita_1,001,2020_Feb_13_1306,posner,3.1.5,59.94025155722416,
0.5,0,0,right,1,4,2,0,2,0,1,7,15,3,,,,,,,,,533.7818560000001,534.2811129000002,534.9988887,None,534.2979519999999,534.9823473000001,535.4994996,None,right,1,0.32221249999975043,535.4994996,None,None,534.2979519999999,535.4831155000002,0.511130399999729,0.5945915999996032,1.7131137999999737,1.7963898999996673,,,,,nikita_1,001,2020_Feb_13_1306,posner,3.1.5,59.94025155722416,
-0.5,0,1,left,1,3,2,0,2,0,2,0,16,1,,,,,,,,,535.8505915999999,536.3506955000003,537.0682535999999,None,536.3675618000002,537.0515866000001,537.5689935,None,left,1,0.3084546000000046,537.5689935,None,None,536.3675618000002,537.5523863000003,0.5117282000001069,0.5952824999999393,1.7133977000003142,1.7968711000003168,,,,,nikita_1,001,2020_Feb_13_1306,posner,3.1.5,59.94025155722416,
0.5,180,1,right,2,4,2,0,2,0,2,1,17,5,,,,,,,,,537.9036214000002,538.4035263000001,539.1211767,None,538.4201582000001,539.1046455000001,539.6218683000002,None,right,1,0.24761669999998048,539.6218683000002,None,None,538.4201582000001,539.6052113999999,0.5115407000002961,0.5949890000001687,1.7132125000002816,1.7965863000003992,,,,,nikita_1,001,2020_Feb_13_1306,posner,3.1.5,59.94025155722416,
-0.5,180,0,left,2,3,2,0,2,0,2,2,18,4,,,,,,,,,539.8897596000002,540.3896472000001,541.1072434000002,None,540.4063406,541.0905886,541.6078801000003,None,left,1,0.2935714000000189,541.6078801000003,None,None,540.4063406,541.5910945,0.5114409000002524,0.5948116999998092,1.712869800000135,1.7963679999998021,,,,,nikita_1,001,2020_Feb_13_1306,posner,3.1.5,59.94025155722416,
0.5,180,1,right,2,4,2,0,2,0,2,3,19,6,,,,,,,,,541.9257729000001,542.4257659,543.1433856000003,None,542.4424214999999,543.1268635000001,543.6442705,None,right,1,0.281167799999821,543.6442705,None,None,542.4424214999999,543.6272993000002,0.511081699999977,0.5944778999996743,1.7126077999996596,1.7960767999998097,,,,,nikita_1,001,2020_Feb_13_1306,posner,3.1.5,59.94025155722416,
0.5,180,1,right,2,4,2,0,2,0,2,4,20,7,,,,,,,,,543.945424,544.4452985000003,545.1626968,None,544.4618709000001,545.1462179,545.6636298000003,None,right,1,0.3097906999996667,545.6636298000003,None,None,544.4618709000001,545.6470445,0.5109238999998524,0.5940854999998919,1.712653600000067,1.795909699999811,,,,,nikita_1,001,2020_Feb_13_1306,posner,3.1.5,59.94025155722416,
0.5,0,0,right,1,4,2,0,2,0,2,5,21,3,,,,,,,,,545.9980752000001,546.4980094000002,547.2159471,None,546.5146855000003,547.1990373000003,547.7164110000003,None,right,1,0.32897419999972044,547.7164110000003,None,None,546.5146855000003,547.6996309000001,0.5115336000003481,0.5949086000000534,1.713140900000326,1.7967207000001508,,,,,nikita_1,001,2020_Feb_13_1306,posner,3.1.5,59.94025155722416,
-0.5,0,1,left,1,3,2,0,2,0,2,6,22,2,,,,,,,,,548.0675442000002,548.5676272999999,549.2851126,None,548.5842327,549.2682886000002,549.7859782999999,None,left,1,0.3395405999999639,549.7859782999999,None,None,548.5842327,549.7691067000001,0.5115863999999419,0.5950136000001294,1.7130575999999564,1.796816999999919,,,,,nikita_1,001,2020_Feb_13_1306,posner,3.1.5,59.94025155722416,
-0.5,0,1,left,1,3,2,0,2,0,2,7,23,0,,,,,,,,,550.1538856000002,550.6538166,551.3713874,None,550.6703456,551.3546765000001,551.8720358,None,left,1,0.32538670000030834,551.8720358,None,None,550.6703456,551.8553050999999,0.5117786999999225,0.5951415999998062,1.713258499999938,1.7965300000000752,,,,,nikita_1,001,2020_Feb_13_1306,posner,3.1.5,59.94025155722416,
0.5,180,1,right,2,4,2,0,2,0,3,0,24,5,,,,,,,,,552.2232421000003,552.7231072,553.4408073,None,552.7398129000003,553.4242456000002,553.9415696000001,None,right,1,0.24004909999985102,553.9415696000001,None,None,552.7398129000003,553.9248766999999,0.51151260000006,0.5951132999998663,1.7132587999999487,1.796637400000236,,,,,nikita_1,001,2020_Feb_13_1306,posner,3.1.5,59.94025155722416,
0.5,0,0,right,1,4,2,0,2,0,3,1,25,3,,,,,,,,,554.2086320000003,554.7091657000001,555.4268195,None,554.7260537000002,555.4101095999999,555.9277619,None,right,1,0.3657887000003939,555.9277619,None,None,554.7260537000002,555.9108772,0.5120062000000871,0.5955883999999969,1.7137026000000333,1.7972353000000112,,,,,nikita_1,001,2020_Feb_13_1306,posner,3.1.5,59.94025155722416,
-0.5,0,1,left,1,3,2,0,2,0,3,2,26,0,,,,,,,,,556.3127090000003,556.8122507000003,557.5298863000003,None,556.8288492000001,557.5132177,558.030397,None,left,1,0.29488519999995333,558.030397,None,None,556.8288492000001,558.0138956999999,0.5113712000002124,0.5948837000000822,1.7129903000000013,1.7961698000003707,,,,,nikita_1,001,2020_Feb_13_1306,posner,3.1.5,59.94025155722416,
0.5,180,1,right,2,4,2,0,2,0,3,3,27,7,,,,,,,,,558.3484927,558.8482678,559.5661298,None,558.8650481,559.5493058000002,560.0667478,None,right,1,0.3147913000002518,560.0667478,None,None,558.8650481,560.0499319999999,0.5115606999997908,0.5949187999999594,1.7132111999999324,1.7967853999998624,,,,,nikita_1,001,2020_Feb_13_1306,posner,3.1.5,59.94025155722416,
-0.5,0,1,left,1,3,2,0,2,0,3,4,28,1,,,,,,,,,560.4012190000003,560.9009780000001,561.6187859000001,None,560.9178817000002,561.6020404000001,562.1193602000003,None,left,1,0.23792850000018007,562.1193602000003,None,None,560.9178817000002,562.1028897000001,0.5114266999999018,0.5951371999999537,1.7133195000001251,1.7966496999997617,,,,,nikita_1,001,2020_Feb_13_1306,posner,3.1.5,59.94025155722416,
-0.5,0,1,left,1,3,2,0,2,0,3,5,29,2,,,,,,,,,562.3868148000001,562.8873206000003,563.6049628000001,None,562.9039809000001,563.5880810000003,564.1057166999999,None,left,1,0.33973159999959535,564.1057166999999,None,None,562.9039809000001,564.0889006000002,0.5119521000001441,0.5953702000001613,1.7135159000004023,1.7969090000001415,,,,,nikita_1,001,2020_Feb_13_1306,posner,3.1.5,59.94025155722416,
0.5,180,1,right,2,4,2,0,2,0,3,6,30,6,,,,,,,,,564.4736435,564.9733656000003,565.6910107000003,None,564.9900877,565.6744601,566.1916383000002,None,right,1,0.28568889999996827,566.1916383000002,None,None,564.9900877,566.1749663,0.5114722000002985,0.5949904000003698,1.7130606000000625,1.7964648000001944,,,,,nikita_1,001,2020_Feb_13_1306,posner,3.1.5,59.94025155722416,
-0.5,180,0,left,2,3,2,0,2,0,3,7,31,4,,,,,,,,,566.4931226000003,566.992992,567.7104300000001,None,567.0094367000002,567.6937435,568.2111869,None,left,1,0.3461185999999543,568.2111869,None,None,567.0094367000002,568.1945427,0.5117468999997072,0.5950023000000328,1.7132805999999619,1.796813999999813,,,,,nikita_1,001,2020_Feb_13_1306,posner,3.1.5,59.94025155722416,
-0.5,0,1,left,1,3,2,0,2,0,4,0,32,2,,,,,,,,,568.5789549000001,569.0789680000003,569.7967979,None,569.0956215000001,569.7799903,570.2975713999999,None,left,1,0.25976600000012695,570.2975713999999,None,None,569.0956215000001,570.2805993000002,0.5116585000000669,0.5951678999999785,1.7133225000002312,1.796851400000378,,,,,nikita_1,001,2020_Feb_13_1306,posner,3.1.5,59.94025155722416,
-0.5,0,1,left,1,3,2,0,2,0,4,1,33,1,,,,,,,,,570.5816646000003,571.0820192000001,571.7994747000002,None,571.0984385000002,571.7828959000003,572.3000374000003,None,left,1,0.32128259999990405,572.3000374000003,None,None,571.0984385000002,572.2834673000002,0.5118275999998332,0.5950854000002437,1.7132633000001078,1.7967751000001044,,,,,nikita_1,001,2020_Feb_13_1306,posner,3.1.5,59.94025155722416,
0.5,0,0,right,1,4,2,0,2,0,4,2,34,3,,,,,,,,,572.6513180000002,573.1511562000001,573.8688617000003,None,573.1680635000002,573.8522216000001,574.3695216000001,None,right,1,0.25172810000003665,574.3695216000001,None,None,573.1680635000002,574.3531088,0.5115664999998444,0.5951414000001023,1.7134875000001557,1.7967803999999887,,,,,nikita_1,001,2020_Feb_13_1306,posner,3.1.5,59.94025155722416,
0.5,180,1,right,2,4,2,0,2,0,4,3,35,6,,,,,,,,,574.6374570000003,575.1374633999999,575.8550699000002,None,575.1541230000003,575.8382611000002,576.3559377000001,None,right,1,0.2894544999999198,576.3559377000001,None,None,575.1541230000003,576.3390164000002,0.5118870000001152,0.5950639000002411,1.7134224999999788,1.7968915000001289,,,,,nikita_1,001,2020_Feb_13_1306,posner,3.1.5,59.94025155722416,
-0.5,180,0,left,2,3,2,0,2,0,4,4,36,4,,,,,,,,,576.6734899000003,577.1735466,577.8911316000003,None,577.1900639,577.8744433000002,578.3918121000002,None,left,1,0.2773362999996607,578.3918121000002,None,None,577.1900639,578.3751667000001,0.5116296999999577,0.5950462999999218,1.7132286000000931,1.796492599999965,,,,,nikita_1,001,2020_Feb_13_1306,posner,3.1.5,59.94025155722416,
-0.5,0,1,left,1,3,2,0,2,0,4,5,37,0,,,,,,,,,578.6929613000002,579.1928969999999,579.9104817000002,None,579.2095585000002,579.8939976000001,580.4112556,None,left,1,0.32222790000014356,580.4112556,None,None,579.2095585000002,580.3945259000002,0.5114724000000024,0.5950027999997474,1.7130809000000227,1.7967481999999109,,,,,nikita_1,001,2020_Feb_13_1306,posner,3.1.5,59.94025155722416,
0.5,180,1,right,2,4,2,0,2,0,4,6,38,7,,,,,,,,,580.7627169000002,581.2626992999999,581.9800043,None,581.2790792000001,581.9634406,582.4808748,None,right,1,0.3005143999998836,582.4808748,None,None,581.2790792000001,582.4641633000001,0.5118547000001854,0.5953051999999843,1.7132985000002918,1.796587400000135,,,,,nikita_1,001,2020_Feb_13_1306,posner,3.1.5,59.94025155722416,
0.5,180,1,right,2,4,2,0,2,0,4,7,39,5,,,,,,,,,582.7984750999999,583.2985586,584.0161956000002,None,583.3151660000003,583.9994905000003,584.5171740000001,None,right,1,0.34404399999993984,584.5171740000001,None,None,583.3151660000003,584.5002334999999,0.5116450000000441,0.5953034999997726,1.7133051000000705,1.7969326000002184,,,,,nikita_1,001,2020_Feb_13_1306,posner,3.1.5,59.94025155722416,
-0.5,0,1,left,1,3,2,0,2,0,5,0,40,1,,,,,,,,,584.8848290000001,585.3847765999999,586.1025303000001,None,585.4014372000001,586.0857289,586.6032315000002,None,left,1,0.23418850000007296,586.6032315000002,None,None,585.4014372000001,586.5863612000003,0.5113657000001695,0.5951387000000068,1.7129313000000366,1.7963705000001937,,,,,nikita_1,001,2020_Feb_13_1306,posner,3.1.5,59.94025155722416,
-0.5,0,1,left,1,3,2,0,2,0,5,1,41,0,,,,,,,,,586.8543539000002,587.3541150000001,588.0717905000001,None,587.3707862000001,588.0551370000003,588.5725729999999,None,left,1,0.3046481000001222,588.5725729999999,None,None,587.3707862000001,588.5558273000001,0.5112324000001536,0.5949126999998953,1.7129337000001215,1.7963168999999652,,,,,nikita_1,001,2020_Feb_13_1306,posner,3.1.5,59.94025155722416,
0.5,180,1,right,2,4,2,0,2,0,5,2,42,6,,,,,,,,,588.9062938000002,589.4070488000002,590.1247461000003,None,589.4236367000003,590.1080804000003,590.6254378000003,None,right,1,0.2998712000003252,590.6254378000003,None,None,589.4236367000003,590.6085393000003,0.5124802999998792,0.595770899999934,1.7139594000000216,1.7974733999999444,,,,,nikita_1,001,2020_Feb_13_1306,posner,3.1.5,59.94025155722416,
0.5,0,0,right,1,4,2,0,2,0,5,3,43,3,,,,,,,,,590.9432919000001,591.4432334000003,592.1606078,None,591.4597681,592.1440705,592.6616876000003,None,right,1,0.35151089999999385,592.6616876000003,None,None,591.4597681,592.6447631000001,0.5115835999999945,0.594886299999871,1.7130984999998873,1.7965371999998752,,,,,nikita_1,001,2020_Feb_13_1306,posner,3.1.5,59.94025155722416,
-0.5,0,1,left,1,3,2,0,2,0,5,4,44,2,,,,,,,,,593.0285196,593.5293429000003,594.2468931000003,None,593.5462814000002,594.2302715000001,594.7478369999999,None,left,1,0.28959889999987354,594.7478369999999,None,None,593.5462814000002,594.7310095000003,0.5122943000001214,0.5959128999998029,1.7139483999999356,1.7973108999999567,,,,,nikita_1,001,2020_Feb_13_1306,posner,3.1.5,59.94025155722416,
0.5,180,1,right,2,4,2,0,2,0,5,5,45,7,,,,,,,,,595.0655386000003,595.5655471,596.2832698000002,None,595.5822685000003,596.2665185999999,596.7837447000002,None,right,1,0.301453500000207,596.7837447000002,None,None,595.5822685000003,596.7672441,0.5116853999998057,0.5949955000000955,1.7133647999999084,1.7966696999997112,,,,,nikita_1,001,2020_Feb_13_1306,posner,3.1.5,59.94025155722416,
0.5,180,1,right,2,4,2,0,2,0,5,6,46,5,,,,,,,,,597.1016696000002,597.6018551000002,598.3191134000003,None,597.6181808000001,598.3029268,598.819806,None,right,1,0.3293538000002627,598.819806,None,None,597.6181808000001,598.8034766000001,0.511919399999897,0.5949838999999884,1.7135250999999698,1.7969351000001552,,,,,nikita_1,001,2020_Feb_13_1306,posner,3.1.5,59.94025155722416,
-0.5,180,0,left,2,3,2,0,2,0,5,7,47,4,,,,,,,,,599.1703127999999,599.6710855000001,600.3887259000003,None,599.6878505,600.3722569000001,600.8894281000003,None,left,1,0.29173179999997956,600.8894281000003,None,None,599.6878505,600.8728559000001,0.5119510999998056,0.5955008000000817,1.7137010999999802,1.7971076999997422,,,,,nikita_1,001,2020_Feb_13_1306,posner,3.1.5,59.94025155722416,
0.5,180,1,right,2,4,2,0,2,0,6,0,48,7,,,,,,,,,601.2070894000003,601.7072033,602.424962,None,601.7240127,602.4082360000002,602.9256110000001,None,right,1,0.28753690000030474,602.9256110000001,None,None,601.7240127,602.9088413,0.51170140000022,0.5949962999998206,1.7133231000002525,1.7967956000002232,,,,,nikita_1,001,2020_Feb_13_1306,posner,3.1.5,59.94025155722416,
-0.5,0,1,left,1,3,2,0,2,0,6,1,49,1,,,,,,,,,603.2434197000002,603.7434754999999,604.4610013000001,None,603.7598160000002,604.4443270000002,604.9618051000002,None,left,1,0.25933260000010705,604.9618051000002,None,None,603.7598160000002,604.9453038000001,0.5117713999998159,0.5951835999999275,1.713578399999733,1.7966999000000214,,,,,nikita_1,001,2020_Feb_13_1306,posner,3.1.5,59.94025155722416,
0.5,0,0,right,1,4,2,0,2,0,6,2,50,3,,,,,,,,,605.2457761999999,605.7463806000001,606.4637935999999,None,605.7627070000003,606.4471852000001,606.9646270000003,None,right,1,0.40852600000016537,606.9646270000003,None,None,605.7627070000003,606.9477738999999,0.5119353999998566,0.5952308000000812,1.7133116999998492,1.7968673999998828,,,,,nikita_1,001,2020_Feb_13_1306,posner,3.1.5,59.94025155722416,
-0.5,0,1,left,1,3,2,0,2,0,6,3,51,2,,,,,,,,,607.3985712000003,607.8992318999999,608.6168038999999,None,607.9157439,608.600007,609.1174152000003,None,left,1,0.2638297000003149,609.1174152000003,None,None,607.9157439,609.1006792000003,0.5123752999998032,0.5956280000000334,1.7138004999997065,1.7975013999998737,,,,,nikita_1,001,2020_Feb_13_1306,posner,3.1.5,59.94025155722416,
0.5,180,1,right,2,4,2,0,2,0,6,4,52,5,,,,,,,,,609.4017438999999,609.902032,610.6193447,None,609.9185388000001,610.6029410000001,611.1200295000003,None,right,1,0.24512800000002244,611.1200295000003,None,None,609.9185388000001,611.1033742,0.5118152999998529,0.5951151999997819,1.7131497000000309,1.7968495000000075,,,,,nikita_1,001,2020_Feb_13_1306,posner,3.1.5,59.94025155722416,
0.5,180,1,right,2,4,2,0,2,0,6,5,53,6,,,,,,,,,611.3878141,611.8879781,612.6055074000001,None,611.9045974000001,612.5888067000001,613.1062667000001,None,right,1,0.3068996000001789,613.1062667000001,None,None,611.9045974000001,613.0894192000001,0.5116603000001305,0.5953011999999944,1.7130878000002667,1.7967671999999766,,,,,nikita_1,001,2020_Feb_13_1306,posner,3.1.5,59.94025155722416,
-0.5,180,0,left,2,3,2,0,2,0,6,6,54,4,,,,,,,,,613.4407952000001,613.9406581000003,614.6583608999999,None,613.9575315000002,614.6417469000003,615.1590781,None,left,1,0.25401130000000194,615.1590781,None,None,613.9575315000002,615.1423976000001,0.5115120999998908,0.5949808999998822,1.7132313999995858,1.796518599999672,,,,,nikita_1,001,2020_Feb_13_1306,posner,3.1.5,59.94025155722416,
-0.5,0,1,left,1,3,2,0,2,0,6,7,55,0,,,,,,,,,615.4434402000002,615.9435115000001,616.6610860999999,None,615.9601229,616.6444937000001,617.1618873000002,None,left,1,0.3311526000002232,617.1618873000002,None,None,615.9601229,617.1450445,0.5115363999998408,0.5949603999997635,1.7130505999998604,1.7965334999998959,,,,,nikita_1,001,2020_Feb_13_1306,posner,3.1.5,59.94025155722416,
-0.5,0,1,left,1,3,2,0,2,0,7,0,56,0,,,,,,,,,617.5131716000001,618.012823,618.7306388000002,None,618.0296566000002,618.7141457000002,619.2313192000001,None,left,1,0.2779136999997718,619.2313192000001,None,None,618.0296566000002,619.2147838000001,0.5111585999998169,0.5949090999997679,1.7130997999997817,1.796330300000136,,,,,nikita_1,001,2020_Feb_13_1306,posner,3.1.5,59.94025155722416,
0.5,180,1,right,2,4,2,0,2,0,7,1,57,7,,,,,,,,,619.5326481000002,620.0323274000002,620.7501775000001,None,620.0490640000003,620.7336101000001,621.2505770000002,None,right,1,0.3785010000001421,621.2505770000002,None,None,620.0490640000003,621.2340881,0.5112221999997928,0.5947437999998328,1.7129697000000306,1.7965144999998302,,,,,nikita_1,001,2020_Feb_13_1306,posner,3.1.5,59.94025155722416,
0.5,180,1,right,2,4,2,0,2,0,7,2,58,6,,,,,,,,,621.6521109,622.1522652000003,622.8696786999999,None,622.1685236000003,622.8530368000002,623.3703122000002,None,right,1,0.3388852999996743,623.3703122000002,None,None,622.1685236000003,623.3536778000002,0.5116652000001523,0.5949051000002328,1.7130709000002753,1.7964819000003445,,,,,nikita_1,001,2020_Feb_13_1306,posner,3.1.5,59.94025155722416,
-0.5,180,0,left,2,3,2,0,2,0,7,3,59,4,,,,,,,,,623.7381573000002,624.2380418000002,624.9558468,None,624.2547444000002,624.9390564,625.4565398,None,left,1,0.23650799999995797,625.4565398,None,None,624.2547444000002,625.4397205,0.5115857999999207,0.5954948999997214,1.7132506999996622,1.7968229999996765,,,,,nikita_1,001,2020_Feb_13_1306,posner,3.1.5,59.94025155722416,
0.5,180,1,right,2,4,2,0,2,0,7,4,60,5,,,,,,,,,625.7242667,626.2243163000003,626.9419613,None,626.2409339999999,626.9250473000002,627.4426988,None,right,1,0.4023202000003039,627.4426988,None,None,626.2409339999999,627.4260694,0.5115144000001237,0.5950926999998956,1.7132520000000113,1.7964904999998907,,,,,nikita_1,001,2020_Feb_13_1306,posner,3.1.5,59.94025155722416,
0.5,0,0,right,1,4,2,0,2,0,7,5,61,3,,,,,,,,,627.8768441000002,628.3772554000002,629.0948549,None,628.3940502999999,629.0780491,629.5956183000003,None,right,1,0.32135669999979655,629.5956183000003,None,None,628.3940502999999,629.5788625,0.5117747999997846,0.5951488999999128,1.713367500000004,1.7968046000000868,,,,,nikita_1,001,2020_Feb_13_1306,posner,3.1.5,59.94025155722416,
-0.5,0,1,left,1,3,2,0,2,0,7,6,62,2,,,,,,,,,629.9464247000001,630.4468110000003,631.1644283,None,630.4634107000002,631.1478513000002,631.6652398000001,None,left,1,0.25980269999990924,631.6652398000001,None,None,630.4634107000002,631.6484118000003,0.5117850999999973,0.5951897999998437,1.7133699000000888,1.7967898000001696,,,,,nikita_1,001,2020_Feb_13_1306,posner,3.1.5,59.94025155722416,
-0.5,0,1,left,1,3,2,0,2,0,7,7,63,1,,,,,,,,,631.9487282,632.4495286000001,633.1671371000002,None,632.4666451000003,633.1504408999999,633.6678872000002,None,right,0,0.2172947999997632,633.6678872000002,None,None,632.4666451000003,633.6509871000003,0.5120661000000837,0.5955020000001241,1.7135065000002214,1.7970943000000261,,,,,nikita_1,001,2020_Feb_13_1306,posner,3.1.5,59.94025155722416,
0.5,0,0,right,1,4,2,0,2,0,8,0,64,3,,,,,,,,,633.9025108999999,634.4024423999999,635.1196383000001,None,634.4188192000001,635.1033710000002,635.6205129,None,right,1,0.3525230999998712,635.6205129,None,None,634.4188192000001,635.6037447000003,0.511923100000331,0.5952107000002798,1.7132280999999239,1.796873300000243,,,,,nikita_1,001,2020_Feb_13_1306,posner,3.1.5,59.94025155722416,
0.5,180,1,right,2,4,2,0,2,0,8,1,65,5,,,,,,,,,635.988437,636.4881948000002,637.2061632,None,636.504985,637.1893638000001,637.7068251999999,None,right,1,0.3142854000002444,637.7068251999999,None,None,636.504985,637.6899819,0.5113234999998895,0.5949792000001253,1.7130966999998236,1.7966249000000971,,,,,nikita_1,001,2020_Feb_13_1306,posner,3.1.5,59.94025155722416,
-0.5,0,1,left,1,3,2,0,2,0,8,2,66,2,,,,,,,,,638.0414672000002,638.5414241000003,639.2588876,None,638.5577683000001,639.2419757000002,639.7594042000001,None,left,1,0.2774245000000519,639.7594042000001,None,None,638.5577683000001,639.7427812000001,0.5116327999999157,0.5949540999999954,1.7129721999999674,1.7961280999998053,,,,,nikita_1,001,2020_Feb_13_1306,posner,3.1.5,59.94025155722416,
-0.5,0,1,left,1,3,2,0,2,0,8,3,67,0,,,,,,,,,640.0599837,640.5605315000003,641.2781306000002,None,640.5774481000003,641.2615873,641.7789240000002,None,left,1,0.3300779999999577,641.7789240000002,None,None,640.5774481000003,641.7623745000001,0.5123776000000362,0.5959293999999318,1.7141971999999441,1.7978776999998445,,,,,nikita_1,001,2020_Feb_13_1306,posner,3.1.5,59.94025155722416,
-0.5,180,0,left,2,3,2,0,2,0,8,4,68,4,,,,,,,,,642.1303591999999,642.6300819000003,643.3478862000002,None,642.6467855000001,643.3311213000002,643.8484669,None,left,1,0.3325681999999688,643.8484669,None,None,642.6467855000001,643.8318546,0.5114657000003717,0.594958200000292,1.7132147000002078,1.7966779000003044,,,,,nikita_1,001,2020_Feb_13_1306,posner,3.1.5,59.94025155722416,
0.5,180,1,right,2,4,2,0,2,0,8,5,69,6,,,,,,,,,644.1990888,644.6996558000001,645.4173922,None,644.7165043,645.4005662,645.9179924,None,right,1,0.2950307999999495,645.9179924,None,None,644.7165043,645.9014666000003,0.5122575999998844,0.5957902000000104,1.7140645999998014,1.797473699999955,,,,,nikita_1,001,2020_Feb_13_1306,posner,3.1.5,59.94025155722416,
-0.5,0,1,left,1,3,2,0,2,0,8,6,70,1,,,,,,,,,646.2358984000002,646.7357446999999,647.4534941000002,None,646.7525816000002,647.4367815,647.9541715,None,left,1,0.3467703999999685,647.9541715,None,None,646.7525816000002,647.9375688,0.5114897999997083,0.5948230999997577,1.7132913000000372,1.796622099999695,,,,,nikita_1,001,2020_Feb_13_1306,posner,3.1.5,59.94025155722416,
0.5,180,1,right,2,4,2,0,2,0,8,7,71,7,,,,,,,,,648.3224835000001,648.8219697,649.5396092000001,None,648.8386995000001,649.5231475,650.0402824000003,None,right,1,0.26864419999992606,650.0402824000003,None,None,648.8386995000001,650.0237685000002,0.5114472000000205,0.5950047999999697,1.7132180999997217,1.796440000000075,,,,,nikita_1,001,2020_Feb_13_1306,posner,3.1.5,59.94025155722416,
0.5,180,1,right,2,4,2,0,2,0,9,0,72,6,,,,,,,,,650.3245115,650.8247673000001,651.5425699000002,None,650.8416368000003,651.5257580000002,652.0430348,None,right,1,0.35384390000035637,652.0430348,None,None,650.8416368000003,652.0265015,0.5117918000000827,0.5951952999998866,1.7135146000000532,1.7967752999998083,,,,,nikita_1,001,2020_Feb_13_1306,posner,3.1.5,59.94025155722416,
0.5,180,1,right,2,4,2,0,2,0,9,1,73,5,,,,,,,,,652.4272842,652.9278462000002,653.6453214000003,None,652.9442951000001,653.6284751000003,654.1461844999999,None,right,1,0.32279479999988325,654.1461844999999,None,None,652.9442951000001,654.1292281000001,0.5118461000001844,0.5952904000000672,1.7132166999999754,1.796765399999913,,,,,nikita_1,001,2020_Feb_13_1306,posner,3.1.5,59.94025155722416,
-0.5,0,1,left,1,3,2,0,2,0,9,2,74,1,,,,,,,,,654.4972176000001,654.9971407000003,655.7148810000003,None,655.0138433000002,655.6981696000003,656.2157814000002,None,left,1,0.34922839999990174,656.2157814000002,None,None,655.0138433000002,656.1987974000003,0.5117083000000093,0.594999899999948,1.7133459000001494,1.7967464999996992,,,,,nikita_1,001,2020_Feb_13_1306,posner,3.1.5,59.94025155722416,
0.5,180,1,right,2,4,2,0,2,0,9,3,75,7,,,,,,,,,656.5837475000003,657.0833756000002,657.8010331999999,None,657.0999848000001,657.7842504,658.3018634,None,right,1,0.2709983999998258,658.3018634,None,None,657.0999848000001,658.2850533000001,0.5113605000001371,0.5949719000000186,1.7130256000000372,1.7963541999997688,,,,,nikita_1,001,2020_Feb_13_1306,posner,3.1.5,59.94025155722416,
