targetX,cueOri,congr,corrAns,pin_cue,pin_target,block.thisRepN,block.thisTrialN,block.thisN,block.thisIndex,posner_task.thisRepN,posner_task.thisTrialN,posner_task.thisN,posner_task.thisIndex,port_start_block.started,port_start_block.stopped,text_2.started,text_2.stopped,p_port.started,p_port.stopped,text.started,text.stopped,fixation_1.started,fixation_1.stopped,fixation_2.started,fixation_2.stopped,cue.started,cue.stopped,target.started,target.stopped,correct_key_resp.keys,correct_key_resp.corr,correct_key_resp.rt,correct_key_resp.started,correct_key_resp.stopped,early_resp.keys,early_resp.started,early_resp.stopped,trigger_cue.started,trigger_cue.stopped,trigger_target.started,trigger_target.stopped,break_text.started,break_text.stopped,end_port.started,end_port.stopped,early_resp.rt,participant,session,date,expName,psychopyVersion,frameRate,
-0.5,180,0,left,2,3,0,0,0,0,0,0,0,4,1.7700000171316788e-05,0.09113009999964561,22.55882390000079,None,1.4600000213249587e-05,0.0994645999999193,24.444693400000688,None,24.78485460000047,25.295554100000118,25.99667000000045,None,25.295554100000118,25.979908300000716,26.497372200000427,None,left,1,0.385443000000123,26.497372200000427,None,None,25.295554100000118,26.480939500000204,0.5034536000002845,0.6035605999995823,1.7053797999997187,1.788439599999947,,,,,,katie_2,001,2020_Jan_30_1219,posner,3.1.5,59.99818805478399,
0.5,180,1,right,2,4,0,0,0,0,0,1,1,5,,,,,,,,,26.912849800000004,27.398472900000343,28.116605800000798,None,27.41527540000061,28.099600700000337,28.61696590000065,None,right,1,0.3058614999999918,28.61696590000065,None,None,27.41527540000061,28.60029250000025,0.5097144000001208,0.5934110000007422,1.7115127000006396,1.7949057000005268,,,,,,katie_2,001,2020_Jan_30_1219,posner,3.1.5,59.99818805478399,
-0.5,0,1,left,1,3,0,0,0,0,0,2,2,0,,,,,,,,,28.95194470000024,29.45147530000031,30.16914010000073,None,29.468031400000655,30.152503799999977,30.669821100000263,None,left,1,0.30088419999992766,30.669821100000263,None,None,29.468031400000655,30.65299110000069,0.5112779000000955,0.5944784000002983,1.7127829999999449,1.7964073000002827,,,,,,katie_2,001,2020_Jan_30_1219,posner,3.1.5,59.99818805478399,
-0.5,0,1,left,1,3,0,0,0,0,0,3,3,1,,,,,,,,,30.98747430000003,31.48765270000058,32.20522650000021,None,31.504231599999912,32.18870740000057,32.70582220000051,None,left,1,0.35299790000044595,32.70582220000051,None,None,31.504231599999912,32.68931760000032,0.5119399000004705,0.5952046000002156,1.7135895000001256,1.796869400000105,,,,,,katie_2,001,2020_Jan_30_1219,posner,3.1.5,59.99818805478399,
0.5,180,1,right,2,4,0,0,0,0,0,4,4,7,,,,,,,,,33.09028590000071,33.59052680000059,34.30804310000076,None,33.60707640000055,34.29170950000025,34.808940100000655,None,right,1,0.2659063999999489,34.808940100000655,None,None,33.60707640000055,34.79228950000015,0.51141540000026,0.5946707000002789,1.7131626999998844,1.7964439999996102,,,,,,katie_2,001,2020_Jan_30_1219,posner,3.1.5,59.99818805478399,
0.5,0,0,right,1,4,0,0,0,0,0,5,5,3,,,,,,,,,35.09325930000068,35.59312480000062,36.31098569999995,None,35.609873600000356,36.294186200000695,36.81168180000077,None,right,1,0.36709130000053847,36.81168180000077,None,None,35.609873600000356,36.79486730000008,0.511452100000497,0.5950861999999688,1.7131801000004998,1.7967570000000705,,,,,,katie_2,001,2020_Jan_30_1219,posner,3.1.5,59.99818805478399,
0.5,180,1,right,2,4,0,0,0,0,0,6,6,6,,,,,,,,,37.195721300000514,37.6961938000004,38.41382840000006,None,37.712834800000564,38.39719310000055,38.91464180000003,None,right,1,0.2801755000000412,38.91464180000003,None,None,37.712834800000564,38.89788000000044,0.512209200000143,0.5956238000007943,1.71387279999999,1.797204899999997,,,,,,katie_2,001,2020_Jan_30_1219,posner,3.1.5,59.99818805478399,
-0.5,0,1,left,1,3,0,0,0,0,0,7,7,2,,,,,,,,,39.21581010000045,39.715513200000714,40.43353930000012,None,39.73221510000076,40.4165165000004,40.934187400000155,None,left,1,0.3166885000000548,40.934187400000155,None,None,39.73221510000076,40.9173507000005,0.5113701000000219,0.595018699999855,1.7131866999998238,1.796487900000102,,,,,,katie_2,001,2020_Jan_30_1219,posner,3.1.5,59.99818805478399,
0.5,180,1,right,2,4,0,0,0,0,1,0,8,5,,,,,,,,,41.26855780000005,41.768459599999915,42.48597790000076,None,41.78501330000017,42.46943800000008,42.986811700000544,None,right,1,0.2721658999998908,42.986811700000544,None,None,41.78501330000017,42.96994940000059,0.5113679999994929,0.5949631999992562,1.7128473999991911,1.7964674999993804,,,,,,katie_2,001,2020_Jan_30_1219,posner,3.1.5,59.99818805478399,
-0.5,0,1,left,1,3,0,0,0,0,1,1,9,0,,,,,,,,,43.28786130000026,43.787886800000706,44.505617200000415,None,43.804356100000405,44.489024500000596,45.006443400000535,None,left,1,0.3242660000005344,45.006443400000535,None,None,43.804356100000405,44.989357100000234,0.5115734999999404,0.5950394000001324,1.7130334000003131,1.7971094000004086,,,,,,katie_2,001,2020_Jan_30_1219,posner,3.1.5,59.99818805478399,
-0.5,180,0,left,2,3,0,0,0,0,1,2,10,4,,,,,,,,,45.35736250000082,45.85736970000016,46.574967800000195,None,45.87402689999999,46.55828020000081,47.07561979999991,None,left,1,0.35104279999995924,47.07561979999991,None,None,45.87402689999999,47.059147900000426,0.5115446999998312,0.5950597999999445,1.7133014000000912,1.7966483999998673,,,,,,katie_2,001,2020_Jan_30_1219,posner,3.1.5,59.99818805478399,
-0.5,0,1,left,1,3,0,0,0,0,1,3,11,1,,,,,,,,,47.443165800000315,47.94340220000049,48.66118800000004,None,47.96041570000034,48.64442190000045,49.16206290000082,None,left,1,0.3286420000004,49.16206290000082,None,None,47.96041570000034,49.14524380000057,0.5118595000003552,0.5955450999999812,1.7136820000005173,1.7971904000005452,,,,,,katie_2,001,2020_Jan_30_1219,posner,3.1.5,59.99818805478399,
-0.5,0,1,left,1,3,0,0,0,0,1,4,12,2,,,,,,,,,49.513206500000706,50.01300530000026,50.73085050000009,None,50.02978020000046,50.71386200000052,51.231483700000354,None,left,1,0.3072896000003311,51.231483700000354,None,None,50.02978020000046,51.214634700000715,0.5115023999996993,0.5949361999992107,1.7131139999992229,1.7967005999998946,,,,,,katie_2,001,2020_Jan_30_1219,posner,3.1.5,59.99818805478399,
0.5,0,0,right,1,4,0,0,0,0,1,5,13,3,,,,,,,,,51.56573290000051,52.0660297000004,52.783467799999926,None,52.082594500000596,52.76687010000023,53.28424360000008,None,right,1,0.37436479999996664,53.28424360000008,None,None,52.082594500000596,53.2677919000007,0.511572299999898,0.5949342000003526,1.7133076000000074,1.7966870999998719,,,,,,katie_2,001,2020_Jan_30_1219,posner,3.1.5,59.99818805478399,
0.5,180,1,right,2,4,0,0,0,0,1,6,14,6,,,,,,,,,53.685600600000726,54.18538650000028,54.90302630000042,None,54.20233090000056,54.88634170000023,55.40383600000041,None,right,1,0.37492139999994833,55.40383600000041,None,None,54.20233090000056,55.387457100000574,0.5114937000007558,0.5951563000007809,1.7135384000002887,1.7966820000001462,,,,,,katie_2,001,2020_Jan_30_1219,posner,3.1.5,59.99818805478399,
0.5,180,1,right,2,4,0,0,0,0,1,7,15,7,,,,,,,,,55.80512610000005,56.304868800000804,57.022826300000816,None,56.32190080000055,57.0060497000004,57.523499700000684,None,right,1,0.2791434000000663,57.523499700000684,None,None,56.32190080000055,57.50684690000071,0.5112269000001106,0.5948767999998381,1.713178799999696,1.796471799999381,,,,,,katie_2,001,2020_Jan_30_1219,posner,3.1.5,59.99818805478399,
0.5,0,0,right,1,4,0,0,0,0,2,0,16,3,,,,,,,,,57.824467899999945,58.324446000000535,59.04211090000081,None,58.341231100000186,59.02532080000037,59.54290430000037,None,right,1,0.32400030000007973,59.54290430000037,None,None,58.341231100000186,59.52615080000032,0.5114723000006052,0.5951461000004201,1.7131768999997803,1.7966661999998905,,,,,,katie_2,001,2020_Jan_30_1219,posner,3.1.5,59.99818805478399,
-0.5,0,1,left,1,3,0,0,0,0,2,1,17,1,,,,,,,,,59.893889500000114,60.39392900000075,61.11181110000052,None,60.41075320000073,61.094777300000715,61.612449500000366,None,left,1,0.414284200000111,61.612449500000366,None,None,60.41075320000073,61.595620600000075,0.5114967999998044,0.5950654999996914,1.7131857000003947,1.796823100000438,,,,,,katie_2,001,2020_Jan_30_1219,posner,3.1.5,59.99818805478399,
0.5,180,1,right,2,4,0,0,0,0,2,2,18,5,,,,,,,,,62.04704579999998,62.547044100000676,63.264481300000625,None,62.563556699999936,63.248024700000315,63.765348100000665,None,right,1,0.44529399999919406,63.765348100000665,None,None,62.563556699999936,63.74865450000016,0.511219699999856,0.594631400000253,1.7128075000000536,1.7964351000000534,,,,,,katie_2,001,2020_Jan_30_1219,posner,3.1.5,59.99818805478399,
-0.5,0,1,left,1,3,0,0,0,0,2,3,19,0,,,,,,,,,64.2342578000007,64.73326570000063,65.45112490000065,None,64.75012810000044,65.43465100000049,65.95178530000067,66.43612950000079,left,1,0.5390140999998039,65.95178530000067,None,None,64.75012810000044,65.93530900000042,0.5104339999998047,0.5940221999999267,1.712464600000203,1.7954108000003544,,,,,,katie_2,001,2020_Jan_30_1219,posner,3.1.5,59.99818805478399,
-0.5,180,0,left,2,3,0,0,0,0,2,4,20,4,,,,,,,,,66.5196833,67.01967510000031,67.73755120000078,None,67.03645830000005,67.72086010000021,68.2379976000002,None,left,1,0.3966155999996772,68.2379976000002,None,None,67.03645830000005,68.22165889999997,0.5114157999996678,0.5950683999999455,1.7133791999995083,1.7966234999994413,,,,,,katie_2,001,2020_Jan_30_1219,posner,3.1.5,59.99818805478399,
0.5,180,1,right,2,4,0,0,0,0,2,5,21,6,,,,,,,,,68.65633550000075,69.15596480000022,69.87359199999992,None,69.17281739999999,69.85718160000033,70.37443150000036,None,right,1,0.28419690000009723,70.37443150000036,None,None,69.17281739999999,70.35782620000009,0.5114419000001362,0.5949388999997609,1.7132710999994742,1.7966613999997207,,,,,,katie_2,001,2020_Jan_30_1219,posner,3.1.5,59.99818805478399,
0.5,180,1,right,2,4,0,0,0,0,2,6,22,7,,,,,,,,,70.67548080000051,71.17545710000013,71.89322210000046,None,71.19230340000013,71.87652470000012,72.39401520000047,None,right,1,0.3766806000003271,72.39401520000047,None,None,71.19230340000013,72.37731030000032,0.5115333000003375,0.5950861999999688,1.713363400000162,1.7965092000004006,,,,,,katie_2,001,2020_Jan_30_1219,posner,3.1.5,59.99818805478399,
-0.5,0,1,left,1,3,0,0,0,0,2,7,23,2,,,,,,,,,72.79520740000044,73.2952208000006,74.01289200000065,None,73.3118314000003,73.99602680000044,74.51333440000053,None,left,1,0.42528020000008837,74.51333440000053,None,None,73.3118314000003,74.49691490000077,0.5118362999992314,0.5951163999998244,1.713522600000033,1.7967198999995162,,,,,,katie_2,001,2020_Jan_30_1219,posner,3.1.5,59.99818805478399,
0.5,180,1,right,2,4,0,0,0,0,3,0,24,7,,,,,,,,,74.96485360000042,75.46469410000009,76.18259080000007,None,75.48138050000034,76.16568830000051,76.68319910000082,None,right,1,0.3194021999997858,76.68319910000082,None,None,75.48138050000034,76.66633249999995,0.5113792000001922,0.5949405000001207,1.7130059999999503,1.7964572000000771,,,,,,katie_2,001,2020_Jan_30_1219,posner,3.1.5,59.99818805478399,
-0.5,0,1,left,1,3,0,0,0,0,3,1,25,0,,,,,,,,,77.03393620000043,77.53420300000016,78.25185500000043,None,77.5510834000006,78.2352062,78.75268440000036,None,left,1,0.38599020000037854,78.75268440000036,None,None,77.5510834000006,78.73577509999996,0.5116169000002628,0.5951621000003797,1.7131706999998642,1.7967660000003889,,,,,,katie_2,001,2020_Jan_30_1219,posner,3.1.5,59.99818805478399,
-0.5,180,0,left,2,3,0,0,0,0,3,2,26,4,,,,,,,,,79.17040440000073,79.67045320000034,80.38826180000069,None,79.68715780000002,80.37138360000063,80.88903990000017,None,left,1,0.37750599999981205,80.88903990000017,None,None,79.68715780000002,80.87210920000052,0.5112540000000081,0.5945498000000953,1.7128957999993872,1.7964076999996905,,,,,,katie_2,001,2020_Jan_30_1219,posner,3.1.5,59.99818805478399,
-0.5,0,1,left,1,3,0,0,0,0,3,3,27,2,,,,,,,,,81.2902778000007,81.7901907000005,82.50792990000082,None,81.8070187000003,82.49104700000044,83.00828400000046,None,left,1,0.3624577999999019,83.00828400000046,None,None,81.8070187000003,82.99187430000075,0.5112682000008135,0.5944375000008222,1.7129359000000477,1.7963929000006829,,,,,,katie_2,001,2020_Jan_30_1219,posner,3.1.5,59.99818805478399,
0.5,180,1,right,2,4,0,0,0,0,3,4,28,5,,,,,,,,,83.39303180000024,83.89297110000007,84.61069640000005,None,83.90973850000046,84.59405800000059,85.1115206000004,None,right,1,0.2991360000005443,85.1115206000004,None,None,83.90973850000046,85.09464329999992,0.5113768000001073,0.5950020999998742,1.7130373999998483,1.7965303999999378,,,,,,katie_2,001,2020_Jan_30_1219,posner,3.1.5,59.99818805478399,
0.5,0,0,right,1,4,0,0,0,0,3,5,29,3,,,,,,,,,85.42883430000074,85.92914999999994,86.64702910000051,None,85.94571260000066,86.63017920000038,87.14754620000076,None,right,1,0.39094439999917086,87.14754620000076,None,None,85.94571260000066,87.13084789999994,0.5123259000001781,0.5958828000002541,1.714002900000196,1.797318599999926,,,,,,katie_2,001,2020_Jan_30_1219,posner,3.1.5,59.99818805478399,
-0.5,0,1,left,1,3,0,0,0,0,3,6,30,1,,,,,,,,,87.56545010000082,88.06536890000007,88.78294770000048,None,88.08236850000048,88.76647570000023,89.28360490000068,None,left,1,0.39106810000066616,89.28360490000068,None,None,88.08236850000048,89.26721090000046,0.5115476000000854,0.5950755000003483,1.7133703999998033,1.7966490999997404,,,,,,katie_2,001,2020_Jan_30_1219,posner,3.1.5,59.99818805478399,
0.5,180,1,right,2,4,0,0,0,0,3,7,31,6,,,,,,,,,89.7019134000002,90.20198840000012,90.91942900000049,None,90.21832750000067,90.90271920000032,91.4201094,None,right,1,0.32642089999990276,91.4201094,None,None,90.21832750000067,91.4032001000005,0.5119630999997753,0.5950504000002184,1.7131634999996095,1.7967229999994743,,,,,,katie_2,001,2020_Jan_30_1219,posner,3.1.5,59.99818805478399,
0.5,180,1,right,2,4,0,0,0,0,4,0,32,7,,,,,,,,,91.77111210000021,92.2711519000004,92.98895730000004,None,92.28782820000015,92.97229870000047,93.48942350000016,None,right,1,0.3691484999999375,93.48942350000016,None,None,92.28782820000015,93.47263280000061,0.5116809000001012,0.5951365999999325,1.7131392999999662,1.7969843999999284,,,,,,katie_2,001,2020_Jan_30_1219,posner,3.1.5,59.99818805478399,
-0.5,180,0,left,2,3,0,0,0,0,4,1,33,4,,,,,,,,,93.89047850000043,94.39070010000069,95.10858830000052,None,94.40758929999993,95.09185210000032,95.60892890000014,None,left,1,0.4576096000000689,95.60892890000014,None,None,94.40758929999993,95.59246190000067,0.511618599999565,0.5949325999999928,1.7133595999994213,1.7967855999995663,,,,,,katie_2,001,2020_Jan_30_1219,posner,3.1.5,59.99818805478399,
0.5,180,1,right,2,4,0,0,0,0,4,2,34,5,,,,,,,,,96.09336930000063,96.59369930000048,97.3115555000004,None,96.61046239999996,97.29471170000033,97.81230649999998,96.09336930000063,right,1,0.41422330000023067,97.81230649999998,None,None,96.61046239999996,97.79544860000078,0.5119310000000041,0.5955427999997482,1.7136580999995203,1.797060899999451,,,,,,katie_2,001,2020_Jan_30_1219,posner,3.1.5,59.99818805478399,
-0.5,0,1,left,1,3,0,0,0,0,4,3,35,0,,,,,,,,,98.24701120000009,98.7470441000005,99.46435350000047,None,98.76331550000032,99.44776880000063,99.96506450000015,None,left,1,0.39749180000035267,99.96506450000015,None,None,98.76331550000032,99.9483811,0.5117789999994784,0.5949805999998716,1.7131058999993911,1.796826499999952,,,,,,katie_2,001,2020_Jan_30_1219,posner,3.1.5,59.99818805478399,
0.5,180,1,right,2,4,0,0,0,0,4,4,36,6,,,,,,,,,100.38307600000007,100.88290529999995,101.60079070000029,None,100.8997687000001,101.58390620000046,102.10154670000065,None,right,1,0.45300760000009177,102.10154670000065,None,None,100.8997687000001,102.0846547000001,0.511420800000451,0.5949903999999151,1.7131561000005604,1.7967017000000851,,,,,,katie_2,001,2020_Jan_30_1219,posner,3.1.5,59.99818805478399,
0.5,0,0,right,1,4,0,0,0,0,4,5,37,3,,,,,,,,,102.58612910000011,103.08602190000056,103.8036559000002,None,103.1028524000003,103.7872913000001,104.3043361,102.58612910000011,right,1,0.330217900000207,104.3043361,None,None,103.1028524000003,104.28791210000054,0.5114637999995466,0.594873799999732,1.7133239999993748,1.7966362999995908,,,,,,katie_2,001,2020_Jan_30_1219,posner,3.1.5,59.99818805478399,
-0.5,0,1,left,1,3,0,0,0,0,4,6,38,1,,,,,,,,,104.65550820000044,105.1555042,105.87312700000075,None,105.17231990000073,105.85658550000062,106.37389260000054,None,left,1,0.4525977999992392,106.37389260000054,None,None,105.17231990000073,106.35735420000037,0.5113833000004888,0.5949508000003334,1.713215200000377,1.7963995000000068,,,,,,katie_2,001,2020_Jan_30_1219,posner,3.1.5,59.99818805478399,
-0.5,0,1,left,1,3,0,0,0,0,4,7,39,2,,,,,,,,,106.84197590000076,107.3420143000003,108.05972450000081,None,107.35862420000012,108.04290590000073,108.56028050000077,109.04415130000052,left,1,0.5063311000003523,108.56028050000077,None,None,107.35862420000012,108.54356970000026,0.5115642999999181,0.5948594999999841,1.7131083000003855,1.796579500000007,,,,,,katie_2,001,2020_Jan_30_1219,posner,3.1.5,59.99818805478399,
0.5,0,0,right,1,4,0,0,0,0,5,0,40,3,,,,,,,,,109.0949683000008,109.59502740000062,110.31260770000063,None,109.61191540000073,110.29587590000028,110.81324930000028,111.2974750000003,left,0,0.6131654999999228,110.81324930000028,None,None,109.61191540000073,110.79671750000034,0.5115421000000424,0.5950888999996096,1.7132402999995975,1.796636199999739,,,,,,katie_2,001,2020_Jan_30_1219,posner,3.1.5,59.99818805478399,
-0.5,0,1,left,1,3,0,0,0,0,5,1,41,2,,,,,,,,,111.44876320000003,111.94831909999994,112.66596150000078,None,111.96492900000067,112.64940890000071,113.16662420000011,None,left,1,0.4118720000005851,113.16662420000011,None,None,111.96492900000067,113.15011460000005,0.5113211999996565,0.5947344999995039,1.7130950999999186,1.7961285000001226,,,,,,katie_2,001,2020_Jan_30_1219,posner,3.1.5,59.99818805478399,
-0.5,180,0,left,2,3,0,0,0,0,5,2,42,4,,,,,,,,,113.60150320000048,114.10137329999998,114.81875620000028,None,114.11819689999993,114.8023860000003,115.31952490000003,None,left,1,0.3470078000000285,115.31952490000003,None,None,114.11819689999993,115.30281340000056,0.5116821999999956,0.5949043000000529,1.713108299999476,1.7965003999997862,,,,,,katie_2,001,2020_Jan_30_1219,posner,3.1.5,59.99818805478399,
-0.5,0,1,left,1,3,0,0,0,0,5,3,43,0,,,,,,,,,115.68754330000047,116.18750590000036,116.90502310000011,None,116.20396400000027,116.88847600000008,117.40582930000073,None,left,1,0.3966476999994484,117.40582930000073,None,None,116.20396400000027,117.38917020000008,0.5115133000008427,0.5949971000000005,1.7131596000008358,1.79682320000029,,,,,,katie_2,001,2020_Jan_30_1219,posner,3.1.5,59.99818805478399,
0.5,180,1,right,2,4,0,0,0,0,5,4,44,5,,,,,,,,,117.82336910000049,118.3236893000003,119.04151940000065,None,118.3403872000008,119.02465200000006,119.54200750000018,None,right,1,0.33258759999989707,119.54200750000018,None,None,118.3403872000008,119.52538820000063,0.512078300000212,0.5955115999995542,1.7137542999998914,1.79709129999992,,,,,,katie_2,001,2020_Jan_30_1219,posner,3.1.5,59.99818805478399,
0.5,180,1,right,2,4,0,0,0,0,5,5,45,6,,,,,,,,,119.89315979999992,120.39310240000032,121.11093820000042,None,120.40985010000077,121.09405400000014,121.61164150000059,None,right,1,0.3747819000000163,121.61164150000059,None,None,120.40985010000077,121.59488160000001,0.51132029999917,0.5948914999999033,1.7130868999993254,1.796608899999228,,,,,,katie_2,001,2020_Jan_30_1219,posner,3.1.5,59.99818805478399,
-0.5,0,1,left,1,3,0,0,0,0,5,6,46,1,,,,,,,,,122.01263800000015,122.51286610000079,123.23056309999993,None,122.5293601000003,123.21371490000001,123.73118430000068,None,left,1,0.4312890999999581,123.73118430000068,None,None,122.5293601000003,123.71445550000044,0.5116855000005671,0.5950168999997913,1.713255200000276,1.7967779999999038,,,,,,katie_2,001,2020_Jan_30_1219,posner,3.1.5,59.99818805478399,
0.5,180,1,right,2,4,0,0,0,0,5,7,47,7,,,,,,,,,124.18258289999994,124.68248930000027,125.40017210000042,None,124.69927310000003,125.38326170000073,125.90099989999999,None,right,1,0.3736078000001726,125.90099989999999,None,None,124.69927310000003,125.88411670000005,0.5115163000000393,0.5950061000003188,1.7131302000007054,1.7965639000003648,,,,,,katie_2,001,2020_Jan_30_1219,posner,3.1.5,59.99818805478399,
0.5,180,1,right,2,4,0,0,0,0,6,0,48,6,,,,,,,,,126.30172410000068,126.80216240000027,127.51958430000013,None,126.81888010000057,127.5028656000004,128.02028950000022,None,right,1,0.3822307999998884,128.02028950000022,None,None,126.81888010000057,128.00351200000023,0.5122807999996439,0.5957410000000891,1.7136153999999806,1.7970641000001706,,,,,,katie_2,001,2020_Jan_30_1219,posner,3.1.5,59.99818805478399,
-0.5,0,1,left,1,3,0,0,0,0,6,1,49,0,,,,,,,,,128.42164260000027,128.92184429999998,129.6391196000004,None,128.93854910000027,129.62261430000035,130.14009720000013,None,left,1,0.31037470000046596,130.14009720000013,None,None,128.93854910000027,130.12309200000072,0.511786399999437,0.5948667999991812,1.7130176000000574,1.7966226999997161,,,,,,katie_2,001,2020_Jan_30_1219,posner,3.1.5,59.99818805478399,
0.5,180,1,right,2,4,0,0,0,0,6,2,50,5,,,,,,,,,130.47425270000076,130.9744064000006,131.6922508000007,None,130.99117490000026,131.67540460000055,132.1927714000003,132.67674510000052,right,1,0.6575926000004984,132.1927714000003,None,None,130.99117490000026,132.17617000000064,0.5114927000004172,0.5950584000001982,1.7132394000000204,1.7967256000001726,,,,,,katie_2,001,2020_Jan_30_1219,posner,3.1.5,59.99818805478399,
0.5,180,1,right,2,4,0,0,0,0,6,3,51,7,,,,,,,,,132.87771169999996,133.37795410000035,134.0953709000005,None,133.39435660000072,134.07850010000038,134.59602610000002,135.08040660000006,right,1,0.47857999999996537,134.59602610000002,None,None,133.39435660000072,134.57937240000047,0.5117706000000908,0.5949577000001227,1.7131727999994837,1.796460599999591,,,,,,katie_2,001,2020_Jan_30_1219,posner,3.1.5,59.99818805478399,
0.5,0,0,right,1,4,0,0,0,0,6,4,52,3,,,,,,,,,135.0979769000005,135.59754520000024,136.31501610000032,None,135.61399470000015,136.2984146000008,136.81575969999994,137.2999275000002,right,1,0.6827058000008037,136.81575969999994,None,None,135.61399470000015,136.7992217000001,0.5113219999993817,0.5947659999992538,1.7129823999994187,1.7962422999999035,,,,,,katie_2,001,2020_Jan_30_1219,posner,3.1.5,59.99818805478399,
-0.5,0,1,left,1,3,0,0,0,0,6,5,53,1,,,,,,,,,137.5175149000006,138.0176104000002,138.7351363000007,None,138.03397980000045,138.71843460000036,139.23579130000053,139.7197554000004,left,1,0.5186056000002282,139.23579130000053,None,None,138.03397980000045,139.21900060000007,0.5115186000002723,0.594875900000261,1.7128978000000643,1.7965995000004114,,,,,,katie_2,001,2020_Jan_30_1219,posner,3.1.5,59.99818805478399,
-0.5,0,1,left,1,3,0,0,0,0,6,6,54,2,,,,,,,,,139.7703973000007,140.27066020000075,140.98820650000016,None,140.2873993000003,140.9715642000001,141.4888393000001,141.97280070000033,left,1,0.6096033999992869,141.4888393000001,None,None,140.2873993000003,141.47200599999996,0.5117763999996896,0.5949871000002531,1.7131110999998782,1.7967202999998335,,,,,,katie_2,001,2020_Jan_30_1219,posner,3.1.5,59.99818805478399,
-0.5,180,0,left,2,3,0,0,0,0,6,7,55,4,,,,,,,,,142.12359030000061,142.62368500000048,143.34144670000023,None,142.6405005000006,143.3247407000008,143.84232930000053,None,right,0,0.44802960000015446,143.84232930000053,None,None,142.6405005000006,143.82541990000027,0.5118318000004365,0.595441600000413,1.713545300000078,1.7969876999995904,,,,,,katie_2,001,2020_Jan_30_1219,posner,3.1.5,59.99818805478399,
-0.5,180,0,left,2,3,0,0,0,0,7,0,56,4,,,,,,,,,144.31020870000066,144.8101368000007,145.5276788000001,None,144.8267420000002,145.51128270000027,146.02853120000054,None,left,1,0.3258109999997032,146.02853120000054,None,None,144.8267420000002,146.01201170000058,0.511521299999913,0.5948896999998396,1.7133852999995725,1.7964608000002045,,,,,,katie_2,001,2020_Jan_30_1219,posner,3.1.5,59.99818805478399,
0.5,180,1,right,2,4,0,0,0,0,7,1,57,6,,,,,,,,,146.3796312000004,146.87958860000072,147.59755889999997,None,146.89657979999993,147.5806831,148.09796750000078,None,right,1,0.352400800000396,148.09796750000078,None,None,146.89657979999993,148.0814345000008,0.511418699999922,0.5948411999997916,1.7132418000001053,1.796670599999743,,,,,,katie_2,001,2020_Jan_30_1219,posner,3.1.5,59.99818805478399,
0.5,0,0,right,1,4,0,0,0,0,7,2,58,3,,,,,,,,,148.46592240000064,148.96599719999995,149.68334640000012,None,148.98255280000012,149.66676880000068,150.1842024000007,150.66816860000017,right,1,0.4903035000006639,150.1842024000007,None,None,148.98255280000012,150.16757970000072,0.5118382000000565,0.5953147999998691,1.7133996000002298,1.7968771999994715,,,,,,katie_2,001,2020_Jan_30_1219,posner,3.1.5,59.99818805478399,
0.5,180,1,right,2,4,0,0,0,0,7,3,59,7,,,,,,,,,150.70206600000074,151.2023334000005,151.91998010000043,None,151.2189139000002,151.9030898000001,152.42075690000001,152.90453510000043,None,0,,152.42075690000001,None,None,151.2189139000002,152.40386240000043,0.5117628999996668,0.5950518999998167,1.713275000000067,1.796874800000296,,,,,,katie_2,001,2020_Jan_30_1219,posner,3.1.5,59.99818805478399,
-0.5,0,1,left,1,3,0,0,0,0,7,4,60,0,,,,,,,,,153.40528600000016,153.9061528000002,154.62350870000046,153.40528600000016,153.92256380000072,154.6070795000005,155.12432620000072,155.60842630000025,None,0,,155.12432620000072,None,None,153.92256380000072,155.1076060000005,0.5138825000003635,0.597162600000047,1.71532550000029,1.798850900000616,,,,,,katie_2,001,2020_Jan_30_1219,posner,3.1.5,59.99818805478399,
-0.5,0,1,left,1,3,0,0,0,0,7,5,61,1,,,,,,,,,156.1089905000008,156.6098867999999,157.32738590000008,156.1089905000008,156.6263996000007,157.3108013000001,157.82807550000052,None,left,1,0.31821059999947465,157.82807550000052,None,None,156.6263996000007,157.81146979999994,0.5138723000000027,0.596989499999836,1.715443299999606,1.798641499999576,,,,,,katie_2,001,2020_Jan_30_1219,posner,3.1.5,59.99818805478399,
0.5,180,1,right,2,4,0,0,0,0,7,6,62,5,,,,,,,,,158.16277919999993,158.66260220000004,159.3801514000006,None,158.67926380000063,159.3633664000008,159.88101650000044,None,right,1,0.3454172000001563,159.88101650000044,None,None,158.67926380000063,159.86410930000056,0.5116085999998177,0.5949684999995952,1.7131130999996458,1.7967152000001079,,,,,,katie_2,001,2020_Jan_30_1219,posner,3.1.5,59.99818805478399,
-0.5,0,1,left,1,3,0,0,0,0,7,7,63,2,,,,,,,,,160.24886310000056,160.74872070000038,161.46645210000042,None,160.76535719999993,161.4496893000005,161.96707520000018,162.45117200000004,left,1,0.4992929000000004,161.96707520000018,None,None,160.76535719999993,161.9505388000007,0.5112579000006008,0.5946896000004926,1.7130611000002318,1.7963521000001492,,,,,,katie_2,001,2020_Jan_30_1219,posner,3.1.5,59.99818805478399,
-0.5,0,1,left,1,3,0,0,0,0,8,0,64,1,,,,,,,,,162.48536839999997,162.9850320000005,163.70277930000066,None,163.0019256000005,163.68599240000003,164.2033564000003,None,left,1,0.3429706000006263,164.2033564000003,None,None,163.0019256000005,164.1867972,0.5114437000001999,0.5949848000000202,1.7131860999998025,1.796647699999994,,,,,,katie_2,001,2020_Jan_30_1219,posner,3.1.5,59.99818805478399,
0.5,180,1,right,2,4,0,0,0,0,8,1,65,7,,,,,,,,,164.57120880000002,165.07164150000062,165.78899510000065,None,165.08815660000073,165.77250660000027,166.28975750000063,None,right,1,0.41669499999989057,166.28975750000063,None,None,165.08815660000073,166.27296079999996,0.5120326000005662,0.5953289000008226,1.713339600000836,1.796805900000436,,,,,,katie_2,001,2020_Jan_30_1219,posner,3.1.5,59.99818805478399,
0.5,0,0,right,1,4,0,0,0,0,8,2,66,3,,,,,,,,,166.72429180000017,167.2243408000004,167.9419641000004,None,167.24120519999997,167.92523390000042,168.4426409000007,None,right,1,0.3756383999998434,168.4426409000007,None,None,167.24120519999997,168.42616970000017,0.511521299999913,0.5949596000000383,1.7133316999997987,1.7966765999999552,,,,,,katie_2,001,2020_Jan_30_1219,posner,3.1.5,59.99818805478399,
-0.5,0,1,left,1,3,0,0,0,0,8,3,67,2,,,,,,,,,168.8439146999999,169.3437554000002,170.06153650000033,None,169.36056650000046,170.04480450000028,170.56227149999995,None,left,1,0.34397919999992155,170.56227149999995,None,None,169.36056650000046,170.54549440000028,0.5113828000003195,0.5951303000001644,1.7131097000001319,1.7966714000003776,,,,,,katie_2,001,2020_Jan_30_1219,posner,3.1.5,59.99818805478399,
0.5,180,1,right,2,4,0,0,0,0,8,4,68,6,,,,,,,,,170.9303385000003,171.43028510000022,172.14797270000054,None,171.44671990000006,172.1314310000007,172.6486644000006,None,right,1,0.3616575999994893,172.6486644000006,None,None,171.44671990000006,172.63196680000055,0.511816600000202,0.595043600000281,1.7134617000001526,1.7962161000004926,,,,,,katie_2,001,2020_Jan_30_1219,posner,3.1.5,59.99818805478399,
0.5,180,1,right,2,4,0,0,0,0,8,5,69,5,,,,,,,,,173.03302320000057,173.5329001,174.25099410000075,None,173.54980100000012,174.23400680000032,174.75149360000069,None,right,1,0.38682429999971646,174.75149360000069,None,None,173.54980100000012,174.73463850000007,0.5115174000002298,0.5951752000000852,1.7132535999999163,1.7967833000002429,,,,,,katie_2,001,2020_Jan_30_1219,posner,3.1.5,59.99818805478399,
-0.5,180,0,left,2,3,0,0,0,0,8,6,70,4,,,,,,,,,175.1689909000006,175.66928030000054,176.38698920000024,None,175.68582289999995,176.37010780000037,176.88773760000004,None,left,1,0.37046769999960816,176.88773760000004,None,None,175.68582289999995,176.8711114000007,0.5116741000001639,0.5950600999995004,1.7134893000002194,1.7966544999999314,,,,,,katie_2,001,2020_Jan_30_1219,posner,3.1.5,59.99818805478399,
-0.5,0,1,left,1,3,0,0,0,0,8,7,71,0,,,,,,,,,177.28865680000035,177.7890466000008,178.50657860000047,None,177.8053819000006,178.48976270000003,179.00723720000042,None,left,1,0.4430185999999594,179.00723720000042,None,None,177.8053819000006,178.99064830000043,0.5117397999993045,0.5950483999995413,1.7133262999996077,1.7964558999992732,,,,,,katie_2,001,2020_Jan_30_1219,posner,3.1.5,59.99818805478399,
0.5,180,1,right,2,4,0,0,0,0,9,0,72,6,,,,,,,,,179.4752782000005,179.97526749999997,180.69279040000038,None,179.99189680000018,180.67602220000026,181.19347600000037,None,right,1,0.4246747000006508,181.19347600000037,None,None,179.99189680000018,181.17720439999994,0.5116960000004838,0.5951709999999366,1.7135981999999785,1.796749699999964,,,,,,katie_2,001,2020_Jan_30_1219,posner,3.1.5,59.99818805478399,
-0.5,180,0,left,2,3,0,0,0,0,9,1,73,4,,,,,,,,,181.64466090000042,182.14479860000029,182.8625393000002,None,182.16154480000023,182.8459737000003,183.36303940000016,183.84733890000007,left,1,0.7271928000000116,183.36303940000016,None,None,182.16154480000023,183.34647180000047,0.5115551999997479,0.595043600000281,1.713210099999742,1.7969133000005968,,,,,,katie_2,001,2020_Jan_30_1219,posner,3.1.5,59.99818805478399,
0.5,180,1,right,2,4,0,0,0,0,9,2,74,7,,,,,,,,,184.11488670000017,184.61491110000043,185.33251960000052,None,184.63151749999997,185.31581280000046,185.8330902000007,None,left,0,0.38509459999932005,185.8330902000007,None,None,184.63151749999997,185.81661580000036,0.5118570999993608,0.595210099999349,1.7135417999998026,1.7969891000002463,,,,,,katie_2,001,2020_Jan_30_1219,posner,3.1.5,59.99818805478399,
0.5,0,0,right,1,4,0,0,0,0,9,3,75,3,,,,,,,,,186.23472120000042,186.7345253000003,187.45219650000035,None,186.7513884,187.4359731000004,187.9526093000004,None,right,1,0.4096018999998705,187.9526093000004,None,None,186.7513884,187.93668200000047,0.5115365000001475,0.5948977999996714,1.7136712000001353,1.7966139000000112,,,,,,katie_2,001,2020_Jan_30_1219,posner,3.1.5,59.99818805478399,
0.5,180,1,right,2,4,0,0,0,0,9,4,76,5,,,,,,,,,188.3878181,188.88748710000073,189.60497290000058,None,188.90402840000024,189.58843849999994,190.10569440000017,None,right,1,0.38442459999987477,190.10569440000017,None,None,188.90402840000024,190.08907390000059,0.5113805999999386,0.5948419999995167,1.7129521999995632,1.7963331000000835,,,,,,katie_2,001,2020_Jan_30_1219,posner,3.1.5,59.99818805478399,
-0.5,0,1,left,1,3,0,0,0,0,9,5,77,2,,,,,,,,,190.50655260000076,191.00721580000027,191.72466450000047,None,191.02378339999996,191.70795429999998,192.2254737000003,None,left,1,0.43278210000062245,192.2254737000003,None,None,191.02378339999996,192.20872750000035,0.5126130999997258,0.5959141000003001,1.714110900000378,1.7973885999999766,,,,,,katie_2,001,2020_Jan_30_1219,posner,3.1.5,59.99818805478399,
-0.5,0,1,left,1,3,0,0,0,0,9,6,78,1,,,,,,,,,192.67699250000078,193.17673020000075,193.89432550000038,None,193.19331690000035,193.87776340000073,194.3949822000004,194.87904250000065,left,1,0.4711388999994597,194.3949822000004,None,None,193.19331690000035,194.37834620000012,0.5115096999998059,0.5948771000003035,1.7131140000001324,1.7966119000002436,,,,,,katie_2,001,2020_Jan_30_1219,posner,3.1.5,59.99818805478399,
-0.5,0,1,left,1,3,0,0,0,0,9,7,79,0,,,,,,,,,194.8963691000008,195.39647130000048,196.1139348000006,None,195.41294540000035,196.0973967,196.6147204000008,197.09885440000016,left,1,0.47546039999997447,196.6147204000008,None,None,195.41294540000035,196.5980466000001,0.5116994999998496,0.5950180999998338,1.713264099999833,1.7967626999998174,,,,,,katie_2,001,2020_Jan_30_1219,posner,3.1.5,59.99818805478399,
-0.5,0,1,left,1,3,0,0,0,0,10,0,80,1,,,,,,,,,197.11608840000008,197.61611070000072,198.33374850000018,None,197.63271440000062,198.31710580000072,198.83436849999998,None,left,1,0.43988699999954406,198.83436849999998,None,None,197.63271440000062,198.8178069000005,0.5115498999994088,0.5950606999995216,1.7132365999996182,1.7968049000000974,,,,,,katie_2,001,2020_Jan_30_1219,posner,3.1.5,59.99818805478399,
0.5,180,1,right,2,4,0,0,0,0,10,1,81,6,,,,,,,,,199.30251279999993,199.80224760000056,200.51998510000067,None,199.8191841000007,200.50329190000048,201.02089440000054,None,right,1,0.28517439999995986,201.02089440000054,None,None,199.8191841000007,201.00394039999992,0.5113051000007545,0.5949454000001424,1.7129838000000746,1.7967131000004883,,,,,,katie_2,001,2020_Jan_30_1219,posner,3.1.5,59.99818805478399,
-0.5,0,1,left,1,3,0,0,0,0,10,2,82,2,,,,,,,,,201.32169450000038,201.82199650000075,202.53955450000012,None,201.83860940000068,202.52277830000003,203.04043300000012,203.52414930000032,None,0,,203.04043300000012,None,None,201.83860940000068,203.02347840000039,0.5119210000002568,0.5951564999995753,1.7133920999995098,1.7970690000001923,,,,,,katie_2,001,2020_Jan_30_1219,posner,3.1.5,59.99818805478399,
0.5,180,1,right,2,4,0,0,0,0,10,3,83,7,,,,,,,,,204.0248876000005,204.52562960000068,205.24323619999996,204.0248876000005,204.54247960000066,205.2266767000001,205.7439045000001,None,right,1,0.3302005999994435,205.7439045000001,None,None,204.54247960000066,205.7272483000006,0.5137111000003642,0.5971310000004451,1.7152734000001146,1.7988636000000042,,,,,,katie_2,001,2020_Jan_30_1219,posner,3.1.5,59.99818805478399,
0.5,0,0,right,1,4,0,0,0,0,10,4,84,3,,,,,,,,,206.0952857000002,206.59499890000006,207.31269080000038,None,206.61183490000076,207.29623400000037,207.81339650000064,None,right,1,0.44507749999957014,207.81339650000064,None,None,206.61183490000076,207.79680820000067,0.511109199999737,0.5947084999997969,1.712897499999599,1.796456600000056,,,,,,katie_2,001,2020_Jan_30_1219,posner,3.1.5,59.99818805478399,
0.5,180,1,right,2,4,0,0,0,0,10,5,85,5,,,,,,,,,208.28160150000076,208.78146480000032,209.4992514000005,None,208.79836030000024,209.48246720000043,209.99996590000046,None,right,1,0.39401470000029803,209.99996590000046,None,None,208.79836030000024,209.9829763000007,0.5115163999998913,0.5948483000001943,1.7130175000002055,1.7965466999994533,,,,,,katie_2,001,2020_Jan_30_1219,posner,3.1.5,59.99818805478399,
-0.5,0,1,left,1,3,0,0,0,0,10,6,86,0,,,,,,,,,210.41797140000017,210.91797530000076,211.63528580000002,None,210.9347914,211.61857360000067,212.1361955000002,212.6201370000008,left,1,0.5299242000000959,212.1361955000002,None,None,210.9347914,212.11977670000033,0.5116251999997985,0.5949952000000849,1.713411300000189,1.7964617999996335,,,,,,katie_2,001,2020_Jan_30_1219,posner,3.1.5,59.99818805478399,
-0.5,180,0,left,2,3,0,0,0,0,10,7,87,4,,,,,,,,,212.68768910000017,213.18740810000054,213.9051599000004,None,213.2041052000004,213.8885908000002,214.4058485000005,None,left,1,0.45232250000026397,214.4058485000005,None,None,213.2041052000004,214.38913930000035,0.5112039000005097,0.5949032999997144,1.7129119000001083,1.7963853999999628,,,,,,katie_2,001,2020_Jan_30_1219,posner,3.1.5,59.99818805478399,
,,,,,,0,0,0,0,,,,,,,,,,,,,,,,,,,,,,,,,,,,,,,,,214.87444340000002,None,1.9699999938893598e-05,0.9958157000000938,,katie_2,001,2020_Jan_30_1219,posner,3.1.5,59.99818805478399,
-0.5,0,1,left,1,3,1,0,1,0,0,0,0,1,1.3899999430577736e-05,0.09765869999955612,275.89061070000025,None,1.650000012887176e-05,0.09777709999980289,277.9932269000001,None,278.2698870000004,278.77795420000075,279.47886970000036,None,278.77795420000075,279.47886970000036,279.97941790000004,None,left,1,0.3584814000005281,279.97941790000004,None,None,278.77795420000075,279.97941790000004,0.5014743000001545,0.6016086999998151,1.7031091999997443,1.803149299999859,,,,,,katie_2,001,2020_Jan_30_1219,posner,3.1.5,59.99818805478399,
-0.5,0,1,left,1,3,1,0,1,0,0,1,1,2,,,,,,,,,280.3639972000001,280.8638389000007,281.5818377000005,None,280.88077350000003,281.56496790000074,282.08219290000034,None,left,1,0.2955500000007305,282.08219290000034,None,None,280.88077350000003,282.0655577000007,0.5106572999993659,0.5942295999993803,1.7123776999997062,1.795828899999833,,,,,,katie_2,001,2020_Jan_30_1219,posner,3.1.5,59.99818805478399,
-0.5,0,1,left,1,3,1,0,1,0,0,2,2,0,,,,,,,,,282.39989930000047,282.9003620000003,283.61768400000074,None,282.9166172000005,283.6013343000004,284.1184871000005,None,left,1,0.33132780000050843,284.1184871000005,None,None,282.9166172000005,284.1018632000005,0.5119936999999481,0.5953274000003148,1.7134813000002396,1.7969079000004058,,,,,,katie_2,001,2020_Jan_30_1219,posner,3.1.5,59.99818805478399,
0.5,0,0,right,1,4,1,0,1,0,0,3,3,3,,,,,,,,,284.46958670000004,284.9695176000005,285.68723130000035,None,284.98633150000023,285.67074950000006,286.1881452000007,None,right,1,0.37376789999962057,286.1881452000007,None,None,284.98633150000023,286.1712933000008,0.5114787000002252,0.5949399999999514,1.7132328000006964,1.7965825000001132,,,,,,katie_2,001,2020_Jan_30_1219,posner,3.1.5,59.99818805478399,
0.5,180,1,right,2,4,1,0,1,0,0,4,4,6,,,,,,,,,286.5890797000002,287.0891319000002,287.80678700000044,None,287.1060649000001,287.79022650000024,288.3074806000004,None,right,1,0.3743200999997498,288.3074806000004,None,None,287.1060649000001,288.2908896000008,0.5116450999994413,0.5950603999999657,1.7133928000002925,1.7968183000002682,,,,,,katie_2,001,2020_Jan_30_1219,posner,3.1.5,59.99818805478399,
0.5,180,1,right,2,4,1,0,1,0,0,5,5,7,,,,,,,,,288.70867850000013,289.2086911000006,289.9264219000006,None,289.2256285000003,289.90980820000004,290.4273204000001,None,right,1,0.334546600000067,290.4273204000001,None,None,289.2256285000003,290.4104522000007,0.5114766999995481,0.5948184999997466,1.7132259999998496,1.7965335999997478,,,,,,katie_2,001,2020_Jan_30_1219,posner,3.1.5,59.99818805478399,
-0.5,180,0,left,2,3,1,0,1,0,0,6,6,4,,,,,,,,,290.7780741000006,291.27824260000034,291.9960353000006,None,291.2949707000007,291.97929079999994,292.49679430000015,None,left,1,0.3609647000002951,292.49679430000015,None,None,291.2949707000007,292.48005980000016,0.5116613000000143,0.5950627000001987,1.7134573000003002,1.7967262000001938,,,,,,katie_2,001,2020_Jan_30_1219,posner,3.1.5,59.99818805478399,
0.5,180,1,right,2,4,1,0,1,0,0,7,7,5,,,,,,,,,292.8814731000002,293.3811022,294.09893660000034,None,293.39811570000074,294.0819889000004,294.5995950000006,None,right,1,0.2740893000000142,294.5995950000006,None,None,293.39811570000074,294.5827005000001,0.5114957000005234,0.5949466000001848,1.71308130000034,1.796672700000272,,,,,,katie_2,001,2020_Jan_30_1219,posner,3.1.5,59.99818805478399,
0.5,180,1,right,2,4,1,0,1,0,1,0,8,7,,,,,,,,,294.9005425000005,295.4007866000002,296.1184101000008,None,295.41744520000066,296.1015956000001,296.6189796000008,None,right,1,0.4148009999998976,296.6189796000008,None,None,295.41744520000066,296.60223060000044,0.5119486000003235,0.595154000000548,1.713363500000014,1.7968414000006305,,,,,,katie_2,001,2020_Jan_30_1219,posner,3.1.5,59.99818805478399,
-0.5,180,0,left,2,3,1,0,1,0,1,1,9,4,,,,,,,,,297.05386240000007,297.5535454000001,298.27143120000073,None,297.57034139999996,298.25449970000045,298.77148149999994,None,left,1,0.38227420000021084,298.77148149999994,None,None,297.57034139999996,298.75523500000054,0.5113881999996011,0.5949317999993582,1.7130536999993637,1.796457299999929,,,,,,katie_2,001,2020_Jan_30_1219,posner,3.1.5,59.99818805478399,
0.5,180,1,right,2,4,1,0,1,0,1,2,10,6,,,,,,,,,299.17299730000013,299.6730378000002,300.3909607000005,None,299.68991950000054,300.37403900000027,300.89146040000014,None,right,1,0.3022768000000724,300.89146040000014,None,None,299.68991950000054,300.8747718000004,0.5116575000001831,0.5953741000002992,1.713354800000161,1.7970149000002493,,,,,,katie_2,001,2020_Jan_30_1219,posner,3.1.5,59.99818805478399,
0.5,180,1,right,2,4,1,0,1,0,1,3,11,5,,,,,,,,,301.20928660000027,301.7092523000001,302.4271779999999,None,301.72595320000073,302.41058150000026,302.92769320000025,None,right,1,0.28215689999979077,302.92769320000025,None,None,301.72595320000073,302.9110389000007,0.5116132000002835,0.5949270000000979,1.7133945000005042,1.7967447999999422,,,,,,katie_2,001,2020_Jan_30_1219,posner,3.1.5,59.99818805478399,
0.5,0,0,right,1,4,1,0,1,0,1,4,12,3,,,,,,,,,303.2285565000002,303.7287258000006,304.4465317000004,None,303.7454066,304.42959690000043,304.9470927000002,None,right,1,0.3346118999997998,304.9470927000002,None,None,303.7454066,304.93044330000066,0.5117475999995804,0.595148600000357,1.7134417999996003,1.7967866999997568,,,,,,katie_2,001,2020_Jan_30_1219,posner,3.1.5,59.99818805478399,
-0.5,0,1,left,1,3,1,0,1,0,1,5,13,1,,,,,,,,,305.29829060000066,305.7984473000006,306.5159825999999,None,305.81493910000063,306.49929990000055,307.0166921,None,left,1,0.38503380000020115,307.0166921,None,None,305.81493910000063,307.00001750000047,0.5116448999997374,0.5948361000000659,1.7131994999999733,1.7964007000000493,,,,,,katie_2,001,2020_Jan_30_1219,posner,3.1.5,59.99818805478399,
-0.5,0,1,left,1,3,1,0,1,0,1,6,14,0,,,,,,,,,307.4179780000004,307.91782710000007,308.63540960000046,None,307.9349282000003,308.6189107,309.1361886000004,None,left,1,0.36154720000013185,309.1361886000004,None,None,307.9349282000003,309.1196148000008,0.5112707999996928,0.5947157999999035,1.7130434999999125,1.7962360999999873,,,,,,katie_2,001,2020_Jan_30_1219,posner,3.1.5,59.99818805478399,
-0.5,0,1,left,1,3,1,0,1,0,1,7,15,2,,,,,,,,,309.52070000000003,310.0207745000007,310.7382841000008,None,310.03740500000004,310.72160239999994,311.23915230000057,None,left,1,0.3705505000007179,311.23915230000057,None,None,310.03740500000004,311.2225141000008,0.5116908999998486,0.5950278999998773,1.7134189999997034,1.7966767999996591,,,,,,katie_2,001,2020_Jan_30_1219,posner,3.1.5,59.99818805478399,
-0.5,0,1,left,1,3,1,0,1,0,2,0,16,0,,,,,,,,,311.6398171999999,312.1404330000005,312.8577901000008,None,312.15706150000005,312.8413158000003,313.3587029,None,left,1,0.33096479999949224,313.3587029,None,None,312.15706150000005,313.3418268000005,0.512055600000167,0.5953800000006595,1.7134356000005937,1.7971569000001182,,,,,,katie_2,001,2020_Jan_30_1219,posner,3.1.5,59.99818805478399,
0.5,180,1,right,2,4,1,0,1,0,2,1,17,7,,,,,,,,,313.7097665000001,314.2098627000005,314.9275894000002,None,314.2265470000002,314.9108954000003,315.42819560000044,None,right,1,0.32548229999974865,315.42819560000044,None,None,314.2265470000002,315.4115692000005,0.5116079999997964,0.5949138000005405,1.7132951000003231,1.796593600000051,,,,,,katie_2,001,2020_Jan_30_1219,posner,3.1.5,59.99818805478399,
-0.5,0,1,left,1,3,1,0,1,0,2,2,18,1,,,,,,,,,315.77953660000003,316.27947960000074,316.99705040000026,None,316.29593830000067,316.9805369000005,317.4977650000001,None,left,1,0.37586649999957444,317.4977650000001,None,None,316.29593830000067,317.4811849000007,0.5113055000001623,0.5944636000003811,1.7129945000006046,1.796087400000033,,,,,,katie_2,001,2020_Jan_30_1219,posner,3.1.5,59.99818805478399,
0.5,180,1,right,2,4,1,0,1,0,2,3,19,6,,,,,,,,,317.8996753000001,318.39913140000044,319.1166002,None,318.41549770000074,319.0998083000004,319.6172953000005,None,right,1,0.3282941999996183,319.6172953000005,None,None,318.41549770000074,319.6007718999999,0.5115921999995408,0.594711599999755,1.7131994999999733,1.7964633000001413,,,,,,katie_2,001,2020_Jan_30_1219,posner,3.1.5,59.99818805478399,
-0.5,0,1,left,1,3,1,0,1,0,2,4,20,2,,,,,,,,,319.9680754000001,320.4684778999999,321.18617020000056,None,320.4849778000007,321.1693998999999,321.6869177000008,None,left,1,0.30694729999959236,321.6869177000008,None,None,320.4849778000007,321.67010310000023,0.5117601000001741,0.5949724000001879,1.7133827999996356,1.7966430999995282,,,,,,katie_2,001,2020_Jan_30_1219,posner,3.1.5,59.99818805478399,
-0.5,180,0,left,2,3,1,0,1,0,2,5,21,4,,,,,,,,,322.0213489000007,322.5215665000005,323.2391524000004,None,322.53791590000037,323.22217290000026,323.73969060000036,324.2235833000004,None,0,,323.73969060000036,None,None,322.53791590000037,323.72282280000036,0.5119699999995646,0.5949936999995771,1.7132121999993615,1.7968949999994948,,,,,,katie_2,001,2020_Jan_30_1219,posner,3.1.5,59.99818805478399,
0.5,0,0,right,1,4,1,0,1,0,2,6,22,3,,,,,,,,,324.7243294,325.22495870000057,325.9426390000008,324.7243294,325.2417340000002,325.9259325000003,326.44345599999997,None,right,1,0.4541909999998097,326.44345599999997,None,None,325.2417340000002,326.4265451000001,0.5136425999999119,0.596980899999835,1.7151945999994496,1.7988060999996378,,,,,,katie_2,001,2020_Jan_30_1219,posner,3.1.5,59.99818805478399,
0.5,180,1,right,2,4,1,0,1,0,2,7,23,5,,,,,,,,,326.9276481000006,327.42791230000057,328.1455345000004,None,327.4447226000002,328.12889950000044,328.6464203000005,326.9276481000006,right,1,0.4511598999997659,328.6464203000005,None,None,327.4447226000002,328.6296775999999,0.5115710000000036,0.5951243999998042,1.7133152000005794,1.7966398999997182,,,,,,katie_2,001,2020_Jan_30_1219,posner,3.1.5,59.99818805478399,
0.5,180,1,right,2,4,1,0,1,0,3,0,24,6,,,,,,,,,329.1142840000002,329.61425770000005,330.3319278000008,None,329.6310336000006,330.3154966000002,330.8326749000007,331.31674380000004,right,1,0.5769576000002417,330.8326749000007,None,None,329.6310336000006,330.8161106000007,0.5117025999998077,0.5952524000003905,1.7135315000004994,1.796849199999997,,,,,,katie_2,001,2020_Jan_30_1219,posner,3.1.5,59.99818805478399,
0.5,180,1,right,2,4,1,0,1,0,3,1,25,5,,,,,,,,,331.43434010000055,331.93466179999996,332.6518879000005,None,331.95116529999996,332.63534100000015,333.15231980000044,333.6365566000004,right,1,0.5532980999996653,333.15231980000044,None,None,331.95116529999996,333.13601050000034,0.512511099999756,0.5955938999995851,1.7138397999997323,1.7971327999994173,,,,,,katie_2,001,2020_Jan_30_1219,posner,3.1.5,59.99818805478399,
0.5,180,1,right,2,4,1,0,1,0,3,2,26,7,,,,,,,,,333.73735680000027,334.2375032,334.95491480000055,None,334.2540375000008,334.9384426000006,335.45587030000024,None,right,1,0.36974759999975504,335.45587030000024,None,None,334.2540375000008,335.4391155000003,0.5115118000003349,0.5948324999999386,1.7131090000002587,1.7964150000007066,,,,,,katie_2,001,2020_Jan_30_1219,posner,3.1.5,59.99818805478399,
-0.5,0,1,left,1,3,1,0,1,0,3,3,27,2,,,,,,,,,335.85685900000044,336.3572793000003,337.07462750000013,None,336.3735198000004,337.0580344,337.5755319,None,left,1,0.3221715999998196,337.5755319,None,None,336.3735198000004,337.5586348000006,0.5119590000003882,0.5951824000003398,1.713306000000557,1.7967642000003252,,,,,,katie_2,001,2020_Jan_30_1219,posner,3.1.5,59.99818805478399,
0.5,0,0,right,1,4,1,0,1,0,3,4,28,3,,,,,,,,,337.92703260000053,338.4264923999999,339.1439037,None,338.4430226000004,339.12740720000056,339.64469460000055,None,right,1,0.35699060000024474,339.64469460000055,None,None,338.4430226000004,339.62815070000033,0.5111172999995688,0.5946204000001671,1.7127522000000681,1.7960855999999694,,,,,,katie_2,001,2020_Jan_30_1219,posner,3.1.5,59.99818805478399,
-0.5,0,1,left,1,3,1,0,1,0,3,5,29,0,,,,,,,,,340.0289367000005,340.5295192000003,341.2472310000003,None,340.54612140000063,341.23046049999994,341.74782180000057,342.2317472000004,left,1,0.5817857000001823,341.74782180000057,None,None,340.54612140000063,341.7310954000004,0.5117932000002838,0.595040400000471,1.7133536000001186,1.7966660000001866,,,,,,katie_2,001,2020_Jan_30_1219,posner,3.1.5,59.99818805478399,
-0.5,180,0,left,2,3,1,0,1,0,3,6,30,4,,,,,,,,,342.34924560000036,342.8493612000002,343.56677970000055,None,342.8660049,343.5504596999999,344.0676575000007,None,left,1,0.42188400000031834,344.0676575000007,None,None,342.8660049,344.0510604000001,0.5113705000003392,0.5944614999998521,1.7130517000005057,1.796272499999759,,,,,,katie_2,001,2020_Jan_30_1219,posner,3.1.5,59.99818805478399,
-0.5,0,1,left,1,3,1,0,1,0,3,7,31,1,,,,,,,,,344.5186719000003,345.0187521000007,345.73662520000016,None,345.03556320000007,345.71979360000023,346.23712240000077,346.7212102000003,None,0,,346.23712240000077,None,None,345.03556320000007,346.22068540000055,0.5115289999994275,0.5949881999995341,1.7134408999991138,1.7968087999997806,,,,,,katie_2,001,2020_Jan_30_1219,posner,3.1.5,59.99818805478399,
-0.5,0,1,left,1,3,1,0,1,0,4,0,32,1,,,,,,,,,347.22178150000036,347.72251660000074,348.44024360000003,347.22178150000036,347.73926180000035,348.4234092000006,348.94078640000043,None,left,1,0.36484370000016497,348.94078640000043,None,None,347.73926180000035,348.92418290000023,0.5138385000000198,0.5973899000000529,1.7154873999998017,1.7989367999998649,,,,,,katie_2,001,2020_Jan_30_1219,posner,3.1.5,59.99818805478399,
0.5,180,1,right,2,4,1,0,1,0,4,1,33,7,,,,,,,,,349.3259080000007,349.8254850000003,350.54316199999994,None,349.84210390000044,350.52644820000023,351.0437901000005,None,right,1,0.4617065000002185,351.0437901000005,None,None,349.84210390000044,351.0271437000001,0.5113641999996617,0.5947776000002705,1.7130119000003106,1.7966589999996359,,,,,,katie_2,001,2020_Jan_30_1219,posner,3.1.5,59.99818805478399,
0.5,180,1,right,2,4,1,0,1,0,4,2,34,6,,,,,,,,,351.52860210000017,352.02852190000067,352.7461751999999,None,352.04510990000017,352.72940370000015,353.24692250000044,351.52860210000017,right,1,0.3785803000000669,353.24692250000044,None,None,352.04510990000017,353.23021140000037,0.5115648000000874,0.5949580999995305,1.7132312000003367,1.796400100000028,,,,,,katie_2,001,2020_Jan_30_1219,posner,3.1.5,59.99818805478399,
-0.5,0,1,left,1,3,1,0,1,0,4,3,35,2,,,,,,,,,353.6482209000005,354.14804450000065,354.86600630000066,None,354.1648401000002,354.84913060000054,355.36636670000007,355.85064240000065,right,0,0.47515370000019175,355.36636670000007,None,None,354.1648401000002,355.34993570000006,0.5106867000004058,0.5942244000007122,1.7125568000001294,1.7959235000007538,,,,,,katie_2,001,2020_Jan_30_1219,posner,3.1.5,59.99818805478399,
0.5,180,1,right,2,4,1,0,1,0,4,4,36,5,,,,,,,,,355.86788220000017,356.3678187000005,357.08565030000045,None,356.38446640000075,357.0688420000006,357.5859607000002,None,right,1,0.3596016999999847,357.5859607000002,None,None,356.38446640000075,357.5694656000005,0.5114074000002802,0.5948663999997734,1.713031399999636,1.7964615000000776,,,,,,katie_2,001,2020_Jan_30_1219,posner,3.1.5,59.99818805478399,
-0.5,0,1,left,1,3,1,0,1,0,4,5,37,0,,,,,,,,,357.97060130000045,358.4707777000003,359.18837650000023,None,358.48746890000075,359.17171580000013,359.68900140000005,None,left,1,0.344492000000173,359.68900140000005,None,None,358.48746890000075,359.6722352000006,0.5117896000001565,0.5952926999998454,1.7132315999997445,1.7968657999999778,,,,,,katie_2,001,2020_Jan_30_1219,posner,3.1.5,59.99818805478399,
0.5,0,0,right,1,4,1,0,1,0,4,6,38,3,,,,,,,,,360.0566817000008,360.5569181000001,361.2746055000007,None,360.5734659,361.2578306000005,361.7753231000006,None,right,1,0.3461802000001626,361.7753231000006,None,None,360.5734659,361.75865610000074,0.5121496000001571,0.5956888000000617,1.7138727000001381,1.7970182000008208,,,,,,katie_2,001,2020_Jan_30_1219,posner,3.1.5,59.99818805478399,
-0.5,180,0,left,2,3,1,0,1,0,4,7,39,4,,,,,,,,,362.14312530000007,362.6429599000003,363.36087829999997,None,362.65987210000003,363.34411850000015,363.86141600000064,None,left,1,0.37225130000024365,363.86141600000064,None,None,362.65987210000003,363.84472370000003,0.5112747000002855,0.5950369000001956,1.713039999999637,1.7964389999997366,,,,,,katie_2,001,2020_Jan_30_1219,posner,3.1.5,59.99818805478399,
-0.5,0,1,left,1,3,1,0,1,0,5,0,40,1,,,,,,,,,364.26290100000006,364.76264979999996,365.48042410000016,None,364.77941700000065,365.4635201000001,365.98119170000064,366.46527180000066,left,1,0.6362450999995417,365.98119170000064,None,None,364.77941700000065,365.9644298000003,0.5117002999995748,0.5951593999998295,1.713449999999284,1.7967848999996932,,,,,,katie_2,001,2020_Jan_30_1219,posner,3.1.5,59.99818805478399,
-0.5,0,1,left,1,3,1,0,1,0,5,1,41,2,,,,,,,,,366.64940000000024,367.14942000000065,367.86699730000055,None,367.16601489999994,367.85029470000063,368.3675488000008,368.8516391000003,left,1,0.8820151999998416,368.3675488000008,None,None,367.16601489999994,368.35115040000073,0.5116257999998197,0.5948061999997662,1.7133332000003065,1.7970289000004414,,,,,,katie_2,001,2020_Jan_30_1219,posner,3.1.5,59.99818805478399,
0.5,180,1,right,2,4,1,0,1,0,5,2,42,7,,,,,,,,,369.2699284,369.7696143000003,370.4871333000001,None,369.7863643999999,370.47054190000017,370.9879552000002,None,right,1,0.30149900000014895,370.9879552000002,None,None,369.7863643999999,370.97142020000047,0.5113933000002362,0.5948171000000002,1.71318920000067,1.796436900000117,,,,,,katie_2,001,2020_Jan_30_1219,posner,3.1.5,59.99818805478399,
0.5,180,1,right,2,4,1,0,1,0,5,3,43,5,,,,,,,,,371.30601560000014,371.80557300000055,372.5232448000006,None,371.82240790000014,372.5067746000004,373.0240896000005,373.5079749000006,right,1,0.5533636000000115,373.0240896000005,None,None,371.82240790000014,373.00736790000065,0.5113446000004842,0.5948650000000271,1.7131142999996882,1.7966863000001467,,,,,,katie_2,001,2020_Jan_30_1219,posner,3.1.5,59.99818805478399,
-0.5,0,1,left,1,3,1,0,1,0,5,4,44,0,,,,,,,,,373.60868440000013,374.1089073000003,374.8266753000007,None,374.12564610000027,374.8099219000005,375.3272811000006,375.8111976,left,1,0.5062780999996903,375.3272811000006,None,None,374.12564610000027,375.31054029999996,0.5116902999998274,0.595018699999855,1.7133109999995213,1.7967211999994106,,,,,,katie_2,001,2020_Jan_30_1219,posner,3.1.5,59.99818805478399,
-0.5,180,0,left,2,3,1,0,1,0,5,5,45,4,,,,,,,,,375.8619008000005,376.3619316000004,377.0795078000001,None,376.3785961000003,377.0629172000008,377.5805448000001,None,left,1,0.45285340000009455,377.5805448000001,None,None,376.3785961000003,377.5635768000002,0.5116774999996778,0.5952555000003485,1.713309400000071,1.797248199999558,,,,,,katie_2,001,2020_Jan_30_1219,posner,3.1.5,59.99818805478399,
0.5,180,1,right,2,4,1,0,1,0,5,6,46,6,,,,,,,,,378.0644620000003,378.56489820000024,379.2824726000008,None,378.5815455000002,379.26593219999995,379.7832003000003,380.26737890000004,right,1,0.7942224999997052,379.7832003000003,None,None,378.5815455000002,379.76665780000076,0.512400599999637,0.5961217999993096,1.7141060999992987,1.7975873999994292,,,,,,katie_2,001,2020_Jan_30_1219,posner,3.1.5,59.99818805478399,
0.5,0,0,right,1,4,1,0,1,0,5,7,47,3,,,,,,,,,380.6017494000007,381.1017672000007,381.81964790000075,None,381.11863280000034,381.80263809999997,382.32029090000015,382.8041989000003,right,1,0.7531687999999122,382.32029090000015,None,None,381.11863280000034,382.3034899000004,0.5116324000000532,0.5949168999995891,1.7133366999996724,1.7967541999996683,,,,,,katie_2,001,2020_Jan_30_1219,posner,3.1.5,59.99818805478399,
-0.5,0,1,left,1,3,1,0,1,0,6,0,48,1,,,,,,,,,383.10488070000065,383.6051460000008,384.32304700000077,None,383.62207620000027,384.3063323000006,384.82354810000015,None,left,1,0.46600450000005367,384.82354810000015,None,None,383.62207620000027,384.80700960000013,0.511686799999552,0.5954289999999673,1.7135134000000107,1.7970501999998305,,,,,,katie_2,001,2020_Jan_30_1219,posner,3.1.5,59.99818805478399,
-0.5,0,1,left,1,3,1,0,1,0,6,1,49,0,,,,,,,,,385.30860010000015,385.8083695000005,386.5261115000003,None,385.82493780000004,386.5092495000008,387.0267403000007,387.51073220000035,left,1,0.5106325000006109,387.0267403000007,None,None,385.82493780000004,387.0101073000005,0.5113453999992998,0.5946733999999196,1.7130674,1.796264799999335,,,,,,katie_2,001,2020_Jan_30_1219,posner,3.1.5,59.99818805478399,
0.5,180,1,right,2,4,1,0,1,0,6,2,50,6,,,,,,,,,387.56154030000016,388.06143190000057,388.77903310000056,None,388.07809010000074,388.7623173000002,389.27991850000035,None,right,1,0.3774889999995139,389.27991850000035,None,None,388.07809010000074,389.2628848000004,0.5116327000005185,0.5949937000004866,1.713072800000191,1.7968816000002334,,,,,,katie_2,001,2020_Jan_30_1219,posner,3.1.5,59.99818805478399,
-0.5,0,1,left,1,3,1,0,1,0,6,3,51,2,,,,,,,,,389.6810901000008,390.1811080000007,390.8987375000006,None,390.1977089000002,390.88195500000074,391.3993201000003,None,left,1,0.4260501999997359,391.3993201000003,None,None,390.1977089000002,391.3825005000008,0.5115998000001127,0.5949024000001373,1.7129820000000109,1.796494100000018,,,,,,katie_2,001,2020_Jan_30_1219,posner,3.1.5,59.99818805478399,
0.5,180,1,right,2,4,1,0,1,0,6,4,52,5,,,,,,,,,391.85054990000026,392.3508928000001,393.0682650000008,None,392.3673266000005,393.0517695000008,393.5689865000004,None,right,1,0.3843211999992491,393.5689865000004,None,None,392.3673266000005,393.5522740000006,0.511961600000177,0.5954805000001215,1.7133328999998412,1.7968220000002475,,,,,,katie_2,001,2020_Jan_30_1219,posner,3.1.5,59.99818805478399,
-0.5,180,0,left,2,3,1,0,1,0,6,5,53,4,,,,,,,,,393.9700975000005,394.4703913000003,395.1879136000007,None,394.4869684000005,395.17125300000043,395.6885918000007,None,left,1,0.45685169999978825,395.6885918000007,None,None,394.4869684000005,395.6717649000002,0.5119034999997893,0.595211300000301,1.7132646000000022,1.7968548999997438,,,,,,katie_2,001,2020_Jan_30_1219,posner,3.1.5,59.99818805478399,
0.5,0,0,right,1,4,1,0,1,0,6,6,54,3,,,,,,,,,396.17347229999996,396.67320090000067,397.39110430000073,None,396.6899951000005,397.3741484000002,397.8914990000003,398.3755946000001,right,1,0.4938121000004685,397.8914990000003,None,None,396.6899951000005,397.8750553,0.5114434999995865,0.5950671000000511,1.7133954000000813,1.7965556999997716,,,,,,katie_2,001,2020_Jan_30_1219,posner,3.1.5,59.99818805478399,
0.5,180,1,right,2,4,1,0,1,0,6,7,55,7,,,,,,,,,398.40951380000024,398.9097318000004,399.6272520000002,None,398.9263918000006,399.61072070000046,400.12816079999993,400.61192240000037,right,1,0.5451533999994354,400.12816079999993,None,None,398.9263918000006,400.1112526000006,0.5117530999996234,0.5950513999996474,1.7132614000001922,1.796730000000025,,,,,,katie_2,001,2020_Jan_30_1219,posner,3.1.5,59.99818805478399,
-0.5,0,1,left,1,3,1,0,1,0,7,0,56,2,,,,,,,,,400.6960501000003,401.1963794000003,401.9138154000002,None,401.2128468000001,401.8972523000002,402.41433010000037,402.89886110000043,left,1,0.48308799999995244,402.41433010000037,None,None,401.2128468000001,402.3980543000007,0.5117999000003692,0.5950596000002406,1.7134536000003209,1.7967561000004935,,,,,,katie_2,001,2020_Jan_30_1219,posner,3.1.5,59.99818805478399,
0.5,180,1,right,2,4,1,0,1,0,7,1,57,5,,,,,,,,,402.91563210000004,403.4159004000003,404.1335203000008,None,403.43233450000025,404.11683840000023,404.6341319000003,405.1183581000005,right,1,0.9031476000000112,404.6341319000003,None,None,403.43233450000025,404.6175081000001,0.5120537000002514,0.5954847000002701,1.7136405000001105,1.7972433000004457,,,,,,katie_2,001,2020_Jan_30_1219,posner,3.1.5,59.99818805478399,
0.5,0,0,right,1,4,1,0,1,0,7,2,58,3,,,,,,,,,405.56951840000056,406.0696022000002,406.7873012,None,406.0861723000007,406.77043980000053,407.2877961000004,407.7719659000004,right,1,0.5055014999998093,407.2877961000004,None,None,406.0861723000007,407.2713394000002,0.5117491999999402,0.595097700000224,1.7134694000005766,1.7967155000005732,,,,,,katie_2,001,2020_Jan_30_1219,posner,3.1.5,59.99818805478399,
-0.5,0,1,left,1,3,1,0,1,0,7,3,59,1,,,,,,,,,407.8227194000001,408.3226551000007,409.0402789,None,408.33918970000013,409.0235259000001,409.5409681000001,410.0251493000005,left,1,0.7405773000000409,409.5409681000001,None,None,408.33918970000013,409.52427290000014,0.511682600000313,0.59498640000038,1.7132788999997501,1.7966526999998678,,,,,,katie_2,001,2020_Jan_30_1219,posner,3.1.5,59.99818805478399,
0.5,180,1,right,2,4,1,0,1,0,7,4,60,6,,,,,,,,,410.30937489999997,410.8096250000008,411.5271240000002,None,410.8261998000007,411.51045710000017,412.02779720000035,412.5117388000008,right,1,0.4774422999998933,412.02779720000035,None,None,410.8261998000007,412.0109897000002,0.5118855999999141,0.5949664999998276,1.7132387000001472,1.7967509999998583,,,,,,katie_2,001,2020_Jan_30_1219,posner,3.1.5,59.99818805478399,
-0.5,180,0,left,2,3,1,0,1,0,7,5,61,4,,,,,,,,,412.52891380000074,413.0290365000001,413.74674810000033,None,413.04588460000014,413.7302135,414.2474299000005,None,left,1,0.4499554999993052,414.2474299000005,None,None,413.04588460000014,414.2306694000008,0.5114130000001751,0.5947614999995494,1.7130279000002702,1.7964040999995632,,,,,,katie_2,001,2020_Jan_30_1219,posner,3.1.5,59.99818805478399,
-0.5,0,1,left,1,3,1,0,1,0,7,6,62,0,,,,,,,,,414.7149607000001,415.21543830000064,415.9329884000008,None,415.2320088000006,415.91642110000066,416.4337654000001,416.91774330000044,left,1,0.5116507000002457,416.4337654000001,None,None,415.2320088000006,416.4169187000007,0.5114567000000534,0.5949356999999509,1.7129257000005964,1.7964897000001656,,,,,,katie_2,001,2020_Jan_30_1219,posner,3.1.5,59.99818805478399,
0.5,180,1,right,2,4,1,0,1,0,7,7,63,7,,,,,,,,,416.96829810000054,417.4686984,418.18642100000034,None,417.4850234000005,418.16972890000034,418.6868641000001,None,right,1,0.38641650000045047,418.6868641000001,None,None,417.4850234000005,418.6703283000006,0.5119546999994782,0.5950943999996525,1.7135734999992565,1.7968225999993592,,,,,,katie_2,001,2020_Jan_30_1219,posner,3.1.5,59.99818805478399,
0.5,0,0,right,1,4,1,0,1,0,8,0,64,3,,,,,,,,,419.10489790000065,419.60454370000025,420.32241479999993,None,419.6209772000002,420.3059299000006,420.82312420000017,None,right,1,0.45813770000040677,420.82312420000017,None,None,419.6209772000002,420.80654270000014,0.5112343999999212,0.5950892999999269,1.713215599999785,1.7966118000003917,,,,,,katie_2,001,2020_Jan_30_1219,posner,3.1.5,59.99818805478399,
-0.5,0,1,left,1,3,1,0,1,0,8,1,65,0,,,,,,,,,421.30799470000056,421.80770140000004,422.52556060000006,None,421.82453220000025,422.50907820000066,423.02611310000066,423.51024340000004,left,1,0.5992085999996561,423.02611310000066,None,None,421.82453220000025,423.0093923000004,0.5111641000003146,0.5946839999996882,1.7128430000002481,1.7962403999999879,,,,,,katie_2,001,2020_Jan_30_1219,posner,3.1.5,59.99818805478399,
-0.5,0,1,left,1,3,1,0,1,0,8,2,66,2,,,,,,,,,423.64453390000017,424.1444951000003,424.8618997000003,None,424.1610500000006,424.84525030000077,425.3625570000004,425.8467577000001,left,1,0.7587095999997473,425.3625570000004,None,None,424.1610500000006,425.3461305999999,0.5116336000000956,0.5949876000004224,1.7132460000002538,1.7966706000006525,,,,,,katie_2,001,2020_Jan_30_1219,posner,3.1.5,59.99818805478399,
0.5,180,1,right,2,4,1,0,1,0,8,3,67,7,,,,,,,,,426.14788210000006,426.64799590000075,427.3655607999999,None,426.6644472000007,427.3487776000002,427.8662492000003,None,right,1,0.3349717999999484,427.8662492000003,None,None,426.6644472000007,427.84966800000075,0.5118210999999064,0.5951426999999967,1.713477100000091,1.796653299999889,,,,,,katie_2,001,2020_Jan_30_1219,posner,3.1.5,59.99818805478399,
-0.5,180,0,left,2,3,1,0,1,0,8,4,68,4,,,,,,,,,428.2177165000003,428.71747570000025,429.43533260000004,None,428.73395299999993,429.41858709999997,429.93618160000005,None,left,1,0.3770533999995678,429.93618160000005,None,None,428.73395299999993,429.9189685000001,0.5116981999999552,0.5949454999999944,1.7131783999993786,1.7966749999995955,,,,,,katie_2,001,2020_Jan_30_1219,posner,3.1.5,59.99818805478399,
-0.5,0,1,left,1,3,1,0,1,0,8,5,69,1,,,,,,,,,430.3372756000008,430.83718410000074,431.5544499000007,None,430.8534655000003,431.53802390000055,432.0553135,432.53927139999996,None,0,,432.0553135,None,None,430.8534655000003,432.03851920000034,0.5114465000006021,0.5945343000003049,1.712767700000768,1.7962680999999066,,,,,,katie_2,001,2020_Jan_30_1219,posner,3.1.5,59.99818805478399,
0.5,180,1,right,2,4,1,0,1,0,8,6,70,5,,,,,,,,,433.0400851000004,433.5407010000008,434.25834340000074,433.0400851000004,433.5573204000002,434.2417318000007,434.7590373000003,None,right,1,0.45022700000026816,434.7590373000003,None,None,433.5573204000002,434.7422537000002,0.5136155000000144,0.5969496999996409,1.715154800000164,1.798621699999785,,,,,,katie_2,001,2020_Jan_30_1219,posner,3.1.5,59.99818805478399,
0.5,180,1,right,2,4,1,0,1,0,8,7,71,6,,,,,,,,,435.2269683000004,435.72694350000074,436.44451950000075,None,435.7435469000002,436.4280567000005,436.9452799999999,437.4293666000003,right,1,0.511913899999854,436.9452799999999,None,None,435.7435469000002,436.9286639000002,0.5112749999998414,0.5946550999997271,1.7129844999999477,1.7963566999997056,,,,,,katie_2,001,2020_Jan_30_1219,posner,3.1.5,59.99818805478399,
0.5,180,1,right,2,4,1,0,1,0,9,0,72,6,,,,,,,,,437.4815774000008,437.9800500000001,438.69781220000004,None,437.9968290000006,438.68117540000003,439.19886100000076,None,right,1,0.32256210000014107,439.19886100000076,None,None,437.9968290000006,439.1815779000008,0.5097079999995913,0.5930997999994361,1.7112207999998645,1.7949363999996422,,,,,,katie_2,001,2020_Jan_30_1219,posner,3.1.5,59.99818805478399,
-0.5,0,1,left,1,3,1,0,1,0,9,1,73,0,,,,,,,,,439.5493234000005,440.0496582000005,440.7673013000003,None,440.0664418000006,440.75084289999995,441.26787349999995,None,left,1,0.3974158000000898,441.26787349999995,None,None,440.0664418000006,441.2515628000001,0.5119494000000486,0.5951294000005873,1.7138377999999648,1.7970094000002064,,,,,,katie_2,001,2020_Jan_30_1219,posner,3.1.5,59.99818805478399,
-0.5,0,1,left,1,3,1,0,1,0,9,2,74,2,,,,,,,,,441.68600890000016,442.18594790000043,442.9035221000004,None,442.20264040000075,442.88679780000075,443.40420840000024,None,left,1,0.4290529999998398,443.40420840000024,None,None,442.20264040000075,443.3876330000003,0.511500900000101,0.5947895999997854,1.713169800000287,1.796487999999954,,,,,,katie_2,001,2020_Jan_30_1219,posner,3.1.5,59.99818805478399,
0.5,0,0,right,1,4,1,0,1,0,9,3,75,3,,,,,,,,,443.85542669999995,444.35556220000035,445.07313330000034,None,444.3721920000007,445.05659300000025,445.57368339999994,446.0578052999999,right,1,0.9235986000003322,445.57368339999994,None,None,444.3721920000007,445.5572204,0.5120163999999932,0.5954486000000543,1.7136518000006618,1.7970824000003631,,,,,,katie_2,001,2020_Jan_30_1219,posner,3.1.5,59.99818805478399,
-0.5,180,0,left,2,3,1,0,1,0,9,4,76,4,,,,,,,,,446.5255341000002,447.0257967000007,447.7433634000008,None,447.0425139000008,447.72680760000003,448.2441923000006,None,left,1,0.4211075000002893,448.2441923000006,None,None,447.0425139000008,448.2275169000004,0.5118537999996988,0.5954327999997986,1.7135524999994232,1.7972390999993877,,,,,,katie_2,001,2020_Jan_30_1219,posner,3.1.5,59.99818805478399,
0.5,180,1,right,2,4,1,0,1,0,9,5,77,7,,,,,,,,,448.6954473000005,449.1956329000004,449.9131244,None,449.2120175,449.89649910000026,450.4138300000004,None,right,1,0.4273907999995572,450.4138300000004,None,None,449.2120175,450.39735760000076,0.5116312999998627,0.5953116999999111,1.7133414999998422,1.7967069999995147,,,,,,katie_2,001,2020_Jan_30_1219,posner,3.1.5,59.99818805478399,
0.5,180,1,right,2,4,1,0,1,0,9,6,78,5,,,,,,,,,450.8649563000008,451.3652473000002,452.08261720000064,None,451.38170380000065,452.0662531000007,452.58338170000025,453.0676274000007,None,0,,452.58338170000025,None,None,451.38170380000065,452.5667191000002,0.5115982999996049,0.5949566999997842,1.7130529999994906,1.796801399999822,,,,,,katie_2,001,2020_Jan_30_1219,posner,3.1.5,59.99818805478399,
-0.5,0,1,left,1,3,1,0,1,0,9,7,79,1,,,,,,,,,453.56821840000066,454.0688727000006,454.7864881000005,453.56821840000066,454.08570990000044,454.76989460000004,455.2872360000001,None,left,1,0.3298965000003591,455.2872360000001,None,None,454.08570990000044,455.27044410000053,0.5136225999995077,0.597029399999883,1.715183799999977,1.798706300000049,,,,,,katie_2,001,2020_Jan_30_1219,posner,3.1.5,59.99818805478399,
0.5,180,1,right,2,4,1,0,1,0,10,0,80,5,,,,,,,,,455.63864940000076,456.13850640000055,456.85612990000027,None,456.1552177000003,456.8393167000004,457.35651980000057,457.84080670000003,None,0,,457.35651980000057,None,None,456.1552177000003,457.34032950000073,0.5115281999997023,0.594708300000093,1.7133351000002222,1.7964786000002277,,,,,,katie_2,001,2020_Jan_30_1219,posner,3.1.5,59.99818805478399,
-0.5,0,1,left,1,3,1,0,1,0,10,1,81,1,,,,,,,,,458.3414031000002,458.8421253000006,459.55991410000024,458.3414031000002,458.85917000000063,459.54295600000023,460.06046570000035,None,left,1,0.3568151999998008,460.06046570000035,None,None,458.85917000000063,460.04368240000076,0.5136950000005527,0.5965045000002647,1.7152117000005092,1.7987902000004397,,,,,,katie_2,001,2020_Jan_30_1219,posner,3.1.5,59.99818805478399,
0.5,180,1,right,2,4,1,0,1,0,10,2,82,7,,,,,,,,,460.4451581000003,460.9449431000003,461.662593,None,460.9615736000005,461.6461355000001,462.16332390000025,None,right,1,0.413842900000418,462.16332390000025,None,None,460.9615736000005,462.14657590000024,0.5115215999994689,0.594891199999438,1.71287459999985,1.796588299999712,,,,,,katie_2,001,2020_Jan_30_1219,posner,3.1.5,59.99818805478399,
-0.5,180,0,left,2,3,1,0,1,0,10,3,83,4,,,,,,,,,462.59811119999995,463.0981277000001,463.81564310000067,None,463.11466139999993,463.7990453000002,464.31649689999995,None,left,1,0.4366210999996838,464.31649689999995,None,None,463.11466139999993,464.29974720000064,0.5115089000000808,0.5946815999996033,1.7131156999994346,1.7963479000000007,,,,,,katie_2,001,2020_Jan_30_1219,posner,3.1.5,59.99818805478399,
-0.5,0,1,left,1,3,1,0,1,0,10,4,84,0,,,,,,,,,464.78421530000014,465.28427960000045,466.00189430000046,None,465.30109260000063,465.9851683000006,466.50253150000026,466.9865911000006,left,1,0.4986581000002843,466.50253150000026,None,None,465.30109260000063,466.4859972000004,0.5114896999994016,0.5948939999998402,1.7131898999996338,1.7965349999994942,,,,,,katie_2,001,2020_Jan_30_1219,posner,3.1.5,59.99818805478399,
-0.5,0,1,left,1,3,1,0,1,0,10,5,85,2,,,,,,,,,467.0205932000008,467.5206394000006,468.2383200000004,None,467.5372645000007,468.22166070000003,468.73898700000063,469.22306430000026,None,0,,468.73898700000063,None,None,467.5372645000007,468.7222242000007,0.5114561000000322,0.5948990000006233,1.7130230000002484,1.7965745000001334,,,,,,katie_2,001,2020_Jan_30_1219,posner,3.1.5,59.99818805478399,
0.5,180,1,right,2,4,1,0,1,0,10,6,86,6,,,,,,,,,469.7236090000006,470.2243498000007,470.94201599999997,469.7236090000006,470.2411668000004,470.92549280000003,471.4429517000008,None,right,1,0.3101682999995319,471.4429517000008,None,None,470.2411668000004,471.42611810000017,0.513693200000489,0.5972681000002922,1.715436000000409,1.7988897000004727,,,,,,katie_2,001,2020_Jan_30_1219,posner,3.1.5,59.99818805478399,
0.5,0,0,right,1,4,1,0,1,0,10,7,87,3,,,,,,,,,471.77743400000054,472.2771990000001,472.9949056000005,None,472.29398690000016,472.97834200000034,473.49551690000044,473.9796778,right,1,0.4737745999991603,473.49551690000044,None,None,472.29398690000016,473.4790348000006,0.5113777999995364,0.5948977999996714,1.7131922999997187,1.7966411999996126,,,,,,katie_2,001,2020_Jan_30_1219,posner,3.1.5,59.99818805478399,
,,,,,,1,0,1,0,,,,,,,,,,,,,,,,,,,,,,,,,,,,,,,,,473.9967007000005,None,1.7999999727180693e-05,0.9956099000000904,,katie_2,001,2020_Jan_30_1219,posner,3.1.5,59.99818805478399,
0.5,180,1,right,2,4,2,0,2,0,0,0,0,5,1.2800000149582047e-05,0.09755669999958627,535.0134082000004,None,1.5999999959603883e-05,0.0978488999999172,537.1164104,None,537.3980649000005,537.9011026000007,538.6184711000005,None,537.9173989000001,538.6017728000006,539.1193801,None,right,1,0.3854867000000013,539.1193801,None,None,537.9173989000001,539.1024972000005,0.5117364999996425,0.5948194000002331,1.7131183000001329,1.796678200000315,,,,,,katie_2,001,2020_Jan_30_1219,posner,3.1.5,59.99818805478399,
0.5,0,0,right,1,4,2,0,2,0,0,1,1,3,,,,,,,,,539.5213510000003,540.0206097,540.7380101000008,None,540.0373527000002,540.7211964000007,541.2387736000001,None,right,1,0.37821099999928265,541.2387736000001,None,None,540.0373527000002,541.2221001000007,0.5108943000004729,0.5942061000005197,1.712373000000298,1.7961095000000569,,,,,,katie_2,001,2020_Jan_30_1219,posner,3.1.5,59.99818805478399,
-0.5,0,1,left,1,3,2,0,2,0,0,2,2,0,,,,,,,,,541.6400795,542.1401158000008,542.8576045,None,542.156747,542.8409550000006,543.3583658000007,None,left,1,0.4025091000003158,543.3583658000007,None,None,542.156747,543.3416801000003,0.5115911999992022,0.5948828999999023,1.7131401999995433,1.7966827999998713,,,,,,katie_2,001,2020_Jan_30_1219,posner,3.1.5,59.99818805478399,
-0.5,0,1,left,1,3,2,0,2,0,0,3,3,1,,,,,,,,,543.7763249,544.2763958000005,544.9939391000007,None,544.2929280000008,544.9771487000007,545.4948796000008,None,left,1,0.34592330000032234,545.4948796000008,None,None,544.2929280000008,545.4779572000007,0.5116374999997788,0.5951156999999512,1.713187299999845,1.7966489000000365,,,,,,katie_2,001,2020_Jan_30_1219,posner,3.1.5,59.99818805478399,
0.5,180,1,right,2,4,2,0,2,0,0,4,4,6,,,,,,,,,545.8623918000003,546.3624380000001,547.0802518,None,546.3791251000002,547.0636380000005,547.5808348,None,right,1,0.31600539999999455,547.5808348,None,None,546.3791251000002,547.5642188000002,0.5114364999999452,0.5949474999997619,1.7132252999999764,1.7966452000000572,,,,,,katie_2,001,2020_Jan_30_1219,posner,3.1.5,59.99818805478399,
0.5,180,1,right,2,4,2,0,2,0,0,5,5,7,,,,,,,,,547.9151237000005,548.4155537000006,549.1327738,None,548.4320471000001,549.1163353000002,549.6336088000007,None,right,1,0.27913770000031946,549.6336088000007,None,None,548.4320471000001,549.6169464000004,0.5118683999999121,0.5951337999995303,1.7132460999991963,1.7968434999993406,,,,,,katie_2,001,2020_Jan_30_1219,posner,3.1.5,59.99818805478399,
-0.5,0,1,left,1,3,2,0,2,0,0,6,6,2,,,,,,,,,549.9350030000005,550.4351155000004,551.1524681000001,None,550.4516065000007,551.1356757000003,551.6531530000002,None,left,1,0.4275149999994028,551.6531530000002,None,None,550.4516065000007,551.6364435000005,0.5118673999995735,0.5951305999997203,1.7131842999997389,1.7965863999997964,,,,,,katie_2,001,2020_Jan_30_1219,posner,3.1.5,59.99818805478399,
-0.5,180,0,left,2,3,2,0,2,0,0,7,7,4,,,,,,,,,552.1044669000003,552.6043608,553.3219937000003,None,552.6211503000004,553.3054212000006,553.8226632000005,None,left,1,0.38604839999970864,553.8226632000005,None,None,552.6211503000004,553.8060211000002,0.5114267999997537,0.5949134000002232,1.7130714000004446,1.7965813000000708,,,,,,katie_2,001,2020_Jan_30_1219,posner,3.1.5,59.99818805478399,
-0.5,180,0,left,2,3,2,0,2,0,1,0,8,4,,,,,,,,,554.2241948999999,554.7239053000003,555.4414895,None,554.7406092000001,555.4248775000005,555.9421198,None,left,1,0.42662469999959285,555.9421198,None,None,554.7406092000001,555.9256070000001,0.5113865000002988,0.5949699000002511,1.7130299999998897,1.7966713000005257,,,,,,katie_2,001,2020_Jan_30_1219,posner,3.1.5,59.99818805478399,
-0.5,0,1,left,1,3,2,0,2,0,1,1,9,0,,,,,,,,,556.3934197000008,556.8936108000007,557.6111731000001,None,556.9103902000006,557.5945203000001,558.1118617000002,None,left,1,0.32902520000061486,558.1118617000002,None,None,556.9103902000006,558.0954836999999,0.5117743000000701,0.595243599999776,1.7136219999993045,1.7968184999999721,,,,,,katie_2,001,2020_Jan_30_1219,posner,3.1.5,59.99818805478399,
0.5,0,0,right,1,4,2,0,2,0,1,2,10,3,,,,,,,,,558.4634740000001,558.9632651000002,559.6808631000004,None,558.9799091000004,559.6641028000004,560.1814565000004,560.6656659,right,1,0.47526860000016313,560.1814565000004,None,None,558.9799091000004,560.1649129000007,0.511600400000134,0.5949203999998645,1.7132251000002725,1.7967449000007036,,,,,,katie_2,001,2020_Jan_30_1219,posner,3.1.5,59.99818805478399,
0.5,180,1,right,2,4,2,0,2,0,1,3,11,5,,,,,,,,,560.6831819000008,561.1827650000005,561.9007167,None,561.1997188000005,561.8838446,562.4013934000004,None,right,1,0.45549429999937274,562.4013934000004,None,None,561.1997188000005,562.3846426,0.5113652000000002,0.5948524000004909,1.7132243000005474,1.7967043999997259,,,,,,katie_2,001,2020_Jan_30_1219,posner,3.1.5,59.99818805478399,
0.5,180,1,right,2,4,2,0,2,0,1,4,12,6,,,,,,,,,562.8855110000004,563.3857667000002,564.1036813999999,None,563.4025473000002,564.0870172000004,564.6042631,565.0880770000003,right,1,0.48441279999951803,564.6042631,None,None,563.4025473000002,564.5876416000001,0.5115355999996609,0.5953067000000374,1.7133868000000803,1.7967556000003242,,,,,,katie_2,001,2020_Jan_30_1219,posner,3.1.5,59.99818805478399,
0.5,180,1,right,2,4,2,0,2,0,1,5,13,7,,,,,,,,,565.1053794,565.6055432000003,566.3231530000003,None,565.6222736,566.3066652000007,566.8239347000008,None,right,1,0.3289157000008345,566.8239347000008,None,None,565.6222736,566.8072376,0.5121668000001591,0.5957735000001776,1.7138375999993514,1.797427699999389,,,,,,katie_2,001,2020_Jan_30_1219,posner,3.1.5,59.99818805478399,
-0.5,0,1,left,1,3,2,0,2,0,1,6,14,1,,,,,,,,,567.1754206000005,567.6752112000004,568.3925765000004,None,567.6918533000007,568.3762172000006,568.8934084000002,None,right,0,0.3953480000000127,568.8934084000002,None,None,567.6918533000007,568.8768618000004,0.5114579999999478,0.5946048000005248,1.7130629000002955,1.7964608000002045,,,,,,katie_2,001,2020_Jan_30_1219,posner,3.1.5,59.99818805478399,
-0.5,0,1,left,1,3,2,0,2,0,1,7,15,2,,,,,,,,,569.3113058000008,569.8114202000006,570.5290290000003,None,569.8280961,570.5123659999999,571.0299069000002,571.5138741000001,left,1,0.5787490000002435,571.0299069000002,None,None,569.8280961,571.0129259000005,0.510966400000143,0.5944387999998071,1.7124586999998428,1.796147000000019,,,,,,katie_2,001,2020_Jan_30_1219,posner,3.1.5,59.99818805478399,
0.5,180,1,right,2,4,2,0,2,0,2,0,16,5,,,,,,,,,571.6312321000005,572.1312968000002,572.8491129000004,None,572.1483855000006,572.8321636000001,573.3497791,None,right,1,0.43488199999956123,573.3497791,None,None,572.1483855000006,573.3328848000001,0.511710600000697,0.5951465000007374,1.7132862000007663,1.796777500000644,,,,,,katie_2,001,2020_Jan_30_1219,posner,3.1.5,59.99818805478399,
0.5,0,0,right,1,4,2,0,2,0,2,1,17,3,,,,,,,,,573.8009384000006,574.3010127000007,575.0185868000008,None,574.3175635000007,575.0019629000008,575.5192378000002,None,right,1,0.43359010000040143,575.5192378000002,None,None,574.3175635000007,575.5024903000003,0.5117400000008274,0.595057600000473,1.713205800000651,1.7968463000006523,,,,,,katie_2,001,2020_Jan_30_1219,posner,3.1.5,59.99818805478399,
-0.5,180,0,left,2,3,2,0,2,0,2,2,18,4,,,,,,,,,575.9707551000001,576.4706428,577.1880704000005,None,576.4872210000003,577.1713702000006,577.6889588000004,578.1728445000008,left,1,0.567954600000121,577.6889588000004,None,None,576.4872210000003,577.6721436000007,0.5114364999999452,0.5949060000002646,1.7129236000000674,1.796553799999856,,,,,,katie_2,001,2020_Jan_30_1219,posner,3.1.5,59.99818805478399,
0.5,180,1,right,2,4,2,0,2,0,2,3,19,6,,,,,,,,,578.2737683000005,578.7737941000005,579.4914009000004,None,578.7905091000002,579.4748175000004,579.9921101,580.4761867000007,right,1,0.5605404000007184,579.9921101,None,None,578.7905091000002,579.9756511000005,0.5116497999997591,0.5949186999996527,1.7134845000000496,1.7968493999997008,,,,,,katie_2,001,2020_Jan_30_1219,posner,3.1.5,59.99818805478399,
0.5,180,1,right,2,4,2,0,2,0,2,4,20,7,,,,,,,,,580.5768309000005,581.0769519000005,581.7944762000006,None,581.0935462000007,581.7778311000002,582.2953190000007,582.7792199000005,right,1,0.5453911000004155,582.2953190000007,None,None,581.0935462000007,582.2786733000003,0.5118006000002424,0.595121399999698,1.7135009000003265,1.7967816999998831,,,,,,katie_2,001,2020_Jan_30_1219,posner,3.1.5,59.99818805478399,
-0.5,0,1,left,1,3,2,0,2,0,2,5,21,1,,,,,,,,,582.8632910000006,583.3632599000002,584.0808917000004,None,583.3801669000004,584.06437,584.5815965000002,585.0656905000005,None,0,,584.5815965000002,None,None,583.3801669000004,584.5651067000008,0.5116265999995449,0.5951400000003559,1.713448999999855,1.7967467999997098,,,,,,katie_2,001,2020_Jan_30_1219,posner,3.1.5,59.99818805478399,
-0.5,0,1,left,1,3,2,0,2,0,2,6,22,0,,,,,,,,,585.5664298000002,586.0671016000006,586.7845652000005,585.5664298000002,586.0837811000001,586.7679780000008,587.2854203000006,None,left,1,0.37124519999997574,587.2854203000006,None,None,586.0837811000001,587.2687979000002,0.5136543000007805,0.5971808000003875,1.715327800000523,1.798808800000188,,,,,,katie_2,001,2020_Jan_30_1219,posner,3.1.5,59.99818805478399,
-0.5,0,1,left,1,3,2,0,2,0,2,7,23,2,,,,,,,,,587.6864758000002,588.1866994000002,588.9044797000006,None,588.2034168,588.8877823000003,589.4050290000005,None,left,1,0.4596377999996548,589.4050290000005,None,None,588.2034168,589.3884260000004,0.5116257000008773,0.5950894000006883,1.7133293000006233,1.796658600000228,,,,,,katie_2,001,2020_Jan_30_1219,posner,3.1.5,59.99818805478399,
0.5,180,1,right,2,4,2,0,2,0,3,0,24,7,,,,,,,,,589.8896175,590.3899988000003,591.1072466000005,None,590.4063785000008,591.0907974000002,591.6080252000002,589.8896175,right,1,0.4005504999995537,591.6080252000002,None,None,590.4063785000008,591.5914196000003,0.5119485000004715,0.5950593000006847,1.7133555000000342,1.796828500000629,,,,,,katie_2,001,2020_Jan_30_1219,posner,3.1.5,59.99818805478399,
0.5,180,1,right,2,4,2,0,2,0,3,1,25,6,,,,,,,,,592.0256458000003,592.5260375000007,593.2436663000008,None,592.5426512000004,593.2269756000005,593.7442761000002,None,right,1,0.4163255000003119,593.7442761000002,None,None,592.5426512000004,593.7278295000006,0.5124384000000646,0.5959786000003078,1.7142071999996915,1.797526000000289,,,,,,katie_2,001,2020_Jan_30_1219,posner,3.1.5,59.99818805478399,
-0.5,0,1,left,1,3,2,0,2,0,3,2,26,0,,,,,,,,,594.1789811000008,594.6789822000001,595.3966562000005,None,594.6955588999999,595.3799051000005,595.8973603000004,596.3812706000008,left,1,0.4952472000004491,595.8973603000004,None,None,594.6955588999999,595.8806412000004,0.5116340000004129,0.5950247999999192,1.7132702999997491,1.7967195000001084,,,,,,katie_2,001,2020_Jan_30_1219,posner,3.1.5,59.99818805478399,
-0.5,0,1,left,1,3,2,0,2,0,3,3,27,2,,,,,,,,,596.4153538,596.9154492000007,597.6327865000003,None,596.9320114000002,597.6164206000003,598.1335832000004,None,left,1,0.4430079999992813,598.1335832000004,None,None,596.9320114000002,598.1170431,0.5116594000000987,0.5950766999994812,1.7132340999996813,1.7968940000000657,,,,,,katie_2,001,2020_Jan_30_1219,posner,3.1.5,59.99818805478399,
-0.5,0,1,left,1,3,2,0,2,0,3,4,28,1,,,,,,,,,598.6016641000006,599.1017869000007,599.8194355000005,None,599.1183000000001,599.8025528000007,600.3199872000005,600.8039484999999,left,1,0.600661399999808,600.3199872000005,None,None,599.1183000000001,600.3034341000002,0.5118431000000783,0.5950988000004145,1.7134948000002623,1.797164900000098,,,,,,katie_2,001,2020_Jan_30_1219,posner,3.1.5,59.99818805478399,
-0.5,180,0,left,2,3,2,0,2,0,3,5,29,4,,,,,,,,,600.9385818000001,601.4384315000007,602.1559688000007,None,601.4550759000003,602.1394455,602.6565957000003,603.1405341,None,0,,602.6565957000003,None,None,601.4550759000003,602.6400277000002,0.5117843999996694,0.594962399999531,1.7133588999995482,1.7967086999997264,,,,,,katie_2,001,2020_Jan_30_1219,posner,3.1.5,59.99818805478399,
0.5,180,1,right,2,4,2,0,2,0,3,6,30,5,,,,,,,,,603.6412734000005,604.1418889000006,604.8596959000006,603.6412734000005,604.1588121000004,604.8428368000004,605.3602335000005,None,right,1,0.32829380000021047,605.3602335000005,None,None,604.1588121000004,605.3436283000001,0.5138790999999401,0.5974441999996998,1.7155962999995609,1.7989525000002686,,,,,,katie_2,001,2020_Jan_30_1219,posner,3.1.5,59.99818805478399,
0.5,0,0,right,1,4,2,0,2,0,3,7,31,3,,,,,,,,,605.7116618,606.2113238000002,606.9292805000005,None,606.2280184000001,606.9122500000003,607.4299800000008,None,right,1,0.44262759999946866,607.4299800000008,None,None,606.2280184000001,607.4131499000005,0.5113070999996125,0.5948886999995011,1.7131186999995407,1.796860700000252,,,,,,katie_2,001,2020_Jan_30_1219,posner,3.1.5,59.99818805478399,
0.5,180,1,right,2,4,2,0,2,0,4,0,32,5,,,,,,,,,607.8978258000006,608.3981188000007,609.1154604000003,None,608.4144092000006,609.0988432000004,609.6162678000001,None,right,1,0.42441499999949883,609.6162678000001,None,None,608.4144092000006,609.5997244,0.5118509000003542,0.5949007999997775,1.713439400000425,1.796636000000035,,,,,,katie_2,001,2020_Jan_30_1219,posner,3.1.5,59.99818805478399,
-0.5,180,0,left,2,3,2,0,2,0,4,1,33,4,,,,,,,,,610.0674815000002,610.5674050000007,611.2851183000002,None,610.5840880000005,611.2686045,611.7859031000007,612.2700775000003,left,1,0.4785388000000239,611.7859031000007,None,None,610.5840880000005,611.7694280000005,0.5115027000001646,0.5950924999997369,1.7135115000000951,1.796704200000022,,,,,,katie_2,001,2020_Jan_30_1219,posner,3.1.5,59.99818805478399,
-0.5,0,1,left,1,3,2,0,2,0,4,2,34,1,,,,,,,,,612.2870516000003,612.7869280000004,613.5048437000005,None,612.8038258000006,613.4881535000004,614.0054619000002,614.4895973000002,left,1,0.579100500000095,614.0054619000002,None,None,612.8038258000006,613.9889778000006,0.5114557000006243,0.5952280999999857,1.7134845999999015,1.7967524000005142,,,,,,katie_2,001,2020_Jan_30_1219,posner,3.1.5,59.99818805478399,
-0.5,0,1,left,1,3,2,0,2,0,4,3,35,2,,,,,,,,,614.6068395000002,615.1070152000002,615.8247928999999,None,615.1237568000006,615.8079545,616.3253161000002,None,left,1,0.45913240000027145,616.3253161000002,None,None,615.1237568000006,616.3087618,0.5121986000003744,0.5958497999999963,1.7139218000002074,1.7972878999999011,,,,,,katie_2,001,2020_Jan_30_1219,posner,3.1.5,59.99818805478399,
-0.5,0,1,left,1,3,2,0,2,0,4,4,36,0,,,,,,,,,616.8100445,617.3101911000003,618.0276743000004,None,617.3267787000004,618.0110532000008,618.5285885000003,619.0123740000008,None,0,,618.5285885000003,None,None,617.3267787000004,618.5116895000001,0.5114794000000984,0.5948221999997259,1.71296540000003,1.796537399999579,,,,,,katie_2,001,2020_Jan_30_1219,posner,3.1.5,59.99818805478399,
0.5,180,1,right,2,4,2,0,2,0,4,5,37,7,,,,,,,,,619.5131387000001,620.0137710000008,620.7314208000007,619.5131387000001,620.0304112000003,620.7149143000006,621.2319526000001,621.7160879000003,right,1,0.5128042999995159,621.2319526000001,None,right,620.0304112000003,621.2154180000007,0.5142501000000266,0.5978207000007387,1.715881700000864,1.7995992000005572,,,,,0.5141500999998243,katie_2,001,2020_Jan_30_1219,posner,3.1.5,59.99818805478399,
0.5,0,0,right,1,4,2,0,2,0,4,6,38,3,,,,,,,,,621.7670954000005,622.2671186000007,622.9846696000004,None,622.2835518000002,622.9678528000004,623.4852675000002,None,right,1,0.33123929999965185,623.4852675000002,None,None,622.2835518000002,623.4684498000006,0.5114081000001534,0.5949577999999747,1.7127244000002975,1.796322400000463,,,,,,katie_2,001,2020_Jan_30_1219,posner,3.1.5,59.99818805478399,
0.5,180,1,right,2,4,2,0,2,0,4,7,39,6,,,,,,,,,623.8366945000007,624.3364722000006,625.0543176000001,None,624.3530606000004,625.0372580000003,625.5547565000006,None,right,1,0.421691099999407,625.5547565000006,None,None,624.3530606000004,625.5381824000006,0.5113466000002518,0.5947594999997818,1.7130357999994885,1.7962246999995841,,,,,,katie_2,001,2020_Jan_30_1219,posner,3.1.5,59.99818805478399,
-0.5,0,1,left,1,3,2,0,2,0,5,0,40,0,,,,,,,,,626.0059439000006,626.5060608000003,627.2236882000007,None,626.5227752000001,627.2070590000003,627.7243974000003,None,left,1,0.39598579999983485,627.7243974000003,None,None,626.5227752000001,627.7077095000004,0.511489000000438,0.5949151000004349,1.7131319000000076,1.7966282000006686,,,,,,katie_2,001,2020_Jan_30_1219,posner,3.1.5,59.99818805478399,
-0.5,0,1,left,1,3,2,0,2,0,5,1,41,2,,,,,,,,,628.1424503000007,628.6422950000006,629.3599810000005,None,628.6591373000001,629.3432677000001,629.8605946000007,630.3445881000007,left,1,0.4758644000003187,629.8605946000007,None,None,628.6591373000001,629.8439479000008,0.5114166000003024,0.5950477999995201,1.7130513000001883,1.7964443000000756,,,,,,katie_2,001,2020_Jan_30_1219,posner,3.1.5,59.99818805478399,
-0.5,0,1,left,1,3,2,0,2,0,5,2,42,1,,,,,,,,,630.3617127000007,630.8619504000008,631.5798629000001,None,630.8788425000002,631.5630717000004,632.0804448000008,None,left,1,0.39200419999997393,632.0804448000008,None,None,630.8788425000002,632.0637141000007,0.5116496999999072,0.5953452999992805,1.7134001999993416,1.7968745999996827,,,,,,katie_2,001,2020_Jan_30_1219,posner,3.1.5,59.99818805478399,
-0.5,180,0,left,2,3,2,0,2,0,5,3,43,4,,,,,,,,,632.4981832000003,632.9984964000005,633.7161011000007,None,633.0149051000008,633.6993769000001,634.2166930000003,None,left,1,0.4238863999999012,634.2166930000003,None,None,633.0149051000008,634.2001186000007,0.5116821000001437,0.5948427000002994,1.7132877000003646,1.7967297000004692,,,,,,katie_2,001,2020_Jan_30_1219,posner,3.1.5,59.99818805478399,
0.5,180,1,right,2,4,2,0,2,0,5,4,44,6,,,,,,,,,634.6680225,635.1678391000005,635.8857886000005,None,635.1848943000005,635.8690399000006,636.3864861000002,636.8704585000005,right,1,0.6139034999996511,636.3864861000002,None,None,635.1848943000005,636.3697563000005,0.5114487000000736,0.5949421000004804,1.7133423000004768,1.7966277000004993,,,,,,katie_2,001,2020_Jan_30_1219,posner,3.1.5,59.99818805478399,
0.5,0,0,right,1,4,2,0,2,0,5,5,45,3,,,,,,,,,637.0213820000008,637.5209963000007,638.2390301000005,None,637.5379245000004,638.2219918999999,638.7396413000006,639.2235706000001,None,0,,638.7396413000006,None,None,637.5379245000004,638.7228174000002,0.5112795999993978,0.5949405000001207,1.7130825999993249,1.7964719999999943,,,,,,katie_2,001,2020_Jan_30_1219,posner,3.1.5,59.99818805478399,
0.5,180,1,right,2,4,2,0,2,0,5,6,46,7,,,,,,,,,639.7243444000005,640.2250200000008,640.9425470000006,639.7243444000005,640.2416131,640.9258746000005,641.4432221000006,641.9272526000004,None,0,,641.4432221000006,None,None,640.2416131,641.4266079000008,0.5137871999995696,0.5971400999997059,1.715360099999998,1.7988516999994317,,,,,,katie_2,001,2020_Jan_30_1219,posner,3.1.5,59.99818805478399,
0.5,180,1,right,2,4,2,0,2,0,5,7,47,5,,,,,,,,,642.4280941000006,642.9287081000002,643.6464186000003,642.4280941000006,642.9453661000007,643.6296784000006,644.1469420000003,None,right,1,0.38147660000049655,644.1469420000003,None,None,642.9453661000007,644.1304335000004,0.5137966000002052,0.5970866000006936,1.7155058000007557,1.7989027000003261,,,,,,katie_2,001,2020_Jan_30_1219,posner,3.1.5,59.99818805478399,
0.5,180,1,right,2,4,2,0,2,0,6,0,48,7,,,,,,,,,644.5483945000005,645.0482483000005,645.7660487000003,None,645.0652457000006,645.7493996000003,646.2665671000004,None,right,1,0.38187979999929667,646.2665671000004,None,None,645.0652457000006,646.2500878000001,0.5115894999999,0.5950442000003022,1.7134100000002945,1.7968164000003526,,,,,,katie_2,001,2020_Jan_30_1219,posner,3.1.5,59.99818805478399,
0.5,180,1,right,2,4,2,0,2,0,6,1,49,6,,,,,,,,,646.6681455000007,647.1676989000007,647.8855573000001,None,647.1845884000004,647.8688614000002,648.3860021,None,right,1,0.37449889999970765,648.3860021,None,None,647.1845884000004,648.3696975000003,0.5111840999998094,0.594763399999465,1.7131612999992285,1.7963866000000053,,,,,,katie_2,001,2020_Jan_30_1219,posner,3.1.5,59.99818805478399,
-0.5,180,0,left,2,3,2,0,2,0,6,2,50,4,,,,,,,,,648.7874817000002,649.2873014000006,650.0051470000008,None,649.3041059000006,649.9885239000005,650.5056480000003,None,left,1,0.40679759999966336,650.5056480000003,None,None,649.3041059000006,650.4891932,0.5114148000002388,0.594839299999876,1.7132849999998143,1.7964984999998705,,,,,,katie_2,001,2020_Jan_30_1219,posner,3.1.5,59.99818805478399,
0.5,180,1,right,2,4,2,0,2,0,6,3,51,5,,,,,,,,,650.9406544000003,651.4402103000002,652.1581621000005,None,651.4569242000007,652.1412270999999,652.6587941000007,None,right,1,0.3175396999995428,652.6587941000007,None,None,651.4569242000007,652.6418750000003,0.5112998000004154,0.5948613999998997,1.7129523000003246,1.796527600000445,,,,,,katie_2,001,2020_Jan_30_1219,posner,3.1.5,59.99818805478399,
-0.5,0,1,left,1,3,2,0,2,0,6,4,52,1,,,,,,,,,652.9932718,653.4932509,654.2107475000003,None,653.5099476000005,654.1940705000006,654.7114895000004,None,left,1,0.4249646999996912,654.7114895000004,None,None,653.5099476000005,654.6949116000005,0.511561499999516,0.5948938000001363,1.7132056000000375,1.7969207999994978,,,,,,katie_2,001,2020_Jan_30_1219,posner,3.1.5,59.99818805478399,
-0.5,0,1,left,1,3,2,0,2,0,6,5,53,2,,,,,,,,,655.1627307000008,655.6629219000006,656.3807067000007,None,655.6795773000003,656.3638185,656.8810819,None,left,1,0.36738880000029894,656.8810819,None,None,655.6795773000003,656.8646109000001,0.5118052000007083,0.5952460000007704,1.713468300000386,1.7967889999999898,,,,,,katie_2,001,2020_Jan_30_1219,posner,3.1.5,59.99818805478399,
-0.5,0,1,left,1,3,2,0,2,0,6,6,54,0,,,,,,,,,657.2659905,657.7657980000004,658.4832552000007,None,657.7823649000002,658.4667790000003,658.9841305,None,left,1,0.36816170000020065,658.9841305,None,None,657.7823649000002,658.9673938000005,0.5114317999996274,0.594885599999543,1.7130170999998882,1.7965042999994694,,,,,,katie_2,001,2020_Jan_30_1219,posner,3.1.5,59.99818805478399,
0.5,0,0,right,1,4,2,0,2,0,6,7,55,3,,,,,,,,,659.3684807,659.8685994000007,660.5862925000001,None,659.8853958,660.5697048000002,661.0870943,None,right,1,0.3615258999998332,661.0870943,None,None,659.8853958,661.0702388,0.511839400000099,0.5952681999997367,1.713455499999327,1.7970411999995122,,,,,,katie_2,001,2020_Jan_30_1219,posner,3.1.5,59.99818805478399,
-0.5,0,1,left,1,3,2,0,2,0,7,0,56,0,,,,,,,,,661.4712882000003,661.9714412000003,662.6893135,None,661.9883815000003,662.6723467000002,663.1897741000002,None,left,1,0.45854939999935596,663.1897741000002,None,None,661.9883815000003,663.1730216000005,0.5117250000002969,0.5951750000003813,1.7132872000001953,1.7967803000001368,,,,,,katie_2,001,2020_Jan_30_1219,posner,3.1.5,59.99818805478399,
0.5,180,1,right,2,4,2,0,2,0,7,1,57,5,,,,,,,,,663.6743930000002,664.1745163000005,664.8921340000006,None,664.1910700000008,664.8756302000002,665.3928044000004,663.6743930000002,right,1,0.33554800000001705,665.3928044000004,None,None,664.1910700000008,665.3763055,0.5116444000004776,0.5950875999997152,1.7134095999999772,1.796985500000119,,,,,,katie_2,001,2020_Jan_30_1219,posner,3.1.5,59.99818805478399,
-0.5,0,1,left,1,3,2,0,2,0,7,2,58,1,,,,,,,,,665.7439614000004,666.2440349000008,666.9616602000006,None,666.2607954000005,666.9450204000004,667.4623234999999,None,left,1,0.36997700000029,667.4623234999999,None,None,666.2607954000005,667.4458362000005,0.5118180999998003,0.5953702999995585,1.7135668999999325,1.7968616999996812,,,,,,katie_2,001,2020_Jan_30_1219,posner,3.1.5,59.99818805478399,
0.5,180,1,right,2,4,2,0,2,0,7,3,59,7,,,,,,,,,667.8632385999999,668.3635736000006,669.0812652000004,None,668.3804341000005,669.0646366000001,669.5819627000001,None,right,1,0.3224299000003157,669.5819627000001,None,None,668.3804341000005,669.5654107,0.5119879000003493,0.5957405999997718,1.7137688000002527,1.7970531000000847,,,,,,katie_2,001,2020_Jan_30_1219,posner,3.1.5,59.99818805478399,
0.5,0,0,right,1,4,2,0,2,0,7,4,60,3,,,,,,,,,669.9335074,670.4332656000006,671.1507232000004,None,670.4497253,671.1343697000002,671.6515684000005,None,right,1,0.42077190000054543,671.6515684000005,None,None,670.4497253,671.6348298000003,0.5115001000003758,0.5947151000000304,1.7130370000004405,1.7965475999999398,,,,,,katie_2,001,2020_Jan_30_1219,posner,3.1.5,59.99818805478399,
-0.5,0,1,left,1,3,2,0,2,0,7,5,61,2,,,,,,,,,672.1022720999999,672.6028368000007,673.3203292000007,None,672.6197135000002,673.3040158000003,673.8210434000002,674.3050937000007,None,0,,673.8210434000002,None,None,672.6197135000002,673.8047689000005,0.5119259000002785,0.5954733999997188,1.7138356999994357,1.7971293999999034,,,,,,katie_2,001,2020_Jan_30_1219,posner,3.1.5,59.99818805478399,
0.5,180,1,right,2,4,2,0,2,0,7,6,62,6,,,,,,,,,674.8058783000006,675.3065083000001,676.024265,674.8058783000006,675.3231011000007,676.0074988000006,676.5248193000007,None,right,1,0.4594385999998849,676.5248193000007,None,right,675.3231011000007,676.5081794000007,0.5138651999996,0.597364700000071,1.7155157999995936,1.7989505999994435,,,,,0.3892389999991792,katie_2,001,2020_Jan_30_1219,posner,3.1.5,59.99818805478399,
-0.5,180,0,left,2,3,2,0,2,0,7,7,63,4,,,,,,,,,677.0097184000006,677.5096716000007,678.2272830000002,None,677.526237,678.2104793000008,678.7279759000003,679.2119056000001,None,0,,678.7279759000003,None,None,677.526237,678.7111541000004,0.5115984999993088,0.5949269999991884,1.713065999999344,1.796588499999416,,,,,,katie_2,001,2020_Jan_30_1219,posner,3.1.5,59.99818805478399,
-0.5,0,1,left,1,3,2,0,2,0,8,0,64,1,,,,,,,,,679.7124621000003,680.2133283000003,680.9309350000003,679.7124621000003,680.2299935000001,680.9143409000008,681.4316567000005,None,left,1,0.35260050000033516,681.4316567000005,None,None,680.2299935000001,681.4149002000004,0.514139900000373,0.597560600000179,1.7156929000002492,1.799226200000703,,,,,,katie_2,001,2020_Jan_30_1219,posner,3.1.5,59.99818805478399,
-0.5,180,0,left,2,3,2,0,2,0,8,1,65,4,,,,,,,,,681.8155445000002,682.3161489000004,683.0337319,None,682.3328257000003,683.0171171000002,683.5345403000001,684.0185820000006,left,1,0.6578293000002304,683.5345403000001,None,None,682.3328257000003,683.5178671000003,0.5114768000003096,0.5951500000001033,1.7131725999997798,1.7966490999997404,,,,,,katie_2,001,2020_Jan_30_1219,posner,3.1.5,59.99818805478399,
0.5,180,1,right,2,4,2,0,2,0,8,2,66,5,,,,,,,,,684.2193109,684.7195114000006,685.4373674000008,None,684.7362426,685.4204825000006,685.9379673000003,686.4217051000005,None,0,,685.9379673000003,None,None,684.7362426,685.921061,0.5117688000000271,0.5951340000001437,1.713306200000261,1.7969526000006226,,,,,,katie_2,001,2020_Jan_30_1219,posner,3.1.5,59.99818805478399,
-0.5,0,1,left,1,3,2,0,2,0,8,3,67,2,,,,,,,,,686.9223427000006,687.4231559,688.1408842000001,686.9223427000006,687.4399359000008,688.1242523999999,688.6415298000002,689.1255824,left,1,0.9267299000002822,688.6415298000002,None,None,687.4399359000008,688.6249329000002,0.5135110999999597,0.5972711999993408,1.7152650999996695,1.798667399999431,,,,,,katie_2,001,2020_Jan_30_1219,posner,3.1.5,59.99818805478399,
0.5,180,1,right,2,4,2,0,2,0,8,4,68,6,,,,,,,,,689.5930589,690.0934223000004,690.8111146000001,None,690.1101381000008,690.7947442000004,691.3117864000005,691.7959545000003,right,1,0.5286321000003227,691.3117864000005,None,None,690.1101381000008,691.2951863000008,0.5119358000001739,0.5954939000002923,1.713675300000432,1.797327000000223,,,,,,katie_2,001,2020_Jan_30_1219,posner,3.1.5,59.99818805478399,
0.5,180,1,right,2,4,2,0,2,0,8,5,69,7,,,,,,,,,691.8631829000005,692.3633238000002,693.0808618000001,None,692.3801379000006,693.064429,693.5815405000003,None,right,1,0.44260380000014266,693.5815405000003,None,None,692.3801379000006,693.5649811000003,0.5116984999995111,0.5951023999996323,1.713336299999355,1.7968088999996326,,,,,,katie_2,001,2020_Jan_30_1219,posner,3.1.5,59.99818805478399,
-0.5,0,1,left,1,3,2,0,2,0,8,6,70,0,,,,,,,,,694.0494177,694.5497506000002,695.2672934000002,None,694.5664569,695.2506098000003,695.7679350000008,None,left,1,0.4483823000000484,695.7679350000008,None,None,694.5664569,695.7514020000008,0.5115910000004078,0.5949306000002252,1.7132227000001876,1.7965625000006185,,,,,,katie_2,001,2020_Jan_30_1219,posner,3.1.5,59.99818805478399,
