targetX,cueOri,congr,corrAns,pin_cue,pin_target,block.thisRepN,block.thisTrialN,block.thisN,block.thisIndex,posner_task.thisRepN,posner_task.thisTrialN,posner_task.thisN,posner_task.thisIndex,port_start_block.started,port_start_block.stopped,text_2.started,text_2.stopped,p_port.started,p_port.stopped,text.started,text.stopped,fixation_1.started,fixation_1.stopped,fixation_2.started,fixation_2.stopped,cue.started,cue.stopped,target.started,target.stopped,correct_key_resp.keys,correct_key_resp.corr,correct_key_resp.rt,correct_key_resp.started,correct_key_resp.stopped,early_resp.keys,early_resp.started,early_resp.stopped,trigger_cue.started,trigger_cue.stopped,trigger_target.started,trigger_target.stopped,break_text.started,break_text.stopped,end_port.started,end_port.stopped,early_resp.rt,participant,session,date,expName,psychopyVersion,frameRate,
0.5,180,1,right,2,4,0,0,0,0,0,0,0,5,1.6899999536690302e-05,0.09210999999959313,17.313343700000587,None,1.4100000043981709e-05,0.09967880000021978,19.199160199999824,None,19.545248899999933,20.0501948000001,20.7680191999998,None,20.066801800000576,20.751257400000213,21.268627200000083,None,right,1,0.30766419999963546,21.268627200000083,None,None,20.066801800000576,21.251906500000587,0.5145759000006365,0.5980951000001369,1.7162718999998106,1.7995723000003636,,,,,,faizah_2,001,2020_Jan_10_1411,posner,3.1.5,60.07326535446807,
0.5,0,0,right,1,4,0,0,0,0,0,1,1,3,,,,,,,,,21.604193199999827,22.103146899999956,22.820850199999768,None,22.119701300000088,22.803977399999894,23.321354100000462,None,right,1,0.4071807999998782,23.321354100000462,None,None,22.119701300000088,23.304686200000106,0.5108305000003384,0.5940829999999551,1.7123508000004222,1.795751100000416,,,,,,faizah_2,001,2020_Jan_10_1411,posner,3.1.5,60.07326535446807,
-0.5,0,1,left,1,3,0,0,0,0,0,2,2,1,,,,,,,,,23.756305699999757,24.256200300000273,24.9736010000006,None,24.27276249999977,24.956897900000513,25.474384699999973,None,left,1,0.269856300000356,25.474384699999973,None,None,24.27276249999977,25.457744400000593,0.5118345999999292,0.5951276999994661,1.7133069999999861,1.796781099999862,,,,,,faizah_2,001,2020_Jan_10_1411,posner,3.1.5,60.07326535446807,
-0.5,0,1,left,1,3,0,0,0,0,0,3,3,2,,,,,,,,,25.775729900000442,26.275396800000635,26.993015000000014,None,26.292068000000654,26.97639010000057,27.49380569999994,None,left,1,0.27442530000007537,27.49380569999994,None,None,26.292068000000654,27.47733849999986,0.5115570999996635,0.5949344000000565,1.7134821999998167,1.7965868000001137,,,,,,faizah_2,001,2020_Jan_10_1411,posner,3.1.5,60.07326535446807,
0.5,180,1,right,2,4,0,0,0,0,0,4,4,7,,,,,,,,,27.79511999999977,28.294879900000524,29.01252900000054,None,28.311775400000442,28.995937400000003,29.51306410000052,None,right,1,0.2872098999996524,29.51306410000052,None,None,28.311775400000442,29.496690699999817,0.5115452000000005,0.595174600000064,1.7133501999996952,1.796752899999774,,,,,,faizah_2,001,2020_Jan_10_1411,posner,3.1.5,60.07326535446807,
0.5,180,1,right,2,4,0,0,0,0,0,5,5,6,,,,,,,,,29.831126699999913,30.33117130000028,31.048856700000215,None,30.347867000000406,31.031831299999794,31.549267500000497,None,left,0,0.3071191999997609,31.549267500000497,None,None,30.347867000000406,31.532727100000557,0.5118489000005866,0.5950560000001133,1.7133804000004602,1.7967207000001508,,,,,,faizah_2,001,2020_Jan_10_1411,posner,3.1.5,60.07326535446807,
-0.5,180,0,left,2,3,0,0,0,0,0,6,6,4,,,,,,,,,31.884081600000172,32.38313090000065,33.10166790000039,None,32.40057049999996,33.08467650000057,33.602265100000295,None,left,1,0.3902612000001682,33.602265100000295,None,None,32.40057049999996,33.58532850000029,0.5109499000000142,0.5948414999993474,1.7130836999995154,1.7967466000000059,,,,,,faizah_2,001,2020_Jan_10_1411,posner,3.1.5,60.07326535446807,
-0.5,0,1,left,1,3,0,0,0,0,0,7,7,0,,,,,,,,,34.02040730000044,34.52013580000039,35.23782709999978,None,34.53683150000052,35.22104850000051,35.73851430000013,None,left,1,0.341847400000006,35.73851430000013,None,None,34.53683150000052,35.72180610000032,0.5115129999994679,0.5949229999996533,1.713179499999569,1.7966123999995034,,,,,,faizah_2,001,2020_Jan_10_1411,posner,3.1.5,60.07326535446807,
0.5,0,0,right,1,4,0,0,0,0,1,0,8,3,,,,,,,,,36.10632880000048,36.60645889999978,37.323907099999815,None,36.622885300000235,37.30730409999978,37.824549099999786,None,right,1,0.36767129999952886,37.824549099999786,None,None,36.622885300000235,37.80801489999976,0.5118853999993007,0.5949292999994213,1.7134259999993446,1.7967515999998795,,,,,,faizah_2,001,2020_Jan_10_1411,posner,3.1.5,60.07326535446807,
-0.5,0,1,left,1,3,0,0,0,0,1,1,9,0,,,,,,,,,38.2086704000003,38.70916649999981,39.42678119999982,None,38.72584300000017,39.41020740000022,39.9276804000001,None,left,1,0.3845229999997173,39.9276804000001,None,None,38.72584300000017,39.91098899999997,0.5122248999996373,0.5958646999997654,1.7140348000002632,1.7972513000004255,,,,,,faizah_2,001,2020_Jan_10_1411,posner,3.1.5,60.07326535446807,
-0.5,180,0,left,2,3,0,0,0,0,1,2,10,4,,,,,,,,,40.32915360000061,40.82877970000027,41.546545199999855,None,40.845392000000174,41.529787500000566,42.04724520000036,None,left,1,0.4009116000006543,42.04724520000036,None,None,40.845392000000174,42.030387200000405,0.5114151999996466,0.5948830999996062,1.7130106999993586,1.7965447999995376,,,,,,faizah_2,001,2020_Jan_10_1411,posner,3.1.5,60.07326535446807,
0.5,180,1,right,2,4,0,0,0,0,1,3,11,7,,,,,,,,,42.46529540000029,42.964924200000496,43.68267509999987,None,42.98186119999991,43.6659338999998,44.18353130000014,None,right,1,0.25679519999994227,44.18353130000014,None,None,42.98186119999991,44.16658670000015,0.5116036999997959,0.5951856000001499,1.7132541000000856,1.7966575000000375,,,,,,faizah_2,001,2020_Jan_10_1411,posner,3.1.5,60.07326535446807,
-0.5,0,1,left,1,3,0,0,0,0,1,4,12,2,,,,,,,,,44.467446600000585,44.967916499999774,45.68534319999981,None,44.98432680000042,45.66868760000034,46.186074300000655,None,left,1,0.29415029999927356,46.186074300000655,None,None,44.98432680000042,46.16950970000016,0.5123885999992126,0.5957893999993757,1.713960699999916,1.797382199999447,,,,,,faizah_2,001,2020_Jan_10_1411,posner,3.1.5,60.07326535446807,
-0.5,0,1,left,1,3,0,0,0,0,1,5,13,1,,,,,,,,,46.504312900000514,47.00386770000023,47.72168140000031,None,47.02061969999977,47.7048377000001,48.22232690000055,None,left,1,0.34584710000035557,48.22232690000055,None,None,47.02061969999977,48.205546300000606,0.5114629999998215,0.5950179999999818,1.713130999999521,1.7964689999998882,,,,,,faizah_2,001,2020_Jan_10_1411,posner,3.1.5,60.07326535446807,
0.5,180,1,right,2,4,0,0,0,0,1,6,14,5,,,,,,,,,48.59048510000048,49.09015189999991,49.807832399999825,None,49.10675050000009,49.791131800000585,50.30839240000023,None,right,1,0.29183110000030865,50.30839240000023,None,None,49.10675050000009,50.29187610000008,0.5115805000004912,0.5950141000002986,1.7132840000003853,1.7965585000001738,,,,,,faizah_2,001,2020_Jan_10_1411,posner,3.1.5,60.07326535446807,
0.5,180,1,right,2,4,0,0,0,0,1,7,15,6,,,,,,,,,50.62662610000007,51.12657510000008,51.844055200000184,None,51.14306540000052,51.82739690000017,52.34477700000025,52.82869310000024,None,0,,52.34477700000025,None,None,51.14306540000052,52.32781510000041,0.5117466000001514,0.5949132000005193,1.7129747999997562,1.7966599000001224,,,,,,faizah_2,001,2020_Jan_10_1411,posner,3.1.5,60.07326535446807,
-0.5,180,0,left,2,3,0,0,0,0,2,0,16,4,,,,,,,,,53.32945550000022,53.830038799999784,54.54771470000014,53.32945550000022,53.84689799999978,54.53124630000002,55.04845569999998,None,left,1,0.399955000000773,55.04845569999998,None,None,53.84689799999978,55.031542900000204,0.5137840999996115,0.5971000999998068,1.7152729999997973,1.7987653000000137,,,,,,faizah_2,001,2020_Jan_10_1411,posner,3.1.5,60.07326535446807,
0.5,180,1,right,2,4,0,0,0,0,2,1,17,6,,,,,,,,,55.46683490000032,55.966401399999995,56.68379559999994,None,55.98275620000004,56.66724090000025,57.184292099999766,None,right,1,0.28783670000029815,57.184292099999766,None,None,55.98275620000004,57.16787889999978,0.5115535999993881,0.5949163999994198,1.7130107999992106,1.7965208999994502,,,,,,faizah_2,001,2020_Jan_10_1411,posner,3.1.5,60.07326535446807,
-0.5,0,1,left,1,3,0,0,0,0,2,2,18,1,,,,,,,,,57.50198530000034,58.00237130000005,58.72006479999982,None,58.01902510000036,58.70316450000064,59.22083680000014,None,left,1,0.33132630000000063,59.22083680000014,None,None,58.01902510000036,59.20388490000005,0.5118851999995968,0.5953610999995362,1.7133801999998468,1.7971153999997114,,,,,,faizah_2,001,2020_Jan_10_1411,posner,3.1.5,60.07326535446807,
-0.5,0,1,left,1,3,0,0,0,0,2,3,19,0,,,,,,,,,59.57200499999999,60.071917199999916,60.789458500000364,None,60.08854119999978,60.772854599999846,61.290310899999895,None,left,1,0.39012800000000425,61.290310899999895,None,None,60.08854119999978,61.2734332,0.5115291000001889,0.5948642000003019,1.7130307999996148,1.7966655999998693,,,,,,faizah_2,001,2020_Jan_10_1411,posner,3.1.5,60.07326535446807,
0.5,0,0,right,1,4,0,0,0,0,2,4,20,3,,,,,,,,,61.70828150000034,62.20820139999978,62.92571700000008,None,62.22483900000043,62.90912430000026,63.42636219999986,None,right,1,0.4379382999995869,63.42636219999986,None,None,62.22483900000043,63.40977509999993,0.5115491000005932,0.5949272000007113,1.7130998000002364,1.7965744000002815,,,,,,faizah_2,001,2020_Jan_10_1411,posner,3.1.5,60.07326535446807,
0.5,180,1,right,2,4,0,0,0,0,2,5,21,5,,,,,,,,,63.894732300000214,64.39445280000018,65.11240960000032,None,64.41132500000003,65.09547800000018,65.6128647000005,None,right,1,0.275414699999601,65.6128647000005,None,None,64.41132500000003,65.59622170000057,0.5114314000002196,0.5949430000000575,1.7131792000000132,1.7965598999999202,,,,,,faizah_2,001,2020_Jan_10_1411,posner,3.1.5,60.07326535446807,
0.5,180,1,right,2,4,0,0,0,0,2,6,22,7,,,,,,,,,65.91447060000064,66.41403790000004,67.13180400000056,None,66.43073960000038,67.11482119999982,67.6322467,None,right,1,0.3519295999994938,67.6322467,None,None,66.43073960000038,67.6155144000004,0.5114440999996077,0.5949377999995704,1.7129659000001993,1.7964427999995678,,,,,,faizah_2,001,2020_Jan_10_1411,posner,3.1.5,60.07326535446807,
-0.5,0,1,left,1,3,0,0,0,0,2,7,23,2,,,,,,,,,68.00019969999994,68.50014900000042,69.21800859999985,None,68.51688420000028,69.2012020000002,69.71848580000005,None,left,1,0.35367020000012417,69.71848580000005,None,None,68.51688420000028,69.70188920000055,0.5116935999994894,0.5950310999996873,1.7134102999998504,1.7966935999993439,,,,,,faizah_2,001,2020_Jan_10_1411,posner,3.1.5,60.07326535446807,
-0.5,0,1,left,1,3,0,0,0,0,3,0,24,1,,,,,,,,,70.10310650000065,70.60305299999982,71.32087190000038,None,70.61980970000059,71.30399010000019,71.82166419999976,None,left,1,0.41045389999999315,71.82166419999976,None,None,70.61980970000059,71.80490019999979,0.5116938000001028,0.5951461000004201,1.7135323000002245,1.7968006999999488,,,,,,faizah_2,001,2020_Jan_10_1411,posner,3.1.5,60.07326535446807,
-0.5,180,0,left,2,3,0,0,0,0,3,1,25,4,,,,,,,,,72.2566725000006,72.75609930000064,73.47354820000055,None,72.77282490000016,73.45711810000012,73.97432970000045,None,left,1,0.4017653999999311,73.97432970000045,None,None,72.77282490000016,73.95777840000028,0.5116137999993953,0.5950376000000688,1.713270499999453,1.796844599999531,,,,,,faizah_2,001,2020_Jan_10_1411,posner,3.1.5,60.07326535446807,
0.5,180,1,right,2,4,0,0,0,0,3,2,26,6,,,,,,,,,74.39250570000058,74.89233090000016,75.6099049000004,None,74.90899009999976,75.59330300000056,76.11077310000019,None,right,1,0.3056690000003073,76.11077310000019,None,None,74.90899009999976,76.09400809999988,0.5115701000004265,0.5949594000003344,1.7132394000000204,1.796857500000442,,,,,,faizah_2,001,2020_Jan_10_1411,posner,3.1.5,60.07326535446807,
0.5,180,1,right,2,4,0,0,0,0,3,3,27,7,,,,,,,,,76.44582140000057,76.9453266999999,77.66271649999999,None,76.96179720000055,77.64621640000041,78.16327760000058,None,right,1,0.35694560000047204,78.16327760000058,None,None,76.96179720000055,78.14699650000057,0.5117810000001555,0.5949934999998732,1.7134302000004027,1.7967298000003211,,,,,,faizah_2,001,2020_Jan_10_1411,posner,3.1.5,60.07326535446807,
0.5,180,1,right,2,4,0,0,0,0,3,4,28,5,,,,,,,,,78.54810270000053,79.04795009999998,79.7656963999998,None,79.06466290000026,79.74901670000054,80.26647740000044,None,right,1,0.325763800000459,80.26647740000044,None,None,79.06466290000026,80.24961679999979,0.5115557000008266,0.5951592999999775,1.7131945000000997,1.7967525000003661,,,,,,faizah_2,001,2020_Jan_10_1411,posner,3.1.5,60.07326535446807,
-0.5,0,1,left,1,3,0,0,0,0,3,5,29,0,,,,,,,,,80.61797370000022,81.11774810000043,81.83505289999994,None,81.13408450000043,81.81852270000036,82.33584680000058,None,left,1,0.3522843999999168,82.33584680000058,None,None,81.13408450000043,82.31922610000038,0.5117461999998341,0.5950330000005124,1.7132072000003973,1.7966019000004962,,,,,,faizah_2,001,2020_Jan_10_1411,posner,3.1.5,60.07326535446807,
-0.5,0,1,left,1,3,0,0,0,0,3,6,30,2,,,,,,,,,82.70384970000032,83.20377580000059,83.92151319999994,None,83.22050440000021,83.9046202999998,84.42197800000031,None,left,1,0.30630380000002333,84.42197800000031,None,None,83.22050440000021,84.40529550000065,0.5117940999998609,0.5951630999998088,1.7132946000001539,1.7966922999994495,,,,,,faizah_2,001,2020_Jan_10_1411,posner,3.1.5,60.07326535446807,
0.5,0,0,right,1,4,0,0,0,0,3,7,31,3,,,,,,,,,84.75693020000017,85.25665110000045,85.9743969000001,None,85.27340110000023,85.95767440000054,86.4749866000002,None,right,1,0.3892064000001483,86.4749866000002,None,None,85.27340110000023,86.45824200000061,0.5117924999995012,0.5951796999997896,1.7133653000000777,1.7969960000000356,,,,,,faizah_2,001,2020_Jan_10_1411,posner,3.1.5,60.07326535446807,
0.5,180,1,right,2,4,0,0,0,0,4,0,32,5,,,,,,,,,86.89315150000039,87.39303449999989,88.110455,None,87.4094027000001,88.09379869999975,88.61129840000012,None,right,1,0.33283419999952457,88.61129840000012,None,None,87.4094027000001,88.59460780000063,0.5117976000001363,0.5950188999995589,1.71335579999959,1.7969225999995615,,,,,,faizah_2,001,2020_Jan_10_1411,posner,3.1.5,60.07326535446807,
0.5,180,1,right,2,4,0,0,0,0,4,1,33,6,,,,,,,,,88.96266110000033,89.46242450000045,90.18013710000014,None,89.4789910999998,90.1632853000001,90.68079399999988,None,right,1,0.287406600000395,90.68079399999988,None,None,89.4789910999998,90.66386650000004,0.5115991000002396,0.594907300000159,1.713030400000207,1.7967727000004743,,,,,,faizah_2,001,2020_Jan_10_1411,posner,3.1.5,60.07326535446807,
-0.5,0,1,left,1,3,0,0,0,0,4,2,34,2,,,,,,,,,90.99873509999998,91.4988312000005,92.2160915000004,None,91.51504850000038,92.19942499999979,92.71683399999984,None,left,1,0.31539429999975255,92.71683399999984,None,None,91.51504850000038,92.70073839999986,0.5119321000001946,0.5949867999997878,1.713815699999941,1.7964671999998245,,,,,,faizah_2,001,2020_Jan_10_1411,posner,3.1.5,60.07326535446807,
-0.5,0,1,left,1,3,0,0,0,0,4,3,35,0,,,,,,,,,93.05039080000006,93.55139849999978,94.26905540000007,None,93.56804869999996,94.25235609999982,94.76970660000006,None,left,1,0.35058070000013686,94.76970660000006,None,None,93.56804869999996,94.75302790000023,0.5126398000002155,0.5959711000004972,1.7142605999997613,1.7976522999997542,,,,,,faizah_2,001,2020_Jan_10_1411,posner,3.1.5,60.07326535446807,
-0.5,0,1,left,1,3,0,0,0,0,4,4,36,1,,,,,,,,,95.13775619999979,95.63762570000017,96.35512990000007,None,95.65408389999993,96.33848170000056,96.85581989999991,None,left,1,0.28043259999958536,96.85581989999991,None,None,95.65408389999993,96.83905589999995,0.5114438999999038,0.5949204999997164,1.7128663000003144,1.796454199999971,,,,,,faizah_2,001,2020_Jan_10_1411,posner,3.1.5,60.07326535446807,
-0.5,180,0,left,2,3,0,0,0,0,4,5,37,4,,,,,,,,,97.15751799999998,97.65694770000027,98.37455790000058,None,97.67343510000046,98.35792700000002,98.87531200000012,None,right,0,0.19675009999991744,98.87531200000012,None,None,97.67343510000046,98.85851880000064,0.5114375000002838,0.5948927999997977,1.713010100000247,1.7969893999998021,,,,,,faizah_2,001,2020_Jan_10_1411,posner,3.1.5,60.07326535446807,
0.5,0,0,right,1,4,0,0,0,0,4,6,38,3,,,,,,,,,99.09304950000023,99.59297080000033,100.3106114000002,None,99.60982440000043,100.29394880000018,100.81151829999999,None,right,1,0.3885160999998334,100.81151829999999,None,None,99.60982440000043,100.7945952,0.5116384000002654,0.5953232000001663,1.7132480999998734,1.7968406999998479,,,,,,faizah_2,001,2020_Jan_10_1411,posner,3.1.5,60.07326535446807,
0.5,180,1,right,2,4,0,0,0,0,4,7,39,7,,,,,,,,,101.22929770000064,101.72919100000036,102.44712580000032,None,101.74599099999978,102.4303729000003,102.9476037000004,None,right,1,0.30047620000004827,102.9476037000004,None,None,101.74599099999978,102.93100680000043,0.5115357999993648,0.5950863999996727,1.7133280999996714,1.7967294999998558,,,,,,faizah_2,001,2020_Jan_10_1411,posner,3.1.5,60.07326535446807,
0.5,0,0,right,1,4,0,0,0,0,5,0,40,3,,,,,,,,,103.26544879999983,103.7652920999999,104.48292709999987,None,103.78205330000037,104.46629850000045,104.98366330000044,None,right,1,0.352361799999926,104.98366330000044,None,None,103.78205330000037,104.96710780000012,0.5117136999997456,0.5953220000001238,1.7135106999994605,1.796977699999843,,,,,,faizah_2,001,2020_Jan_10_1411,posner,3.1.5,60.07326535446807,
-0.5,0,1,left,1,3,0,0,0,0,5,1,41,0,,,,,,,,,105.35181840000041,105.85168520000025,106.56915420000041,None,105.86841410000034,106.55269399999997,107.0699695000003,None,left,1,0.39406529999996565,107.0699695000003,None,None,105.86841410000034,107.05343210000046,0.5117291999995359,0.5950604999998177,1.7134877999997116,1.7969844999997804,,,,,,faizah_2,001,2020_Jan_10_1411,posner,3.1.5,60.07326535446807,
-0.5,180,0,left,2,3,0,0,0,0,5,2,42,4,,,,,,,,,107.48819379999986,107.98785839999982,108.70544530000006,None,108.0045181000005,108.68882050000047,109.20615420000013,None,left,1,0.46589589999985037,109.20615420000013,None,None,108.0045181000005,109.18959840000025,0.5114158999995198,0.5949762999998711,1.7131445999993957,1.7963757999996233,,,,,,faizah_2,001,2020_Jan_10_1411,posner,3.1.5,60.07326535446807,
0.5,180,1,right,2,4,0,0,0,0,5,3,43,6,,,,,,,,,109.69112730000052,110.19105320000017,110.90856890000032,None,110.20766009999988,110.89170749999994,111.40920939999978,109.69112730000052,right,1,0.3268060999998852,111.40920939999978,None,None,110.20766009999988,111.3926577000002,0.5118387000002258,0.5949900999994497,1.7134273000001485,1.7969843999999284,,,,,,faizah_2,001,2020_Jan_10_1411,posner,3.1.5,60.07326535446807,
0.5,180,1,right,2,4,0,0,0,0,5,4,44,5,,,,,,,,,111.76001110000016,112.26058170000033,112.97800689999985,None,112.27721810000003,112.96146820000013,113.47887480000009,None,right,1,0.2893813999999111,113.47887480000009,None,None,112.27721810000003,113.46209499999986,0.5120754999998098,0.5953828000001522,1.713582899999892,1.7968991999996433,,,,,,faizah_2,001,2020_Jan_10_1411,posner,3.1.5,60.07326535446807,
-0.5,0,1,left,1,3,0,0,0,0,5,5,45,1,,,,,,,,,113.79667599999993,114.2966378000001,115.01406850000058,None,114.31314830000065,114.99766510000063,115.51478130000032,None,left,1,0.30924380000033125,115.51478130000032,None,None,114.31314830000065,115.49827370000003,0.5117158000002746,0.5951362000005247,1.7133243000007496,1.796764499999881,,,,,,faizah_2,001,2020_Jan_10_1411,posner,3.1.5,60.07326535446807,
0.5,180,1,right,2,4,0,0,0,0,5,6,46,7,,,,,,,,,115.84950519999984,116.3491328,117.06713880000007,None,116.36571710000044,117.05062369999996,117.56782550000025,None,right,1,0.29614589999982854,117.56782550000025,None,None,116.36571710000044,117.5510605999998,0.5113058999995701,0.5945387000001574,1.7132026999997834,1.79667580000023,,,,,,faizah_2,001,2020_Jan_10_1411,posner,3.1.5,60.07326535446807,
-0.5,0,1,left,1,3,0,0,0,0,5,7,47,2,,,,,,,,,117.88578670000061,118.38551540000026,119.10332610000023,None,118.40211720000025,119.08657959999982,119.60392910000064,None,left,1,0.2520646000002671,119.60392910000064,None,None,118.40211720000025,119.58734999999979,0.5117423000001509,0.5950512999997954,1.7135555999993812,1.796750399999837,,,,,,faizah_2,001,2020_Jan_10_1411,posner,3.1.5,60.07326535446807,
0.5,0,0,right,1,4,0,0,0,0,6,0,48,3,,,,,,,,,119.88832610000009,120.38826320000044,121.10580550000032,None,120.40488050000022,121.0892389999999,121.60663759999989,None,right,1,0.28953589999946416,121.60663759999989,None,None,120.40488050000022,121.58995670000058,0.5115279000001465,0.5950882999995883,1.713204599999699,1.796494499999426,,,,,,faizah_2,001,2020_Jan_10_1411,posner,3.1.5,60.07326535446807,
0.5,180,1,right,2,4,0,0,0,0,6,1,49,5,,,,,,,,,121.92377339999985,122.42432580000059,123.14192700000058,None,122.4414053999999,123.12526400000024,123.64299829999982,None,right,1,0.309086400000524,123.64299829999982,None,None,122.4414053999999,123.62609210000028,0.5123619000005419,0.5959525000007488,1.7141050000000178,1.797570500000802,,,,,,faizah_2,001,2020_Jan_10_1411,posner,3.1.5,60.07326535446807,
0.5,180,1,right,2,4,0,0,0,0,6,2,50,6,,,,,,,,,123.97755349999989,124.47728970000026,125.19485299999997,None,124.49395020000065,125.17837150000014,125.69566050000049,None,right,1,0.3202965000000404,125.69566050000049,None,None,124.49395020000065,125.67886799999997,0.5116157000002204,0.5949479999999312,1.7131741000002876,1.796560099999624,,,,,,faizah_2,001,2020_Jan_10_1411,posner,3.1.5,60.07326535446807,
-0.5,0,1,left,1,3,0,0,0,0,6,3,51,0,,,,,,,,,126.04679940000005,126.54679260000012,127.2643680000001,None,126.5633558999998,127.24782779999987,127.76501050000024,None,left,1,0.2829963999993197,127.76501050000024,None,None,126.5633558999998,127.74845480000022,0.5116920000000391,0.5954066000003877,1.7133306000005177,1.7966389000002891,,,,,,faizah_2,001,2020_Jan_10_1411,posner,3.1.5,60.07326535446807,
-0.5,0,1,left,1,3,0,0,0,0,6,4,52,2,,,,,,,,,128.06594510000014,128.5660699,129.28372170000057,None,128.58282130000043,129.26718230000006,129.7845199000003,None,left,1,0.3114827999997942,129.7845199000003,None,None,128.58282130000043,129.76767970000037,0.5114062000002377,0.5950007999999798,1.7129808999998204,1.7966719000005469,,,,,,faizah_2,001,2020_Jan_10_1411,posner,3.1.5,60.07326535446807,
0.5,180,1,right,2,4,0,0,0,0,6,5,53,7,,,,,,,,,130.1192172000001,130.61907659999997,131.33667520000017,None,130.6356407000003,131.32017189999988,131.83738880000055,None,right,1,0.2746546999997008,131.83738880000055,None,None,130.6356407000003,131.82069970000066,0.5115306999996392,0.5947680999997829,1.7131378000003679,1.7963495000003604,,,,,,faizah_2,001,2020_Jan_10_1411,posner,3.1.5,60.07326535446807,
-0.5,180,0,left,2,3,0,0,0,0,6,6,54,4,,,,,,,,,132.1381906000006,132.6384152999999,133.3560883,None,132.6552771000006,133.3394575000002,133.8569352000004,134.34084710000025,left,1,0.48702249999951164,133.8569352000004,None,None,132.6552771000006,133.84016860000065,0.5120308000005025,0.5956353999999919,1.7137675000003583,1.7970289000004414,,,,,,faizah_2,001,2020_Jan_10_1411,posner,3.1.5,60.07326535446807,
-0.5,0,1,left,1,3,0,0,0,0,6,7,55,1,,,,,,,,,134.37453280000045,134.8747916000002,135.59242499999982,None,134.89163460000054,135.57568840000022,136.0931111,None,left,1,0.37905249999948865,136.0931111,None,None,134.89163460000054,136.07652860000053,0.5116348000001381,0.5951160000004165,1.7133529000002454,1.7967490999999427,,,,,,faizah_2,001,2020_Jan_10_1411,posner,3.1.5,60.07326535446807,
-0.5,0,1,left,1,3,0,0,0,0,7,0,56,0,,,,,,,,,136.49500700000044,136.99444980000044,137.71212770000056,None,137.01117330000034,137.69523220000065,138.21288880000066,None,left,1,0.3392749000004187,138.21288880000066,None,None,137.01117330000034,138.19629460000033,0.5113218999995297,0.5946698999996443,1.7131468999996287,1.7963456999996197,,,,,,faizah_2,001,2020_Jan_10_1411,posner,3.1.5,60.07326535446807,
0.5,180,1,right,2,4,0,0,0,0,7,1,57,7,,,,,,,,,138.58034279999993,139.08081459999994,139.7982007999999,None,139.0973382000002,139.7816201000005,140.29910800000016,None,right,1,0.3089031999998042,140.29910800000016,None,None,139.0973382000002,140.2823016000002,0.5120624000001044,0.5955739000000904,1.7135326000006899,1.7969772000005833,,,,,,faizah_2,001,2020_Jan_10_1411,posner,3.1.5,60.07326535446807,
0.5,180,1,right,2,4,0,0,0,0,7,2,58,5,,,,,,,,,140.6335656000001,141.1333525,141.85112190000018,None,141.1504915000005,141.83445350000056,142.35191060000034,None,right,1,0.4320988999998008,142.35191060000034,None,None,141.1504915000005,142.33499510000001,0.5117788999996264,0.5953364999995756,1.7134072999997443,1.7970464999998512,,,,,,faizah_2,001,2020_Jan_10_1411,posner,3.1.5,60.07326535446807,
-0.5,180,0,left,2,3,0,0,0,0,7,3,59,4,,,,,,,,,142.80292420000023,143.30319690000033,144.0208792000003,None,143.31988850000016,144.00396550000005,144.52142319999984,None,left,1,0.28656969999974535,144.52142319999984,None,None,143.31988850000016,144.50476350000008,0.51202960000046,0.5955374000004667,1.7135830000006536,1.7968639000000621,,,,,,faizah_2,001,2020_Jan_10_1411,posner,3.1.5,60.07326535446807,
0.5,180,1,right,2,4,0,0,0,0,7,4,60,6,,,,,,,,,144.83865090000018,145.3393283000005,146.0569876999998,None,145.35591190000014,146.0402936999999,146.55755000000045,None,right,1,0.3066196999998283,146.55755000000045,None,None,145.35591190000014,146.54098370000065,0.5126051000006555,0.5960549000001265,1.714258100000734,1.797591000000466,,,,,,faizah_2,001,2020_Jan_10_1411,posner,3.1.5,60.07326535446807,
-0.5,0,1,left,1,3,0,0,0,0,7,5,61,2,,,,,,,,,146.8921965999998,147.3919792000006,148.10977600000024,None,147.4087325999999,148.0930339000006,148.61048100000062,None,left,1,0.3336319000000003,148.61048100000062,None,None,147.4087325999999,148.5938001000004,0.5115316999999777,0.5956270999995468,1.7133466999994198,1.7967844999993758,,,,,,faizah_2,001,2020_Jan_10_1411,posner,3.1.5,60.07326535446807,
0.5,0,0,right,1,4,0,0,0,0,7,6,62,3,,,,,,,,,148.9616758000002,149.4616977000005,150.17929379999987,None,149.47823860000062,150.16263530000015,150.6800801999998,None,right,1,0.3198942999997598,150.6800801999998,None,None,149.47823860000062,150.6632722000004,0.5119800000002215,0.5952981000000364,1.7135400000006484,1.7972230000004856,,,,,,faizah_2,001,2020_Jan_10_1411,posner,3.1.5,60.07326535446807,
-0.5,0,1,left,1,3,0,0,0,0,7,7,63,1,,,,,,,,,151.03078410000035,151.53111590000026,152.24869200000012,None,151.54789170000004,152.2321407999998,152.74955090000003,None,left,1,0.3542507999991358,152.74955090000003,None,None,151.54789170000004,152.73257250000006,0.511842699999761,0.5952049999996234,1.7132891999999629,1.7969404999994367,,,,,,faizah_2,001,2020_Jan_10_1411,posner,3.1.5,60.07326535446807,
-0.5,0,1,left,1,3,0,0,0,0,8,0,64,0,,,,,,,,,153.13258880000012,153.63394270000026,154.3516399,None,153.65081230000033,154.33495570000014,154.8523651000005,None,left,1,0.3476631000003181,154.8523651000005,None,None,153.65081230000033,154.83557910000036,0.5120991000003414,0.5957650999998805,1.71371629999976,1.7971339000005173,,,,,,faizah_2,001,2020_Jan_10_1411,posner,3.1.5,60.07326535446807,
-0.5,0,1,left,1,3,0,0,0,0,8,1,65,2,,,,,,,,,155.22050649999983,155.72029220000059,156.43781380000019,None,155.73687770000015,156.42126569999982,156.93846510000003,None,left,1,0.3255306999999448,156.93846510000003,None,None,155.73687770000015,156.92192599999998,0.5115806999992856,0.5948891999996704,1.713185199999316,1.7964892999998483,,,,,,faizah_2,001,2020_Jan_10_1411,posner,3.1.5,60.07326535446807,
-0.5,180,0,left,2,3,0,0,0,0,8,2,66,4,,,,,,,,,157.29009660000065,157.78993619999983,158.50748830000066,None,157.80644350000057,158.4906686000004,159.00810480000018,None,left,1,0.41579580000052374,159.00810480000018,None,None,157.80644350000057,158.99141430000054,0.5115972000003239,0.5947475000002669,1.7130587999999989,1.7963649000002988,,,,,,faizah_2,001,2020_Jan_10_1411,posner,3.1.5,60.07326535446807,
0.5,180,1,right,2,4,0,0,0,0,8,3,67,6,,,,,,,,,159.44355140000062,159.94314850000046,160.66054950000034,None,159.95944640000016,160.64368550000017,161.16106039999977,None,right,1,0.27890190000016446,161.16106039999977,None,None,159.95944640000016,161.14432149999993,0.5119004999996832,0.594774199999847,1.713059799999428,1.7965842999992674,,,,,,faizah_2,001,2020_Jan_10_1411,posner,3.1.5,60.07326535446807,
0.5,180,1,right,2,4,0,0,0,0,8,4,68,7,,,,,,,,,161.46253930000057,161.96213540000008,162.67983150000055,None,161.97888570000032,162.66301610000028,163.1806078999998,None,right,1,0.26735459999963496,163.1806078999998,None,None,161.97888570000032,163.16373699999986,0.5113921000001938,0.594762400000036,1.7129757000002428,1.796484700000292,,,,,,faizah_2,001,2020_Jan_10_1411,posner,3.1.5,60.07326535446807,
0.5,0,0,right,1,4,0,0,0,0,8,5,69,3,,,,,,,,,163.46518430000015,163.9648304000002,164.6826332999999,None,163.98162030000003,164.6658292000002,165.18312120000064,None,right,1,0.3607142000000749,165.18312120000064,None,None,163.98162030000003,165.16651679999995,0.5114809000006062,0.59500030000072,1.7131392000001142,1.7967361000000892,,,,,,faizah_2,001,2020_Jan_10_1411,posner,3.1.5,60.07326535446807,
0.5,180,1,right,2,4,0,0,0,0,8,6,70,5,,,,,,,,,165.56788920000054,166.0678138000003,166.7853068000004,None,166.08445800000027,166.76879110000027,167.2860486999998,None,right,1,0.2740186000000904,167.2860486999998,None,None,166.08445800000027,167.2695678,0.5115637999997489,0.5951359000000593,1.7133076000000074,1.7966630000000805,,,,,,faizah_2,001,2020_Jan_10_1411,posner,3.1.5,60.07326535446807,
-0.5,0,1,left,1,3,0,0,0,0,8,7,71,1,,,,,,,,,167.58760990000064,168.08724110000003,168.8048471000002,None,168.10384520000025,168.7881468000005,169.30558680000013,None,left,1,0.33442549999926996,169.30558680000013,None,None,168.10384520000025,169.28892559999986,0.5116237000002002,0.5949922999998307,1.7132967999996254,1.7966498999994656,,,,,,faizah_2,001,2020_Jan_10_1411,posner,3.1.5,60.07326535446807,
0.5,180,1,right,2,4,0,0,0,0,9,0,72,5,,,,,,,,,169.6569530000006,170.15671220000058,170.87426490000053,None,170.17333430000053,170.85771999999997,171.37501560000055,None,right,1,0.21684229999937088,171.37501560000055,None,None,170.17333430000053,171.3584120000005,0.5114960000000792,0.5950585999999021,1.7131706999998642,1.7969583000003695,,,,,,faizah_2,001,2020_Jan_10_1411,posner,3.1.5,60.07326535446807,
-0.5,180,0,left,2,3,0,0,0,0,9,1,73,4,,,,,,,,,171.60899640000025,172.10941080000066,172.82703279999987,None,172.12613620000047,172.81038010000066,173.32772019999993,None,left,1,0.3201627999997072,173.32772019999993,None,None,172.12613620000047,173.31126270000004,0.5119968999997582,0.5955027999998492,1.7138371000000916,1.7970116999995298,,,,,,faizah_2,001,2020_Jan_10_1411,posner,3.1.5,60.07326535446807,
0.5,180,1,right,2,4,0,0,0,0,9,2,74,6,,,,,,,,,173.6789671000006,174.1788575999999,174.89687529999992,None,174.1956571999999,174.8800998000006,175.39747249999982,None,right,1,0.23433060000024852,175.39747249999982,None,None,174.1956571999999,175.38078630000018,0.5115086000005249,0.5950452000006408,1.7134146000007604,1.796689900000274,,,,,,faizah_2,001,2020_Jan_10_1411,posner,3.1.5,60.07326535446807,
0.5,180,1,right,2,4,0,0,0,0,9,3,75,7,,,,,,,,,175.64867279999999,176.14814579999984,176.86597900000015,None,176.1646483000004,176.84939100000065,177.36657819999982,None,right,1,0.3852111000005607,177.36657819999982,None,None,176.1646483000004,177.35001509999984,0.5113492000000406,0.5950425999999425,1.7131976999999097,1.7965322999998534,,,,,,faizah_2,001,2020_Jan_10_1411,posner,3.1.5,60.07326535446807,
-0.5,0,1,left,1,3,0,0,0,0,9,4,76,1,,,,,,,,,177.7682163999998,178.2679145000002,178.9855808000002,None,178.2844782000002,178.9688487000003,179.48616310000034,None,left,1,0.24171789999945759,179.48616310000034,None,None,178.2844782000002,179.46955049999997,0.5115115999997215,0.5950374000003649,1.713124400000197,1.7964966999998069,,,,,,faizah_2,001,2020_Jan_10_1411,posner,3.1.5,60.07326535446807,
-0.5,0,1,left,1,3,0,0,0,0,9,5,77,2,,,,,,,,,179.7535443000006,180.2538441000006,180.97159290000036,None,180.27081830000043,180.95487260000027,181.4724382000004,None,left,1,0.29532540000036533,181.4724382000004,None,None,180.27081830000043,181.45564960000047,0.5120708000004015,0.5956124000003911,1.7141320999999152,1.7972614000000249,,,,,,faizah_2,001,2020_Jan_10_1411,posner,3.1.5,60.07326535446807,
0.5,0,0,right,1,4,0,0,0,0,9,6,78,3,,,,,,,,,181.78973880000012,182.29017939999994,183.00784250000015,None,182.3069728999999,182.99117810000007,183.50833349999994,None,right,1,0.3874212000000625,183.50833349999994,None,None,182.3069728999999,183.49178759999995,0.5124734999999419,0.5956585000003543,1.7140613000001395,1.7973451000007117,,,,,,faizah_2,001,2020_Jan_10_1411,posner,3.1.5,60.07326535446807,
-0.5,0,1,left,1,3,0,0,0,0,9,7,79,0,,,,,,,,,183.92637360000026,184.4264430000003,185.14407759999995,None,184.44327330000033,185.12760350000008,185.6447349,None,left,1,0.27515300000050047,185.6447349,None,None,184.44327330000033,185.62807229999999,0.5119082999999591,0.5950304999996661,1.7132765999995172,1.7966906000001472,,,,,,faizah_2,001,2020_Jan_10_1411,posner,3.1.5,60.07326535446807,
0.5,180,1,right,2,4,0,0,0,0,10,0,80,6,,,,,,,,,185.94667220000065,186.4459281999998,187.16341470000043,None,186.46249220000027,187.14714110000023,187.66415460000007,None,right,1,0.15970139999990351,187.66415460000007,None,None,186.46249220000027,187.64745990000029,0.5116390999992291,0.5949448999999731,1.7131413999995857,1.7967394999996031,,,,,,faizah_2,001,2020_Jan_10_1411,posner,3.1.5,60.07326535446807,
0.5,0,0,right,1,4,0,0,0,0,10,1,81,3,,,,,,,,,187.84884880000027,188.34871380000004,189.0662210999999,None,188.36507100000017,189.04939640000066,189.56677949999994,None,right,1,0.3689611000008881,189.56677949999994,None,None,188.36507100000017,189.55024570000023,0.511709599999449,0.5948625000000902,1.7132247999998071,1.7963983999998163,,,,,,faizah_2,001,2020_Jan_10_1411,posner,3.1.5,60.07326535446807,
-0.5,180,0,left,2,3,0,0,0,0,10,2,82,4,,,,,,,,,189.95141260000037,190.45146420000037,191.16904990000057,None,190.4680532000002,191.15258170000016,191.66967509999995,None,left,1,0.3062638999999763,191.66967509999995,None,None,190.4680532000002,191.65287119999994,0.511819999999716,0.5952747999999701,1.7132134000003134,1.7967566999996052,,,,,,faizah_2,001,2020_Jan_10_1411,posner,3.1.5,60.07326535446807,
0.5,180,1,right,2,4,0,0,0,0,10,3,83,5,,,,,,,,,192.00356850000026,192.50406889999977,193.2219273999999,None,192.5210877999998,193.2050532000003,193.72255029999997,None,right,1,0.2213208000002851,193.72255029999997,None,None,192.5210877999998,193.70575350000036,0.5123300999994171,0.5958252000000357,1.7139944000000469,1.7975134999996953,,,,,,faizah_2,001,2020_Jan_10_1411,posner,3.1.5,60.07326535446807,
-0.5,0,1,left,1,3,0,0,0,0,10,4,84,0,,,,,,,,,193.9734853,194.47330950000014,195.19115640000018,None,194.49040669999977,195.17449820000002,195.6918921000006,None,left,1,0.363854000000174,195.6918921000006,None,None,194.49040669999977,195.67522110000027,0.5114555999998629,0.5951648999998724,1.7133537999998225,1.796656399999847,,,,,,faizah_2,001,2020_Jan_10_1411,posner,3.1.5,60.07326535446807,
-0.5,0,1,left,1,3,0,0,0,0,10,5,85,2,,,,,,,,,196.07693350000045,196.57654600000023,197.29403470000034,None,196.59305060000042,197.27749330000006,197.7946791000004,None,left,1,0.33308339999985037,197.7946791000004,None,None,196.59305060000042,197.7782459,0.511645800000224,0.5949638000001869,1.7133308000002216,1.7967384000003221,,,,,,faizah_2,001,2020_Jan_10_1411,posner,3.1.5,60.07326535446807,
-0.5,0,1,left,1,3,0,0,0,0,10,6,86,1,,,,,,,,,198.1464719000005,198.64612230000057,199.3636551999998,None,198.6625380000005,199.34711400000015,199.86425130000043,None,left,1,0.4074307000000772,199.86425130000043,None,None,198.6625380000005,199.84751719999986,0.5116135999996914,0.594976499999575,1.7129980999998224,1.7966108000000531,,,,,,faizah_2,001,2020_Jan_10_1411,posner,3.1.5,60.07326535446807,
0.5,180,1,right,2,4,0,0,0,0,10,7,87,7,,,,,,,,,200.29903449999983,200.79896270000063,201.51655530000062,None,200.81572779999988,201.49986460000036,202.01738860000023,None,right,1,0.230558000000201,202.01738860000023,None,None,200.81572779999988,202.00056810000024,0.5115491000005932,0.5949423000001843,1.7131427000003896,1.796530900000107,,,,,,faizah_2,001,2020_Jan_10_1411,posner,3.1.5,60.07326535446807,
,,,,,,0,0,0,0,,,,,,,,,,,,,,,,,,,,,,,,,,,,,,,,,202.26925420000043,None,1.849999989644857e-05,0.9955236999994668,,faizah_2,001,2020_Jan_10_1411,posner,3.1.5,60.07326535446807,
0.5,180,1,right,2,4,1,0,1,0,0,0,0,6,1.3500000022759195e-05,0.09758249999958934,263.2849102,None,1.5100000382517464e-05,0.09785680000004504,265.3876414000006,None,265.66699530000005,266.17229060000045,266.88990000000103,None,266.1887873000005,266.87311839999984,267.3737967999996,267.8744625999998,None,0,,267.3737967999996,None,right,266.1887873000005,267.3737967999996,0.5155359000000317,0.5987365000000864,1.7002993000005517,1.8005541000002268,,,,,0.538785500000813,faizah_2,001,2020_Jan_10_1411,posner,3.1.5,60.07326535446807,
0.5,0,0,right,1,4,1,0,1,0,0,1,1,3,,,,,,,,,268.3752673000008,268.8758724999998,269.5936912999996,268.3752673000008,268.89282469999944,269.57700229999955,270.09429720000026,None,right,1,0.3691825999994762,270.09429720000026,None,None,268.89282469999944,270.0774898000009,0.5129645999986678,0.596522299998469,1.7145420999986527,1.7980346999993344,,,,,,faizah_2,001,2020_Jan_10_1411,posner,3.1.5,60.07326535446807,
-0.5,0,1,left,1,3,1,0,1,0,0,2,2,1,,,,,,,,,270.47904260000087,270.9789417000002,271.69662400000107,None,270.99537770000006,271.679866200001,272.19740290000027,None,left,1,0.28211080000073707,272.19740290000027,None,None,270.99537770000006,272.18047919999935,0.5116293000010046,0.594955900000059,1.7131576000010682,1.796564500000386,,,,,,faizah_2,001,2020_Jan_10_1411,posner,3.1.5,60.07326535446807,
0.5,180,1,right,2,4,1,0,1,0,0,3,3,5,,,,,,,,,272.49854200000027,272.99825990000045,273.7158876000003,None,273.01492620000045,273.69934750000084,274.2165818000003,None,right,1,0.3430255999992369,274.2165818000003,None,None,273.01492620000045,274.1998957000005,0.5113823000010598,0.5948829999997542,1.713009700000839,1.7963522999998531,,,,,,faizah_2,001,2020_Jan_10_1411,posner,3.1.5,60.07326535446807,
-0.5,0,1,left,1,3,1,0,1,0,0,4,4,2,,,,,,,,,274.5846209000001,275.08451069999956,275.80230270000084,None,275.1011557000011,275.78531159999966,276.3029099000005,None,left,1,0.2965805999992881,276.3029099000005,None,None,275.1011557000011,276.2860707000009,0.5116589999997814,0.5948119999993651,1.7132003999995504,1.7966839000000618,,,,,,faizah_2,001,2020_Jan_10_1411,posner,3.1.5,60.07326535446807,
-0.5,0,1,left,1,3,1,0,1,0,0,5,5,0,,,,,,,,,276.6207404000006,277.120649200001,277.8381866999998,None,277.13731149999967,277.8215919999993,278.33904279999933,None,left,1,0.31663639999896986,278.33904279999933,None,None,277.13731149999967,278.3221540000004,0.5116419000005408,0.5948920999999245,1.7131344999997964,1.7968892000008054,,,,,,faizah_2,001,2020_Jan_10_1411,posner,3.1.5,60.07326535446807,
0.5,180,1,right,2,4,1,0,1,0,0,6,6,7,,,,,,,,,278.67321360000005,279.17329580000023,279.89111649999995,None,279.1900708000003,279.87446910000017,280.39185629999974,None,right,1,0.3280127999987599,280.39185629999974,None,None,279.1900708000003,280.37505090000104,0.5118461000001844,0.595501100000547,1.7135803000001033,1.797178000000713,,,,,,faizah_2,001,2020_Jan_10_1411,posner,3.1.5,60.07326535446807,
-0.5,180,0,left,2,3,1,0,1,0,0,7,7,4,,,,,,,,,280.7435360999998,281.2429824000001,281.9606637000006,None,281.25982170000043,281.9440346000001,282.4613625000011,None,left,1,0.3063019000001077,282.4613625000011,None,None,281.25982170000043,282.44460250000066,0.5113381999999547,0.5946285999998508,1.7129411999994772,1.7963201999991725,,,,,,faizah_2,001,2020_Jan_10_1411,posner,3.1.5,60.07326535446807,
0.5,180,1,right,2,4,1,0,1,0,1,0,8,7,,,,,,,,,282.7958855000006,283.2961165000006,284.01344999999947,None,283.3124636000002,283.9968619000001,284.51411459999963,None,right,1,0.2772488999999041,284.51411459999963,None,None,283.3124636000002,284.4974740000007,0.5119630999997753,0.5953406999997242,1.7133097000005364,1.7967915999997786,,,,,,faizah_2,001,2020_Jan_10_1411,posner,3.1.5,60.07326535446807,
0.5,0,0,right,1,4,1,0,1,0,1,1,9,3,,,,,,,,,284.8147132999993,285.31518629999937,286.03267660000074,None,285.33183259999987,286.0161194000002,286.53340300000036,None,right,1,0.4101537000005919,286.53340300000036,None,None,285.33183259999987,286.51682340000025,0.5116350999996939,0.5951164999987668,1.7132557000004454,1.7968074999989767,,,,,,faizah_2,001,2020_Jan_10_1411,posner,3.1.5,60.07326535446807,
-0.5,0,1,left,1,3,1,0,1,0,1,2,10,1,,,,,,,,,286.96826020000026,287.4682722000007,288.18586290000076,None,287.4849127000007,288.1693425000003,288.6865219000001,None,left,1,0.3450814000007085,288.6865219000001,None,None,287.4849127000007,288.6699596999997,0.5115316999999777,0.594801200000802,1.7132017000003543,1.7965364000010595,,,,,,faizah_2,001,2020_Jan_10_1411,posner,3.1.5,60.07326535446807,
-0.5,180,0,left,2,3,1,0,1,0,1,3,11,4,,,,,,,,,289.0549283999999,289.55445280000004,290.27208410000003,None,289.5710975000011,290.2553727000004,290.7725720999997,None,right,0,0.154943400000775,290.7725720999997,None,None,289.5710975000011,290.75617350000084,0.511553799999092,0.5948265999995783,1.7132519999995566,1.7966164999998,,,,,,faizah_2,001,2020_Jan_10_1411,posner,3.1.5,60.07326535446807,
-0.5,0,1,left,1,3,1,0,1,0,1,4,12,0,,,,,,,,,290.9569999999994,291.45702280000023,292.1746269999994,None,291.4736108999996,292.1579305000005,292.67532350000056,None,left,1,0.34040640000057465,292.67532350000056,None,None,291.4736108999996,292.6586268000001,0.5114905000009458,0.5948889999999665,1.713080400000763,1.7965161000010994,,,,,,faizah_2,001,2020_Jan_10_1411,posner,3.1.5,60.07326535446807,
-0.5,0,1,left,1,3,1,0,1,0,1,5,13,2,,,,,,,,,293.0428784000005,293.5431980000003,294.26084230000106,None,293.5598237000004,294.2441712000009,294.7616081999995,None,left,1,0.31788740000047255,294.7616081999995,None,None,293.5598237000004,294.74478890000046,0.5120657000006759,0.5954301000001578,1.7136327999996865,1.797189500000968,,,,,,faizah_2,001,2020_Jan_10_1411,posner,3.1.5,60.07326535446807,
0.5,180,1,right,2,4,1,0,1,0,1,6,14,6,,,,,,,,,295.09613679999984,295.5963149999998,296.31350979999934,None,295.61277340000106,296.2970028000009,296.81430210000053,None,right,1,0.3530057999996643,296.81430210000053,None,None,295.61277340000106,296.79775659999996,0.5120963000008487,0.595324800000526,1.7135178999997152,1.79694550000022,,,,,,faizah_2,001,2020_Jan_10_1411,posner,3.1.5,60.07326535446807,
0.5,180,1,right,2,4,1,0,1,0,1,7,15,5,,,,,,,,,297.1988747000005,297.6990691000001,298.4166331999995,None,297.715503800001,298.3999052999998,298.91733320000003,None,right,1,0.37805809999917983,298.91733320000003,None,None,297.715503800001,298.9004919000008,0.5115955999990547,0.5950261999987561,1.7130061999996542,1.7963802999984182,,,,,,faizah_2,001,2020_Jan_10_1411,posner,3.1.5,60.07326535446807,
0.5,180,1,right,2,4,1,0,1,0,2,0,16,6,,,,,,,,,299.3186477999998,299.8184819999997,300.5361844000008,None,299.8350409000004,300.5195463000009,301.0369130000008,301.5210216000005,None,0,,301.0369130000008,None,None,299.8350409000004,301.0202373000002,0.5115361000007397,0.594922400001451,1.7132765000005747,1.796546200001103,,,,,,faizah_2,001,2020_Jan_10_1411,posner,3.1.5,60.07326535446807,
0.5,180,1,right,2,4,1,0,1,0,2,1,17,5,,,,,,,,,302.0215152999999,302.52215200000046,303.23984570000084,302.0215152999999,302.53886499999953,303.22310039999957,303.74073600000065,None,right,1,0.37872020000031625,303.74073600000065,None,None,302.53886499999953,303.7238692000001,0.5136509999992995,0.5972086999991006,1.7153552999989188,1.798710699998992,,,,,,faizah_2,001,2020_Jan_10_1411,posner,3.1.5,60.07326535446807,
-0.5,180,0,left,2,3,1,0,1,0,2,2,18,4,,,,,,,,,304.1422045999998,304.6418318999995,305.35956820000047,None,304.6584460999993,305.34276860000045,305.8602804000011,None,left,1,0.33107919999929436,305.8602804000011,None,None,304.6584460999993,305.8434382000005,0.5114112999999634,0.5948298999992403,1.7130053999990196,1.7965189999995346,,,,,,faizah_2,001,2020_Jan_10_1411,posner,3.1.5,60.07326535446807,
-0.5,0,1,left,1,3,1,0,1,0,2,3,19,0,,,,,,,,,306.2116691000001,306.7113390000004,307.42894310000065,None,306.7281587000007,307.4123386000001,307.9296946000004,None,left,1,0.27769439999974566,307.9296946000004,None,None,306.7281587000007,307.9129604,0.5114252000003034,0.5947899000002508,1.7130331000007573,1.7965423000005103,,,,,,faizah_2,001,2020_Jan_10_1411,posner,3.1.5,60.07326535446807,
-0.5,0,1,left,1,3,1,0,1,0,2,4,20,1,,,,,,,,,308.23100369999975,308.7310131000004,309.4482866999997,None,308.7475979000001,309.43174199999976,309.9492987000003,None,left,1,0.338017399999444,309.9492987000003,None,None,308.7475979000001,309.9322682000011,0.5117921000000933,0.5949588000003132,1.713033899999573,1.7966866999995545,,,,,,faizah_2,001,2020_Jan_10_1411,posner,3.1.5,60.07326535446807,
0.5,180,1,right,2,4,1,0,1,0,2,5,21,7,,,,,,,,,310.3171321,310.8171028000006,311.53468220000013,None,310.8335642000011,311.5179429000009,312.03518709999935,None,right,1,0.25211440000020957,312.03518709999935,None,None,310.8335642000011,312.018541800001,0.5116244000000734,0.5950985999988916,1.7130505999994057,1.7966397999989567,,,,,,faizah_2,001,2020_Jan_10_1411,posner,3.1.5,60.07326535446807,
-0.5,0,1,left,1,3,1,0,1,0,2,6,22,2,,,,,,,,,312.3035275000011,312.80294980000053,313.5208633000011,None,312.81974940000055,313.50402529999974,314.02135329999965,None,left,1,0.306051400000797,314.02135329999965,None,None,312.81974940000055,314.0045172,0.5111930000002758,0.5950207000005321,1.7127402999994956,1.7963890999999421,,,,,,faizah_2,001,2020_Jan_10_1411,posner,3.1.5,60.07326535446807,
0.5,0,0,right,1,4,1,0,1,0,2,7,23,3,,,,,,,,,314.35619619999943,314.855927900001,315.57342139999946,None,314.8724503000003,315.55670999999984,316.0741461000007,316.5581934000011,right,1,0.5172631000004912,316.0741461000007,None,None,314.8724503000003,316.05743789999997,0.5117302999988169,0.5954277999990154,1.7132235999997647,1.7967911999985517,,,,,,faizah_2,001,2020_Jan_10_1411,posner,3.1.5,60.07326535446807,
-0.5,180,0,left,2,3,1,0,1,0,3,0,24,4,,,,,,,,,316.60877250000067,317.1089469999997,317.8265375000001,None,317.1257660000001,317.8100106000011,318.32726719999937,None,left,1,0.3680279000000155,318.32726719999937,None,None,317.1257660000001,318.3107203999998,0.5120507999999973,0.5956261999999697,1.713800400000764,1.7972286000003805,,,,,,faizah_2,001,2020_Jan_10_1411,posner,3.1.5,60.07326535446807,
0.5,180,1,right,2,4,1,0,1,0,3,1,25,7,,,,,,,,,318.7114671999998,319.21188340000026,319.92954999999984,None,319.22865790000014,319.9128150000006,320.4302232,None,left,0,0.3132426000011037,320.4302232,None,None,319.22865790000014,320.4133401000008,0.5120857000001706,0.5957861000006233,1.7135254000004352,1.7972387000008894,,,,,,faizah_2,001,2020_Jan_10_1411,posner,3.1.5,60.07326535446807,
-0.5,0,1,left,1,3,1,0,1,0,3,2,26,2,,,,,,,,,320.7640781,321.2645676000002,321.98239100000046,None,321.28137680000054,321.9655919000006,322.4829614,None,left,1,0.38039430000026186,322.4829614,None,None,321.28137680000054,322.46643590000076,0.5116988999998284,0.5953136999996786,1.7135404999989987,1.7969606999995449,,,,,,faizah_2,001,2020_Jan_10_1411,posner,3.1.5,60.07326535446807,
0.5,180,1,right,2,4,1,0,1,0,3,3,27,6,,,,,,,,,322.8842560000003,323.38425000000007,324.10207999999966,None,323.40093799999977,324.08515739999984,324.6025780000009,None,right,1,0.35709329999917827,324.6025780000009,None,None,323.40093799999977,324.5858727999994,0.5118246000001818,0.5952017999989039,1.7134384999990289,1.796973299999081,,,,,,faizah_2,001,2020_Jan_10_1411,posner,3.1.5,60.07326535446807,
0.5,180,1,right,2,4,1,0,1,0,3,4,28,5,,,,,,,,,324.9873660000003,325.48717450000095,326.2047128000004,None,325.5037542,326.18813370000044,326.7056112,None,right,1,0.3578108000001521,326.7056112,None,None,325.5037542,326.6886807000001,0.5116906999992352,0.5952648999991652,1.7131840999991255,1.7969044000001304,,,,,,faizah_2,001,2020_Jan_10_1411,posner,3.1.5,60.07326535446807,
0.5,0,0,right,1,4,1,0,1,0,3,5,29,3,,,,,,,,,327.0899223000006,327.58999440000025,328.3076776000007,None,327.60678160000043,328.2910003999996,328.80842870000106,None,right,1,0.3749212999991869,328.80842870000106,None,None,327.60678160000043,328.79187510000065,0.5115038000003551,0.5949113999995461,1.7133630999996967,1.7965875000008964,,,,,,faizah_2,001,2020_Jan_10_1411,posner,3.1.5,60.07326535446807,
-0.5,0,1,left,1,3,1,0,1,0,3,6,30,1,,,,,,,,,329.20920600000045,329.7097980999997,330.4273772000006,None,329.72660970000015,330.41070780000064,330.92801489999965,None,left,1,0.3272328999992169,330.92801489999965,None,None,329.72660970000015,330.9113060000009,0.512373600000501,0.5956178000014916,1.7138563000007707,1.7974423000014212,,,,,,faizah_2,001,2020_Jan_10_1411,posner,3.1.5,60.07326535446807,
-0.5,0,1,left,1,3,1,0,1,0,3,7,31,0,,,,,,,,,331.27915010000015,331.7792290999996,332.4969368000011,None,331.79587210000045,332.48030390000076,332.9977673000003,None,left,1,0.361950300000899,332.9977673000003,None,None,331.79587210000045,332.98078609999993,0.5117558000001736,0.5949389000015799,1.7132957000012539,1.7967079000009107,,,,,,faizah_2,001,2020_Jan_10_1411,posner,3.1.5,60.07326535446807,
0.5,180,1,right,2,4,1,0,1,0,4,0,32,7,,,,,,,,,333.3823416999994,333.88193969999975,334.59965789999933,None,333.8988063000006,334.58297290000064,335.10052780000024,None,right,1,0.3307645999993838,335.10052780000024,None,None,333.8988063000006,335.08355759999995,0.5113923999997496,0.5948239999997895,1.712996700000076,1.796708600000784,,,,,,faizah_2,001,2020_Jan_10_1411,posner,3.1.5,60.07326535446807,
-0.5,180,0,left,2,3,1,0,1,0,4,1,33,4,,,,,,,,,335.45177220000096,335.95144470000105,336.66922760000034,None,335.9683599000009,336.65237799999977,337.16982840000037,None,left,1,0.38967309999861754,337.16982840000037,None,None,335.9683599000009,337.15310880000015,0.511400199999116,0.594826099999409,1.713044299998728,1.796666099999129,,,,,,faizah_2,001,2020_Jan_10_1411,posner,3.1.5,60.07326535446807,
-0.5,0,1,left,1,3,1,0,1,0,4,2,34,2,,,,,,,,,337.58808299999964,338.0878487,338.8055439999998,None,338.10444519999965,338.7888195000005,339.3061917999994,None,left,1,0.3172217000010278,339.3061917999994,None,None,338.10444519999965,339.28953920000004,0.5113234000000375,0.5947015000001556,1.712997799999357,1.7963880999996036,,,,,,faizah_2,001,2020_Jan_10_1411,posner,3.1.5,60.07326535446807,
-0.5,0,1,left,1,3,1,0,1,0,4,3,35,1,,,,,,,,,339.64066399999956,340.1407214000001,340.8583363000007,None,340.157298000001,340.8415809999997,341.3590907000007,None,left,1,0.3441471999994974,341.3590907000007,None,None,340.157298000001,341.34215979999954,0.5118981000014173,0.5951795000000857,1.7133230000017647,1.796840200000588,,,,,,faizah_2,001,2020_Jan_10_1411,posner,3.1.5,60.07326535446807,
0.5,180,1,right,2,4,1,0,1,0,4,4,36,5,,,,,,,,,341.7272746999997,342.22704910000084,342.9444102999996,None,342.24359099999947,342.9279526,343.44537480000054,None,right,1,0.36206250000032014,343.44537480000054,None,None,342.24359099999947,343.4285838000005,0.5117688999998791,0.5951229999991483,1.7132861000009143,1.7966644000007364,,,,,,faizah_2,001,2020_Jan_10_1411,posner,3.1.5,60.07326535446807,
-0.5,0,1,left,1,3,1,0,1,0,4,5,37,0,,,,,,,,,343.8302611000008,344.3299560000005,345.0475357999994,None,344.34655830000065,345.0309148999995,345.5481131000006,None,left,1,0.3073242000009486,345.5481131000006,None,None,344.34655830000065,345.5313976000007,0.5117866000000504,0.5950173000001087,1.7132129999990866,1.7966443999994226,,,,,,faizah_2,001,2020_Jan_10_1411,posner,3.1.5,60.07326535446807,
0.5,0,0,right,1,4,1,0,1,0,4,6,38,3,,,,,,,,,345.8829814999999,346.38246340000023,347.1003477000004,None,346.39934059999996,347.0835452000001,347.60092580000037,None,right,1,0.42230860000017856,347.60092580000037,None,None,346.39934059999996,347.5842476000007,0.5115147000014986,0.5949629000006098,1.7132605000006151,1.7968120000005001,,,,,,faizah_2,001,2020_Jan_10_1411,posner,3.1.5,60.07326535446807,
0.5,180,1,right,2,4,1,0,1,0,4,7,39,6,,,,,,,,,348.0524376000003,348.5523726000001,349.26975330000005,None,348.5690292999998,349.25315800000044,349.77062229999956,None,right,1,0.42892829999982496,349.77062229999956,None,None,348.5690292999998,349.7538702000011,0.5117876000003889,0.5952908999988722,1.713266200000362,1.7966739000003145,,,,,,faizah_2,001,2020_Jan_10_1411,posner,3.1.5,60.07326535446807,
0.5,180,1,right,2,4,1,0,1,0,5,0,40,6,,,,,,,,,350.222223400001,350.7219596999994,351.4398838999996,None,350.73857729999963,351.4228647000009,351.9407106000008,None,right,1,0.3304929000005359,351.9407106000008,None,None,350.73857729999963,351.92335229999935,0.5115547000004881,0.5950668999994377,1.7129322000000684,1.796605899999122,,,,,,faizah_2,001,2020_Jan_10_1411,posner,3.1.5,60.07326535446807,
0.5,180,1,right,2,4,1,0,1,0,5,1,41,7,,,,,,,,,352.2914412,352.7913636000003,353.5089790000011,None,352.80810680000013,353.49233790000017,354.00976589999937,None,right,1,0.373649099999966,354.00976589999937,None,None,352.80810680000013,353.9930338000004,0.5115869999990537,0.5949406999989151,1.7132442999991326,1.7966983999995136,,,,,,faizah_2,001,2020_Jan_10_1411,posner,3.1.5,60.07326535446807,
0.5,0,0,right,1,4,1,0,1,0,5,2,42,3,,,,,,,,,354.41142820000005,354.9109376999995,355.6286355000002,None,354.9277981999994,355.61206609999954,356.12914,None,right,1,0.41424539999934495,356.12914,None,None,354.9277981999994,356.1121653,0.5111727000003157,0.5945647999997163,1.7123900999995385,1.7964460999992298,,,,,,faizah_2,001,2020_Jan_10_1411,posner,3.1.5,60.07326535446807,
-0.5,180,0,left,2,3,1,0,1,0,5,3,43,4,,,,,,,,,356.5647753000003,357.0638554999996,357.7815531999995,None,357.0806528000003,357.7646792000005,358.28208429999995,None,left,1,0.41308159999971394,358.28208429999995,None,None,357.0806528000003,358.2656407000004,0.5111830000005284,0.5949060000002646,1.7129576000006637,1.7964551000004576,,,,,,faizah_2,001,2020_Jan_10_1411,posner,3.1.5,60.07326535446807,
-0.5,0,1,left,1,3,1,0,1,0,5,4,44,2,,,,,,,,,358.71705100000054,359.2170035000008,359.9344807999996,None,359.2333972999995,359.9178746000007,360.4352023000001,None,left,1,0.3081342000004952,360.4352023000001,None,None,359.2333972999995,360.41867750000074,0.5116600999990624,0.5951181000000361,1.713316899998972,1.7965738999992027,,,,,,faizah_2,001,2020_Jan_10_1411,posner,3.1.5,60.07326535446807,
0.5,180,1,right,2,4,1,0,1,0,5,5,45,5,,,,,,,,,360.76990019999994,361.2698680000003,361.9872454999995,None,361.2866397000007,361.9708290000008,362.4880142000011,None,right,1,0.3272928000005777,362.4880142000011,None,None,361.2866397000007,362.47161959999994,0.5116429000008793,0.5947696999992331,1.7133787000002485,1.7965438999999606,,,,,,faizah_2,001,2020_Jan_10_1411,posner,3.1.5,60.07326535446807,
-0.5,0,1,left,1,3,1,0,1,0,5,6,46,1,,,,,,,,,362.8395621999998,363.3393623000002,364.05685320000066,None,363.3560344999996,364.0404203999997,364.55758180000066,None,left,1,0.3936031000012008,364.55758180000066,None,None,363.3560344999996,364.5408785000009,0.5111622999993415,0.5943305000000692,1.7126650999998674,1.7960905999989336,,,,,,faizah_2,001,2020_Jan_10_1411,posner,3.1.5,60.07326535446807,
-0.5,0,1,left,1,3,1,0,1,0,5,7,47,0,,,,,,,,,364.9758210000009,365.475515000001,366.1932482000002,None,365.4922044999994,366.1764601999994,366.6938536000007,None,left,1,0.40126620000046387,366.6938536000007,None,None,365.4922044999994,366.67721710000023,0.5117869999994582,0.5952976000007766,1.7134647000002587,1.7968479999999545,,,,,,faizah_2,001,2020_Jan_10_1411,posner,3.1.5,60.07326535446807,
0.5,180,1,right,2,4,1,0,1,0,6,0,48,5,,,,,,,,,367.11176910000086,367.61195549999957,368.3294651999995,None,367.6283023999995,368.31264310000097,368.83024360000036,None,right,1,0.38497860000097717,368.83024360000036,None,None,367.6283023999995,368.81327990000045,0.5118929000000207,0.5954258000001573,1.7132024000002275,1.7969092999992426,,,,,,faizah_2,001,2020_Jan_10_1411,posner,3.1.5,60.07326535446807,
-0.5,0,1,left,1,3,1,0,1,0,6,1,49,1,,,,,,,,,369.2313039999999,369.73134130000017,370.449082600001,None,369.7479759000007,370.43224680000003,370.9498064999998,None,left,1,0.36930190000020957,370.9498064999998,None,None,369.7479759000007,370.9329963000009,0.5116557000001194,0.5950644000004104,1.713298599999689,1.7967547999996896,,,,,,faizah_2,001,2020_Jan_10_1411,posner,3.1.5,60.07326535446807,
-0.5,0,1,left,1,3,1,0,1,0,6,2,50,0,,,,,,,,,371.3512354000004,371.8509703999998,372.56876380000085,None,371.86768089999987,372.55183099999977,373.0693541999999,None,left,1,0.3378052000007301,373.0693541999999,None,None,371.86768089999987,373.0525891999996,0.5114869000008184,0.5948655000011058,1.7130907000009756,1.7966684000002715,,,,,,faizah_2,001,2020_Jan_10_1411,posner,3.1.5,60.07326535446807,
-0.5,180,0,left,2,3,1,0,1,0,6,3,51,4,,,,,,,,,373.43673059999946,373.93714180000006,374.6546564999999,None,373.9537996000008,374.6380199000005,375.1554507999999,None,left,1,0.4358252000001812,375.1554507999999,None,None,373.9537996000008,375.1389554999996,0.5122625999993033,0.5958135999990191,1.7140602999988914,1.797310899999502,,,,,,faizah_2,001,2020_Jan_10_1411,posner,3.1.5,60.07326535446807,
0.5,180,1,right,2,4,1,0,1,0,6,4,52,7,,,,,,,,,375.6073060000008,376.10674310000013,376.8243582999994,None,376.1236233000009,376.80770530000063,377.32511330000034,None,right,1,0.36231749999933527,377.32511330000034,None,None,376.1236233000009,377.3084174000005,0.5113037999999506,0.5949302000008174,1.7129628000002413,1.796490000000631,,,,,,faizah_2,001,2020_Jan_10_1411,posner,3.1.5,60.07326535446807,
-0.5,0,1,left,1,3,1,0,1,0,6,5,53,2,,,,,,,,,377.70935109999937,378.2097567999999,378.9273196999993,None,378.2264003999999,378.9108948000003,379.4280344000008,None,left,1,0.3550429000006261,379.4280344000008,None,None,378.2264003999999,379.41132990000096,0.5115796999998565,0.5949013999997987,1.7131305999992037,1.7965409999997064,,,,,,faizah_2,001,2020_Jan_10_1411,posner,3.1.5,60.07326535446807,
0.5,180,1,right,2,4,1,0,1,0,6,6,54,6,,,,,,,,,379.8126225999995,380.3125523000008,381.0303138999998,None,380.3291591999996,381.0135629000006,381.5310371000005,None,right,1,0.29210000000057335,381.5310371000005,None,None,380.3291591999996,381.51420770000095,0.5116003999992245,0.5950681999984226,1.7132409999994707,1.7968507999994472,,,,,,faizah_2,001,2020_Jan_10_1411,posner,3.1.5,60.07326535446807,
0.5,0,0,right,1,4,1,0,1,0,6,7,55,3,,,,,,,,,381.8489651000009,382.3487835999995,383.066304500001,None,382.3656082999996,383.049898100001,383.56698419999975,384.05102220000026,right,1,0.6322935999996844,383.56698419999975,None,None,382.3656082999996,383.5504468000008,0.5112960999995266,0.5945031999999628,1.7129473999993934,1.796277100000225,,,,,,faizah_2,001,2020_Jan_10_1411,posner,3.1.5,60.07326535446807,
-0.5,180,0,left,2,3,1,0,1,0,7,0,56,4,,,,,,,,,384.21907349999947,384.7187808000008,385.43639019999955,None,384.7353083000007,385.41975170000023,385.93710510000074,None,left,1,0.39006439999866416,385.93710510000074,None,None,384.7353083000007,385.9205195000004,0.511184000000867,0.5946219000015844,1.7129068000012921,1.7961025000004156,,,,,,faizah_2,001,2020_Jan_10_1411,posner,3.1.5,60.07326535446807,
0.5,0,0,right,1,4,1,0,1,0,7,1,57,3,,,,,,,,,386.3548662000003,386.8548720000008,387.5725635000008,None,386.871686200001,387.5560742000007,388.07320230000096,None,right,1,0.26994569999988016,388.07320230000096,None,None,386.871686200001,388.0565687999997,0.5116920000000391,0.595155999999406,1.713365800000247,1.7968651999999565,,,,,,faizah_2,001,2020_Jan_10_1411,posner,3.1.5,60.07326535446807,
0.5,180,1,right,2,4,1,0,1,0,7,2,58,6,,,,,,,,,388.37422550000065,388.8742551999994,389.59202060000007,None,388.8910227000006,389.5754380999997,390.09262650000073,None,left,0,0.2104100999986258,390.09262650000073,None,None,388.8910227000006,390.0758992000001,0.5114415000007284,0.5948915999997553,1.7130644999997457,1.7967633999996906,,,,,,faizah_2,001,2020_Jan_10_1411,posner,3.1.5,60.07326535446807,
0.5,180,1,right,2,4,1,0,1,0,7,3,59,5,,,,,,,,,390.3268775000006,390.8270111000011,391.5446753999995,None,390.8437832999998,391.52799640000103,392.0454818999997,None,right,1,0.3855430999992677,392.0454818999997,None,None,390.8437832999998,392.0288241999997,0.5121758000004775,0.5957111000006989,1.7139721000003192,1.7972960000006424,,,,,,faizah_2,001,2020_Jan_10_1411,posner,3.1.5,60.07326535446807,
0.5,180,1,right,2,4,1,0,1,0,7,4,60,7,,,,,,,,,392.46269610000036,392.963263300001,393.68105170000035,None,392.9802690000006,393.66438389999985,394.18170200000077,None,right,1,0.35327679999863904,394.18170200000077,None,None,392.9802690000006,394.1652595000005,0.5121596999997564,0.5958220000011352,1.7141363999999157,1.7973116000011942,,,,,,faizah_2,001,2020_Jan_10_1411,posner,3.1.5,60.07326535446807,
-0.5,0,1,left,1,3,1,0,1,0,7,5,61,2,,,,,,,,,394.5657820999995,395.06639260000065,395.7838443999999,None,395.082755800001,395.7671885000009,396.2846066000011,None,left,1,0.27442510000037146,396.2846066000011,None,None,395.082755800001,396.26792900000055,0.512883100000181,0.5964222999991762,1.7144026000005397,1.7978069000000687,,,,,,faizah_2,001,2020_Jan_10_1411,posner,3.1.5,60.07326535446807,
-0.5,0,1,left,1,3,1,0,1,0,7,6,62,1,,,,,,,,,396.5862132000011,397.08561699999973,397.80334630000016,None,397.10230990000036,397.7868384000003,398.30395919999955,None,left,1,0.32721329999912996,398.30395919999955,None,None,397.10230990000036,398.28739609999957,0.5116596999996545,0.595083700000032,1.7134136000004219,1.7969315999998798,,,,,,faizah_2,001,2020_Jan_10_1411,posner,3.1.5,60.07326535446807,
-0.5,0,1,left,1,3,1,0,1,0,7,7,63,0,,,,,,,,,398.6555509,399.15519270000095,399.87273039999945,None,399.17175640000005,399.8561130999997,400.37341540000034,None,left,1,0.3056369999994786,400.37341540000034,None,None,399.17175640000005,400.3568724000006,0.5114998999997624,0.5949567999996361,1.7131622999986575,1.7970432000001892,,,,,,faizah_2,001,2020_Jan_10_1411,posner,3.1.5,60.07326535446807,
-0.5,0,1,left,1,3,1,0,1,0,8,0,64,0,,,,,,,,,400.7076390000011,401.2080106000003,401.92589619999944,None,401.2247598999993,401.90899099999933,402.42636630000106,None,left,1,0.33271179999974265,402.42636630000106,None,None,401.2247598999993,402.40980020000006,0.5123388000010891,0.5958096000013029,1.7141061000002082,1.797673000000941,,,,,,faizah_2,001,2020_Jan_10_1411,posner,3.1.5,60.07326535446807,
0.5,180,1,right,2,4,1,0,1,0,8,1,65,7,,,,,,,,,402.7779555999996,403.2776659000001,403.99528999999984,None,403.2942100999999,403.9785290000009,404.4961121999995,None,right,1,0.25488210000003164,404.4961121999995,None,None,403.2942100999999,404.4792318000009,0.5113997999997082,0.5946575999987544,1.7129506999990554,1.7963507999993453,,,,,,faizah_2,001,2020_Jan_10_1411,posner,3.1.5,60.07326535446807,
-0.5,0,1,left,1,3,1,0,1,0,8,2,66,2,,,,,,,,,404.7800675999997,405.2804901999998,405.99787650000053,None,405.29697860000033,405.9813946000004,406.49859469999956,None,left,1,0.300513599999249,406.49859469999956,None,None,405.29697860000033,406.48195140000007,0.51198309999927,0.5951635000001261,1.713431500000297,1.7969921999992948,,,,,,faizah_2,001,2020_Jan_10_1411,posner,3.1.5,60.07326535446807,
0.5,180,1,right,2,4,1,0,1,0,8,3,67,5,,,,,,,,,406.81626530000085,407.31633819999934,408.03411940000024,None,407.3330670999994,408.017418800001,408.53476970000065,None,right,1,0.27245249999941734,408.53476970000065,None,None,407.3330670999994,408.5181232999994,0.5121176999982708,0.5956284999992931,1.7138687999995454,1.7971899999993184,,,,,,faizah_2,001,2020_Jan_10_1411,posner,3.1.5,60.07326535446807,
0.5,180,1,right,2,4,1,0,1,0,8,4,68,6,,,,,,,,,408.83605480000097,409.33579740000005,410.0534467999996,None,409.35247699999945,410.0369022999994,410.55422830000043,None,right,1,0.3247874000007869,410.55422830000043,None,None,409.35247699999945,410.53750780000064,0.5115812000003643,0.5951725000013539,1.7132682999999815,1.796848800000589,,,,,,faizah_2,001,2020_Jan_10_1411,posner,3.1.5,60.07326535446807,
0.5,0,0,right,1,4,1,0,1,0,8,5,69,3,,,,,,,,,410.9056661000004,411.4055548999995,412.1230678000002,None,411.4219626999993,412.10633060000055,412.62366609999935,None,right,1,0.3514844000001176,412.62366609999935,None,None,411.4219626999993,412.60709170000064,0.5119429000005766,0.5952072000000044,1.7134645000005548,1.7968310000014753,,,,,,faizah_2,001,2020_Jan_10_1411,posner,3.1.5,60.07326535446807,
-0.5,0,1,left,1,3,1,0,1,0,8,6,70,1,,,,,,,,,412.9917009999999,413.4916067000004,414.20974320000005,None,413.5083304000009,414.19258080000054,414.70992150000075,None,left,1,0.32898650000061025,414.70992150000075,None,None,413.5083304000009,414.6931945999995,0.5116146000000299,0.5949492999989161,1.7131824999996752,1.7965977999992901,,,,,,faizah_2,001,2020_Jan_10_1411,posner,3.1.5,60.07326535446807,
-0.5,180,0,left,2,3,1,0,1,0,8,7,71,4,,,,,,,,,415.06174060000103,415.56126850000055,416.2788090999993,None,415.57774569999947,416.26203129999976,416.7795309000003,None,left,1,0.45949970000037865,416.7795309000003,None,None,415.57774569999947,416.7628498999993,0.5114090000006399,0.5946067999993829,1.7129765999998199,1.7964112999998179,,,,,,faizah_2,001,2020_Jan_10_1411,posner,3.1.5,60.07326535446807,
0.5,180,1,right,2,4,1,0,1,0,9,0,72,6,,,,,,,,,417.2642870000009,417.76401050000004,418.48164520000046,None,417.78079590000107,418.46501830000034,418.98230050000075,417.2642870000009,right,1,0.28871129999970435,418.98230050000075,None,None,417.78079590000107,418.9657993999999,0.5115577999986272,0.5952713999995467,1.7133228999991843,1.7970405999985815,,,,,,faizah_2,001,2020_Jan_10_1411,posner,3.1.5,60.07326535446807,
0.5,180,1,right,2,4,1,0,1,0,9,1,73,7,,,,,,,,,419.3001935000002,419.8004683999998,420.5180296999997,None,419.8169645000007,420.50114529999973,421.01865180000004,None,right,1,0.32429960000081337,421.01865180000004,None,None,419.8169645000007,421.0017481999994,0.5119004000007408,0.5950995000002877,1.713161100000434,1.7967628000005789,,,,,,faizah_2,001,2020_Jan_10_1411,posner,3.1.5,60.07326535446807,
-0.5,0,1,left,1,3,1,0,1,0,9,2,74,1,,,,,,,,,421.3698981999996,421.8700316000004,422.5874312999995,None,421.8864813000009,422.5708224,423.08813199999986,None,left,1,0.407005000000936,423.08813199999986,None,None,421.8864813000009,423.0714935999995,0.5118789999996807,0.5949745999987499,1.7133231999996497,1.796642699999211,,,,,,faizah_2,001,2020_Jan_10_1411,posner,3.1.5,60.07326535446807,
-0.5,0,1,left,1,3,1,0,1,0,9,3,75,0,,,,,,,,,423.5230438999997,424.0225956000004,424.7405583999998,None,424.0394614000006,424.72364239999933,425.24090290000004,None,left,1,0.3180426000017178,425.24090290000004,None,None,424.0394614000006,425.225370000001,0.5116084999990562,0.595199399998819,1.7143656999996892,1.796251800000391,,,,,,faizah_2,001,2020_Jan_10_1411,posner,3.1.5,60.07326535446807,
0.5,0,0,right,1,4,1,0,1,0,9,4,76,3,,,,,,,,,425.57664990000103,426.07572999999957,426.7931106999995,None,426.0921833000002,426.77657160000035,427.29397999999946,None,right,1,0.39307819999885396,427.29397999999946,None,None,426.0921833000002,427.27710580000075,0.5104156999987026,0.5938784999998461,1.711774499999592,1.7952859999986686,,,,,,faizah_2,001,2020_Jan_10_1411,posner,3.1.5,60.07326535446807,
0.5,180,1,right,2,4,1,0,1,0,9,5,77,5,,,,,,,,,427.71176509999987,428.2119111000002,428.9296103000006,None,428.2285572999999,428.91295380000065,429.4303095999994,None,right,1,0.3045784999994794,429.4303095999994,None,None,428.2285572999999,429.41352330000063,0.5117862000006426,0.5954651000010927,1.713383899999826,1.7968951000002562,,,,,,faizah_2,001,2020_Jan_10_1411,posner,3.1.5,60.07326535446807,
-0.5,0,1,left,1,3,1,0,1,0,9,6,78,2,,,,,,,,,429.7648851999993,430.2648345000007,430.9821985999997,None,430.28149249999933,430.9658659000006,431.48288740000044,None,left,1,0.30800079999971786,431.48288740000044,None,None,430.28149249999933,431.4663833000004,0.5116504000015993,0.5948568000003434,1.7131726000006893,1.7966356000015367,,,,,,faizah_2,001,2020_Jan_10_1411,posner,3.1.5,60.07326535446807,
-0.5,180,0,left,2,3,1,0,1,0,9,7,79,4,,,,,,,,,431.81755020000037,432.3173955000011,433.0353074000004,None,432.33405519999997,433.0184636999993,433.5358619000008,None,left,1,0.4231287999991764,433.5358619000008,None,None,432.33405519999997,433.5191287000007,0.5114619999985734,0.594951699999001,1.713179799999125,1.7965565999984392,,,,,,faizah_2,001,2020_Jan_10_1411,posner,3.1.5,60.07326535446807,
-0.5,180,0,left,2,3,1,0,1,0,10,0,80,4,,,,,,,,,433.9871728999997,434.4870529000009,435.20463570000084,None,434.5038654000009,435.1880907999994,435.7056418000002,None,left,1,0.3654497999996238,435.7056418000002,None,None,434.5038654000009,435.6889760999993,0.5115160000004835,0.5951265000003332,1.7134153000006336,1.796687899999597,,,,,,faizah_2,001,2020_Jan_10_1411,posner,3.1.5,60.07326535446807,
-0.5,0,1,left,1,3,1,0,1,0,10,1,81,2,,,,,,,,,436.090302900001,436.5902133999998,437.3077046999997,None,436.6067828999994,437.29089830000066,437.8083658000005,None,left,1,0.32653319999917585,437.8083658000005,None,None,436.6067828999994,437.7918698000003,0.5117184999999154,0.595021999999517,1.7133606000006694,1.796878099999958,,,,,,faizah_2,001,2020_Jan_10_1411,posner,3.1.5,60.07326535446807,
0.5,180,1,right,2,4,1,0,1,0,10,2,82,6,,,,,,,,,438.15912070000104,438.6598892000011,439.37704609999946,None,438.67641230000027,439.3605104999997,439.87793990000046,None,right,1,0.28919780000069295,439.87793990000046,None,None,438.67641230000027,439.8613840000007,0.5125734000012017,0.5957360000011249,1.7140573000015138,1.7974293000006583,,,,,,faizah_2,001,2020_Jan_10_1411,posner,3.1.5,60.07326535446807,
0.5,180,1,right,2,4,1,0,1,0,10,3,83,7,,,,,,,,,440.1959902999997,440.69565129999955,441.4133023000004,None,440.7123271999999,441.3968278000002,441.9138537000008,None,right,1,0.34128599999894504,441.9138537000008,None,None,440.7123271999999,441.89757890000055,0.5115676999994321,0.5950355999993917,1.7134550999999192,1.7966788999983692,,,,,,faizah_2,001,2020_Jan_10_1411,posner,3.1.5,60.07326535446807,
-0.5,0,1,left,1,3,1,0,1,0,10,4,84,0,,,,,,,,,442.28192630000103,442.78204900000037,443.49950760000047,None,442.79862240000057,443.48288520000006,444.0001947999999,None,left,1,0.3026423999999679,444.0001947999999,None,None,442.79862240000057,443.98343680000016,0.5118243999986589,0.5953915999998571,1.7131998999993812,1.7966801000002306,,,,,,faizah_2,001,2020_Jan_10_1411,posner,3.1.5,60.07326535446807,
-0.5,0,1,left,1,3,1,0,1,0,10,5,85,1,,,,,,,,,444.3343759999998,444.83457630000066,445.5524553999994,None,444.8513329999996,445.53564450000067,446.05303730000105,None,left,1,0.35387310000078287,446.05303730000105,None,None,444.8513329999996,446.03640069999983,0.511557100000573,0.5950888999996096,1.713366699999824,1.7968287999992754,,,,,,faizah_2,001,2020_Jan_10_1411,posner,3.1.5,60.07326535446807,
0.5,0,0,right,1,4,1,0,1,0,10,6,86,3,,,,,,,,,446.4371027999996,446.93756959999973,447.65528619999986,None,446.9541758000005,447.6388806999994,448.1559521999998,None,right,1,0.3949934000011126,448.1559521999998,None,None,446.9541758000005,448.1393486999996,0.512262300000657,0.5957797999999457,1.7140178000008746,1.7972781000007672,,,,,,faizah_2,001,2020_Jan_10_1411,posner,3.1.5,60.07326535446807,
0.5,180,1,right,2,4,1,0,1,0,10,7,87,5,,,,,,,,,448.57426790000045,449.07381710000027,449.7915853000004,None,449.0905310999997,449.7747210999996,450.2920791000006,None,right,1,0.3308608999996068,450.2920791000006,None,None,449.0905310999997,450.2755191999995,0.5116015000003244,0.5951607000006334,1.7132829999991372,1.7968373999992764,,,,,,faizah_2,001,2020_Jan_10_1411,posner,3.1.5,60.07326535446807,
,,,,,,1,0,1,0,,,,,,,,,,,,,,,,,,,,,,,,,,,,,,,,,450.6431220000004,None,1.6699999832781032e-05,0.9956872000002477,,faizah_2,001,2020_Jan_10_1411,posner,3.1.5,60.07326535446807,
-0.5,180,0,left,2,3,2,0,2,0,0,0,0,4,1.2200000128359534e-05,0.09817320000001928,511.66006690000086,None,1.5699999494245276e-05,0.09771159999945667,513.762787300001,None,514.040320000001,514.547633000001,515.2483633000002,None,514.5639416999993,515.2483633000002,515.7489606000008,None,left,1,0.4176246999995783,515.7489606000008,None,None,514.5639416999993,515.7489606000008,0.5167098000001715,0.5999646000000212,1.7012188000007882,1.8014388000010513,,,,,,faizah_2,001,2020_Jan_10_1411,posner,3.1.5,60.07326535446807,
-0.5,0,1,left,1,3,2,0,2,0,0,1,1,0,,,,,,,,,516.1836255000007,516.6834401999995,517.4012302000001,None,516.7002364000009,517.3846495999996,517.9018105999994,None,left,1,0.3047998000001826,517.9018105999994,None,None,516.7002364000009,517.8852214999997,0.5106814000009763,0.5941554000000906,1.7124437000002217,1.796007599999939,,,,,,faizah_2,001,2020_Jan_10_1411,posner,3.1.5,60.07326535446807,
-0.5,0,1,left,1,3,2,0,2,0,0,2,2,2,,,,,,,,,518.2364724999998,518.7365474000007,519.4539811000004,None,518.7530713999995,519.4374880000005,519.9547057000009,None,left,1,0.35621899999932793,519.9547057000009,None,None,518.7530713999995,519.9379866999998,0.5116192999994382,0.5949510999998893,1.7130423999988125,1.7965469999999186,,,,,,faizah_2,001,2020_Jan_10_1411,posner,3.1.5,60.07326535446807,
-0.5,0,1,left,1,3,2,0,2,0,0,3,3,1,,,,,,,,,520.3392334000009,520.839297200001,521.5568854000003,None,520.8560915999997,521.5403109999997,522.0577535000002,None,left,1,0.3408417999999074,522.0577535000002,None,None,520.8560915999997,522.040973600001,0.5118469999997615,0.5951459999996587,1.7135013999995863,1.796893500000806,,,,,,faizah_2,001,2020_Jan_10_1411,posner,3.1.5,60.07326535446807,
0.5,180,1,right,2,4,2,0,2,0,0,4,4,6,,,,,,,,,522.4258154999998,522.9255827000006,523.6432825000002,None,522.9425330999993,523.6265138999997,524.1439569999993,None,right,1,0.39065949999894656,524.1439569999993,None,None,522.9425330999993,524.1272429999999,0.511584000001676,0.5950374000003649,1.713219900000695,1.7965306000005512,,,,,,faizah_2,001,2020_Jan_10_1411,posner,3.1.5,60.07326535446807,
0.5,180,1,right,2,4,2,0,2,0,0,5,5,5,,,,,,,,,524.5620250000002,525.0616421000004,525.7795385,None,525.0786042999998,525.7626725,526.2800319000007,None,right,1,0.39863449999938894,526.2800319000007,None,None,525.0786042999998,526.2632779000005,0.5114383000000089,0.5950233999992633,1.7130543000002945,1.7968032999997376,,,,,,faizah_2,001,2020_Jan_10_1411,posner,3.1.5,60.07326535446807,
0.5,0,0,right,1,4,2,0,2,0,0,6,6,3,,,,,,,,,526.6983800000007,527.1981179999993,527.915715600001,None,527.2146471000005,527.8991023000008,528.4163137000005,None,right,1,0.39831839999897056,528.4163137000005,None,None,527.2146471000005,528.399811100001,0.5115893000001961,0.5948217000004661,1.7132708000008279,1.7964194000014686,,,,,,faizah_2,001,2020_Jan_10_1411,posner,3.1.5,60.07326535446807,
0.5,180,1,right,2,4,2,0,2,0,0,7,7,7,,,,,,,,,528.8342588999994,529.3342616,530.0518400999999,None,529.3510687999997,530.0352360000006,530.5525762000007,None,right,1,0.44596159999855445,530.5525762000007,None,None,529.3510687999997,530.5362113000001,0.5118974999986676,0.5953792000000249,1.7138144000000466,1.7972047999992355,,,,,,faizah_2,001,2020_Jan_10_1411,posner,3.1.5,60.07326535446807,
0.5,180,1,right,2,4,2,0,2,0,1,0,8,7,,,,,,,,,531.0211363000008,531.5206864000002,532.2382294000008,None,531.5374550000006,532.2215461000005,532.7389162000009,None,right,1,0.4037042999989353,532.7389162000009,None,None,531.5374550000006,532.7222585999998,0.5115652000004047,0.5949006999999256,1.7131016000003,1.796730199999729,,,,,,faizah_2,001,2020_Jan_10_1411,posner,3.1.5,60.07326535446807,
0.5,0,0,right,1,4,2,0,2,0,1,1,9,3,,,,,,,,,533.1734726999994,533.6736494999996,534.3913237999996,None,533.6904322,534.3745167000006,534.8920387000007,None,right,1,0.3705874999996013,534.8920387000007,None,None,533.6904322,534.8755049000001,0.5117496999992,0.5951447000006738,1.7135901999990892,1.7967231999991782,,,,,,faizah_2,001,2020_Jan_10_1411,posner,3.1.5,60.07326535446807,
-0.5,0,1,left,1,3,2,0,2,0,1,2,10,1,,,,,,,,,535.2928351,535.7931715999994,536.5108429000002,None,535.8100077999998,536.4941442999998,537.0116313000008,None,left,1,0.40292849999968894,537.0116313000008,None,None,535.8100077999998,536.9948737999994,0.511921599998459,0.595339999999851,1.7136313999999402,1.7971784999990632,,,,,,faizah_2,001,2020_Jan_10_1411,posner,3.1.5,60.07326535446807,
-0.5,180,0,left,2,3,2,0,2,0,1,3,11,4,,,,,,,,,537.4463480000004,537.9462976000004,538.6638002999998,None,537.9627592000006,538.6474635999994,539.1645314000007,539.6486255000009,left,1,0.5299897000004421,539.1645314000007,None,None,537.9627592000006,539.1480333000009,0.5117238999991969,0.5952000999986922,1.7134401999992406,1.7968081999988499,,,,,,faizah_2,001,2020_Jan_10_1411,posner,3.1.5,60.07326535446807,
-0.5,0,1,left,1,3,2,0,2,0,1,4,12,2,,,,,,,,,539.7166606000001,540.2161009000001,540.9334982999999,None,540.2325771000005,540.9168837000007,541.4342858999998,None,left,1,0.32423759999983304,541.4342858999998,None,None,540.2325771000005,541.417696200001,0.5114526999986992,0.5947909999995318,1.7130495000001247,1.796372999999221,,,,,,faizah_2,001,2020_Jan_10_1411,posner,3.1.5,60.07326535446807,
-0.5,0,1,left,1,3,2,0,2,0,1,5,13,0,,,,,,,,,541.7859443999996,542.2855707999997,543.0032555999996,None,542.3021842999997,542.9863653000002,543.5036542000007,None,left,1,0.31897270000081335,543.5036542000007,None,None,542.3021842999997,543.4871699999994,0.511670600000798,0.595000400000572,1.7132569000004878,1.7966488000001846,,,,,,faizah_2,001,2020_Jan_10_1411,posner,3.1.5,60.07326535446807,
0.5,180,1,right,2,4,2,0,2,0,1,6,14,5,,,,,,,,,543.8384551999998,544.3384978999993,545.0560522999995,None,544.3552009000005,545.0394284000004,545.556695100001,None,right,1,0.39389200000005076,545.556695100001,None,None,544.3552009000005,545.5400180000006,0.5117811999989499,0.5950254999988829,1.7132948999988002,1.7967926999990596,,,,,,faizah_2,001,2020_Jan_10_1411,posner,3.1.5,60.07326535446807,
0.5,180,1,right,2,4,2,0,2,0,1,7,15,6,,,,,,,,,545.9746652000003,546.4746000000005,547.1922963999996,None,546.4915468000008,547.1755526000006,547.6929092,None,right,1,0.3217076000000816,547.6929092,None,None,546.4915468000008,547.6761732999994,0.5118813999997656,0.5952650999988691,1.7134253999993234,1.7969180000000051,,,,,,faizah_2,001,2020_Jan_10_1411,posner,3.1.5,60.07326535446807,
-0.5,0,1,left,1,3,2,0,2,0,2,0,16,2,,,,,,,,,548.0443753000009,548.5441277,549.2617400000008,None,548.5608899999997,549.2453608000005,549.7623634000001,None,left,1,0.3242801000014879,549.7623634000001,None,None,548.5608899999997,549.7459960999995,0.5115636999998969,0.5951040999989345,1.7134126999990258,1.7967489999991813,,,,,,faizah_2,001,2020_Jan_10_1411,posner,3.1.5,60.07326535446807,
0.5,0,0,right,1,4,2,0,2,0,2,1,17,3,,,,,,,,,550.1138354000004,550.6135308000003,551.3313943000003,None,550.6302055000006,551.3146349999997,551.8319256000004,None,right,1,0.35861970000041765,551.8319256000004,None,None,550.6302055000006,551.8154026000002,0.5114635000009002,0.5952013000005536,1.7133307000003697,1.7968885999998747,,,,,,faizah_2,001,2020_Jan_10_1411,posner,3.1.5,60.07326535446807,
0.5,180,1,right,2,4,2,0,2,0,2,2,18,6,,,,,,,,,552.2169607999995,552.7165316,553.4341711000006,None,552.7331970000005,553.4176030000008,553.9349176000005,554.4187530000008,None,0,,553.9349176000005,None,None,552.7331970000005,553.9182800000008,0.511654299998554,0.5951898999992409,1.7133784999987256,1.7966145999998844,,,,,,faizah_2,001,2020_Jan_10_1411,posner,3.1.5,60.07326535446807,
-0.5,0,1,left,1,3,2,0,2,0,2,3,19,0,,,,,,,,,554.9200444999997,555.4202260000011,556.1380084000002,554.9200444999997,555.4370609999996,556.1212934999994,556.6386548,None,left,1,0.3279471999994712,556.6386548,None,None,555.4370609999996,556.621882800001,0.511679200000799,0.5950883000004978,1.713322400000834,1.7966515999996773,,,,,,faizah_2,001,2020_Jan_10_1411,posner,3.1.5,60.07326535446807,
-0.5,180,0,left,2,3,2,0,2,0,2,4,20,4,,,,,,,,,556.9899144000001,557.4898719000003,558.2073676999998,None,557.5065937999998,558.1909189000007,558.7082022000004,None,left,1,0.41039249999994354,558.7082022000004,None,None,557.5065937999998,558.6913254000001,0.5117661000003864,0.5950149000000238,1.7132017999992968,1.7968246000000363,,,,,,faizah_2,001,2020_Jan_10_1411,posner,3.1.5,60.07326535446807,
0.5,180,1,right,2,4,2,0,2,0,2,5,21,5,,,,,,,,,559.1421452999994,559.6427376000001,560.3604378000009,None,559.659429100001,560.3438300999996,560.8610589000009,None,right,1,0.28172059999997145,560.8610589000009,None,None,559.659429100001,560.8443961000003,0.5124145000008866,0.5956805999994685,1.7140536999995675,1.7974281999995583,,,,,,faizah_2,001,2020_Jan_10_1411,posner,3.1.5,60.07326535446807,
-0.5,0,1,left,1,3,2,0,2,0,2,6,22,1,,,,,,,,,561.1621005999996,561.6621954000011,562.3799081000006,None,561.6790508000004,562.3631639000005,562.8806171999995,None,left,1,0.2858317000009265,562.8806171999995,None,None,561.6790508000004,562.8636448999996,0.511866299999383,0.5953073999990011,1.7133075000001554,1.797018899998875,,,,,,faizah_2,001,2020_Jan_10_1411,posner,3.1.5,60.07326535446807,
0.5,180,1,right,2,4,2,0,2,0,2,7,23,7,,,,,,,,,563.1982314999996,563.6984973999997,564.4158023999998,None,563.7148614000007,564.3993223999996,564.916567700001,None,right,1,0.2660553000005166,564.916567700001,None,None,563.7148614000007,564.8998261999996,0.5118277000001399,0.5949101000005612,1.7131423000009818,1.7965683000002173,,,,,,faizah_2,001,2020_Jan_10_1411,posner,3.1.5,60.07326535446807,
-0.5,0,1,left,1,3,2,0,2,0,3,0,24,1,,,,,,,,,565.2014453000002,565.7012292999998,566.4186815000003,None,565.7178312000005,566.401979700001,566.9195590999998,None,left,1,0.3269118000007438,566.9195590999998,None,None,565.7178312000005,566.902600800001,0.511773499998526,0.5949621999989176,1.713125799999034,1.7965828999986115,,,,,,faizah_2,001,2020_Jan_10_1411,posner,3.1.5,60.07326535446807,
-0.5,180,0,left,2,3,2,0,2,0,3,1,25,4,,,,,,,,,567.2710232,567.7705097999997,568.4882358999994,None,567.7872751999994,568.4716299000002,568.988822100001,None,left,1,0.3936647999998968,568.988822100001,None,None,567.7872751999994,568.9721340999995,0.5114333999990777,0.5948723999990762,1.7130388000005041,1.796659699999509,,,,,,faizah_2,001,2020_Jan_10_1411,posner,3.1.5,60.07326535446807,
0.5,0,0,right,1,4,2,0,2,0,3,2,26,3,,,,,,,,,569.4068507000002,569.9068997000004,570.6244125000003,None,569.9234566000005,570.6078532000001,571.1252130000003,None,right,1,0.34546379999846977,571.1252130000003,None,None,569.9234566000005,571.1085202999993,0.511687999998685,0.5951189999996132,1.713290899999265,1.796512699998857,,,,,,faizah_2,001,2020_Jan_10_1411,posner,3.1.5,60.07326535446807,
0.5,180,1,right,2,4,2,0,2,0,3,3,27,7,,,,,,,,,571.4935415999998,571.9930276999994,572.7107157,None,572.0097013999994,572.6941656000008,573.2112726999994,None,right,1,0.3073089000008622,573.2112726999994,None,None,572.0097013999994,573.1948036000003,0.5114002999998775,0.5947553000005428,1.713160000001153,1.796496200000547,,,,,,faizah_2,001,2020_Jan_10_1411,posner,3.1.5,60.07326535446807,
-0.5,0,1,left,1,3,2,0,2,0,3,4,28,2,,,,,,,,,573.546315300001,574.0461082000011,574.763436100001,None,574.0624452000002,574.7466967000009,575.2642218999999,None,left,1,0.28612229999998817,575.2642218999999,None,None,574.0624452000002,575.2476249000001,0.5118363000001409,0.5950498000001971,1.7133369000002858,1.7967021999993449,,,,,,faizah_2,001,2020_Jan_10_1411,posner,3.1.5,60.07326535446807,
0.5,180,1,right,2,4,2,0,2,0,3,5,29,6,,,,,,,,,575.5661289000009,576.0655324999998,576.7828858000003,None,576.0819555000007,576.7661699999999,577.2834988999994,None,right,1,0.25900130000081845,577.2834988999994,None,None,576.0819555000007,577.2669192000003,0.5113596999999572,0.5947699999996985,1.7127280999993673,1.7962926999989577,,,,,,faizah_2,001,2020_Jan_10_1411,posner,3.1.5,60.07326535446807,
0.5,180,1,right,2,4,2,0,2,0,3,6,30,5,,,,,,,,,577.5682891999995,578.0680805000002,578.7860812999998,None,578.0848699000007,578.7688850999994,579.2864393000009,None,right,1,0.45628209999995306,579.2864393000009,None,None,578.0848699000007,579.2697785999999,0.5113302000008844,0.5948993000001792,1.713013000000501,1.796257500000138,,,,,,faizah_2,001,2020_Jan_10_1411,posner,3.1.5,60.07326535446807,
-0.5,0,1,left,1,3,2,0,2,0,3,7,31,0,,,,,,,,,579.7711588000011,580.2711888000003,580.9888316999995,None,580.2879105000002,580.9719603000003,581.4895569000009,579.7711588000011,left,1,0.28487440000026254,581.4895569000009,None,None,580.2879105000002,581.4726096000004,0.5118124000000535,0.5950714000009611,1.713221699999849,1.7967368999998143,,,,,,faizah_2,001,2020_Jan_10_1411,posner,3.1.5,60.07326535446807,
0.5,180,1,right,2,4,2,0,2,0,4,0,32,6,,,,,,,,,581.7906532000006,582.2906360999996,583.0082714000009,None,582.3073130000002,582.9913817999995,583.5090362000001,None,right,1,0.28140460000031453,583.5090362000001,None,None,582.3073130000002,583.4921464000008,0.5117523000008077,0.5949837000007392,1.7132555000007414,1.7967167999995581,,,,,,faizah_2,001,2020_Jan_10_1411,posner,3.1.5,60.07326535446807,
0.5,180,1,right,2,4,2,0,2,0,4,1,33,5,,,,,,,,,583.8100564000006,584.3100681999995,585.0277911000003,None,584.3266720000001,585.0108929999997,585.5284237999995,None,right,1,0.31008590000055847,585.5284237999995,None,None,584.3266720000001,585.5115534999995,0.5119070999990072,0.5954096999994363,1.713375699999233,1.7970624999998108,,,,,,faizah_2,001,2020_Jan_10_1411,posner,3.1.5,60.07326535446807,
-0.5,180,0,left,2,3,2,0,2,0,4,2,34,4,,,,,,,,,585.8632437000006,586.3629599000005,587.0805673000004,None,586.3797299000007,587.0636686000007,587.5812054000007,None,left,1,0.38535050000064075,587.5812054000007,None,None,586.3797299000007,587.5646671000004,0.5116502000000764,0.595008999998754,1.713334299998678,1.7966583999987051,,,,,,faizah_2,001,2020_Jan_10_1411,posner,3.1.5,60.07326535446807,
-0.5,0,1,left,1,3,2,0,2,0,4,3,35,1,,,,,,,,,587.9825394000009,588.4824462000006,589.2001676000009,None,588.4992916000001,589.1833142000005,589.700776300001,None,left,1,0.2577228999998624,589.700776300001,None,None,588.4992916000001,589.6839957000002,0.5117028000004211,0.5950957000004564,1.7132282000002306,1.7968780000010156,,,,,,faizah_2,001,2020_Jan_10_1411,posner,3.1.5,60.07326535446807,
0.5,180,1,right,2,4,2,0,2,0,4,4,36,7,,,,,,,,,589.9852182999994,590.4852911000007,591.2027515,None,590.501749,591.1860618000001,591.7034052999998,None,right,1,0.3190212999998039,591.7034052999998,None,None,590.501749,591.6868397999997,0.5117988000001787,0.5950931999996101,1.7133345999991434,1.797008099998493,,,,,,faizah_2,001,2020_Jan_10_1411,posner,3.1.5,60.07326535446807,
-0.5,0,1,left,1,3,2,0,2,0,4,5,37,0,,,,,,,,,592.0383487999998,592.5379944999995,593.2556960000011,None,592.5546294999995,593.2388197999999,593.7563332,None,left,1,0.354118399998697,593.7563332,None,None,592.5546294999995,593.7399116999995,0.5115523000004032,0.5949399000000994,1.7134580999991158,1.796698699999979,,,,,,faizah_2,001,2020_Jan_10_1411,posner,3.1.5,60.07326535446807,
-0.5,0,1,left,1,3,2,0,2,0,4,6,38,2,,,,,,,,,594.1407183000001,594.6408770000007,595.3585991000009,None,594.6576931000009,595.3416919000001,595.8592767,None,left,1,0.2911189000005834,595.8592767,None,None,594.6576931000009,595.8425185000006,0.5117084000012255,0.5954073000011704,1.7133348999996088,1.7967905000004976,,,,,,faizah_2,001,2020_Jan_10_1411,posner,3.1.5,60.07326535446807,
0.5,0,0,right,1,4,2,0,2,0,4,7,39,3,,,,,,,,,596.1770110000007,596.6770397000009,597.3946437000004,None,596.6938297999995,597.37813,597.8953572,None,right,1,0.375162199999977,597.8953572,None,None,596.6938297999995,597.8787521999993,0.512305499998547,0.5956984999993438,1.7139979000003223,1.7972434000002977,,,,,,faizah_2,001,2020_Jan_10_1411,posner,3.1.5,60.07326535446807,
0.5,180,1,right,2,4,2,0,2,0,5,0,40,7,,,,,,,,,598.2966563,598.7967214000009,599.5141899,None,598.8131669999993,599.4977685000003,600.0148180000006,None,right,1,0.30369900000005146,600.0148180000006,None,None,598.8131669999993,599.9984102999997,0.511662000000797,0.5949367000011989,1.7133227000012994,1.7965346000000864,,,,,,faizah_2,001,2020_Jan_10_1411,posner,3.1.5,60.07326535446807,
0.5,180,1,right,2,4,2,0,2,0,5,1,41,6,,,,,,,,,600.3491251999994,600.8495598,601.5669554999995,None,600.8662028000008,601.5504470999995,602.0677999999998,None,right,1,0.33074719999967783,602.0677999999998,None,None,600.8662028000008,602.0509871000004,0.5118029000004753,0.5951486000012665,1.7132171000012022,1.7966726000013296,,,,,,faizah_2,001,2020_Jan_10_1411,posner,3.1.5,60.07326535446807,
-0.5,0,1,left,1,3,2,0,2,0,5,2,42,0,,,,,,,,,602.4190831000005,602.9188313999994,603.6366100999994,None,602.9356565000007,603.6200328000004,604.137193900001,None,left,1,0.2852067999992869,604.137193900001,None,None,602.9356565000007,604.1206236000007,0.5115000999994663,0.5949113999995461,1.7132684999996854,1.796710799999346,,,,,,faizah_2,001,2020_Jan_10_1411,posner,3.1.5,60.07326535446807,
-0.5,180,0,left,2,3,2,0,2,0,5,3,43,4,,,,,,,,,604.4385558000004,604.9384208000001,605.6561673000006,None,604.9550975000011,605.6393197999996,606.1566635999998,None,left,1,0.34567390000120213,606.1566635999998,None,None,604.9550975000011,606.1399659999997,0.5116406000015559,0.5950454000012542,1.7131740000004356,1.7964549000007537,,,,,,faizah_2,001,2020_Jan_10_1411,posner,3.1.5,60.07326535446807,
-0.5,0,1,left,1,3,2,0,2,0,5,4,44,1,,,,,,,,,606.5242420999994,607.0244665,607.742205900001,None,607.0412986000001,607.7255636,608.2429646999999,None,left,1,0.3396460999992996,608.2429646999999,None,None,607.0412986000001,608.2262560999998,0.5118884000003163,0.5955658000002586,1.7136499000007461,1.7972162000005483,,,,,,faizah_2,001,2020_Jan_10_1411,posner,3.1.5,60.07326535446807,
0.5,0,0,right,1,4,2,0,2,0,5,5,45,3,,,,,,,,,608.6110214000009,609.1107978999999,609.8282869000004,None,609.1274724000004,609.8121428999993,610.3292935,None,right,1,0.3731339999994816,610.3292935,None,None,609.1274724000004,610.3123411000006,0.5114680999995471,0.5950401999998576,1.712998899998638,1.7968272999987676,,,,,,faizah_2,001,2020_Jan_10_1411,posner,3.1.5,60.07326535446807,
0.5,180,1,right,2,4,2,0,2,0,5,6,46,5,,,,,,,,,610.7305256000009,611.2302897,611.9481323999998,None,611.2471450000003,611.9312906999994,612.4488826000006,None,right,1,0.2853890999995201,612.4488826000006,None,None,611.2471450000003,612.4319010000008,0.5114634999990813,0.5950245999993058,1.713061899999957,1.7967642999992677,,,,,,faizah_2,001,2020_Jan_10_1411,posner,3.1.5,60.07326535446807,
-0.5,0,1,left,1,3,2,0,2,0,5,7,47,2,,,,,,,,,612.7664961,613.266480700001,613.9841237999999,None,613.2831643,613.9675087000005,614.4849648000009,None,left,1,0.2813730999987456,614.4849648000009,None,None,613.2831643,614.4682973999998,0.5117128000001685,0.5952219999999215,1.7135066999999253,1.796937799999796,,,,,,faizah_2,001,2020_Jan_10_1411,posner,3.1.5,60.07326535446807,
-0.5,0,1,left,1,3,2,0,2,0,6,0,48,1,,,,,,,,,614.786524600001,615.2860590999999,616.0035662,None,615.3027883000004,615.9869793000007,616.5041487000008,None,left,1,0.28626599999915925,616.5041487000008,None,None,615.3027883000004,616.4875880000009,0.5114040000007662,0.5946244999995542,1.7129196000005322,1.7962542999994184,,,,,,faizah_2,001,2020_Jan_10_1411,posner,3.1.5,60.07326535446807,
0.5,0,0,right,1,4,2,0,2,0,6,1,49,3,,,,,,,,,616.8222921999995,617.3221843000001,618.0398228000004,None,617.3388353,618.0230153000002,618.5404857000003,None,right,1,0.40177919999950973,618.5404857000003,None,None,617.3388353,618.5238354000003,0.5116383000004134,0.5950616999998601,1.7132709999987128,1.796576599999753,,,,,,faizah_2,001,2020_Jan_10_1411,posner,3.1.5,60.07326535446807,
0.5,180,1,right,2,4,2,0,2,0,6,2,50,5,,,,,,,,,618.9590543999993,619.4584433999999,620.1759350000002,None,619.4750687999995,620.1593182000006,620.6768402000007,None,right,1,0.2736827999997331,620.6768402000007,None,None,619.4750687999995,620.6601099999998,0.5112783000004129,0.5945387000010669,1.7129291000001103,1.7962876000001415,,,,,,faizah_2,001,2020_Jan_10_1411,posner,3.1.5,60.07326535446807,
-0.5,0,1,left,1,3,2,0,2,0,6,3,51,0,,,,,,,,,620.9780770999996,621.4778345000004,622.1955776000004,None,621.4946994000011,622.1787596999993,622.6961710000005,None,left,1,0.23032039999998233,622.6961710000005,None,None,621.4946994000011,622.6795255000006,0.5115507000009529,0.5949464000004809,1.7132204999998066,1.7965359000008903,,,,,,faizah_2,001,2020_Jan_10_1411,posner,3.1.5,60.07326535446807,
-0.5,0,1,left,1,3,2,0,2,0,6,4,52,2,,,,,,,,,622.9474493000007,623.4472209999994,624.1649413999994,None,623.4637463999998,624.1484461999999,624.6655751000008,None,left,1,0.34087929999986954,624.6655751000008,None,None,623.4637463999998,624.6489188999994,0.5113885999999184,0.5946851000007882,1.7130653999993228,1.7965261999997892,,,,,,faizah_2,001,2020_Jan_10_1411,posner,3.1.5,60.07326535446807,
-0.5,180,0,left,2,3,2,0,2,0,6,5,53,4,,,,,,,,,625.0338247999998,625.5335385999997,626.2509698000003,None,625.5502848000006,626.2343468999998,626.7516050999993,None,left,1,0.4386424000003899,626.7516050999993,None,None,625.5502848000006,626.7351786999998,0.5117145000003802,0.5949361999992107,1.7133343999994395,1.7966789000001882,,,,,,faizah_2,001,2020_Jan_10_1411,posner,3.1.5,60.07326535446807,
0.5,180,1,right,2,4,2,0,2,0,6,6,54,7,,,,,,,,,627.2197617000011,627.7198333000006,628.4374871999999,None,627.7363668999997,628.4207090000009,628.9380279000006,None,right,1,0.30832200000077137,628.9380279000006,None,None,627.7363668999997,628.9213891999998,0.511745299998438,0.5951335999998264,1.7133067999984632,1.7968789999995352,,,,,,faizah_2,001,2020_Jan_10_1411,posner,3.1.5,60.07326535446807,
0.5,180,1,right,2,4,2,0,2,0,6,7,55,6,,,,,,,,,629.2726912000007,629.7724616000005,630.4904412999995,None,629.7893298000008,630.4733948000003,630.9910604000006,None,right,1,0.3511644000009255,630.9910604000006,None,None,629.7893298000008,630.9740795000007,0.5116237000002002,0.5952584999995452,1.7132610999997269,1.796698699999979,,,,,,faizah_2,001,2020_Jan_10_1411,posner,3.1.5,60.07326535446807,
-0.5,0,1,left,1,3,2,0,2,0,7,0,56,1,,,,,,,,,631.3591017999997,631.8587054000009,632.5764728999993,None,631.8755909000001,632.5596804000006,633.077121700001,None,left,1,0.3291834999999992,633.077121700001,None,None,631.8755909000001,633.0604924999998,0.5107487000004767,0.594836000000214,1.7125125999991724,1.7960538000006636,,,,,,faizah_2,001,2020_Jan_10_1411,posner,3.1.5,60.07326535446807,
-0.5,0,1,left,1,3,2,0,2,0,7,1,57,2,,,,,,,,,633.428615400001,633.9283901000008,634.6461291999995,None,633.9452898000009,634.6291811000001,635.1468823000005,None,left,1,0.32350440000118397,635.1468823000005,None,None,633.9452898000009,635.1301097999994,0.5109603000000789,0.5942238999996334,1.7126644999989367,1.7959160999998858,,,,,,faizah_2,001,2020_Jan_10_1411,posner,3.1.5,60.07326535446807,
-0.5,0,1,left,1,3,2,0,2,0,7,2,58,0,,,,,,,,,635.4976658999994,635.9974477999995,636.7153944000011,None,636.0137581999998,636.6988900000006,637.2160933999994,None,left,1,0.31017489999976533,637.2160933999994,None,None,636.0137581999998,637.1994122000006,0.5112571000008757,0.5948720000014873,1.7132222000000183,1.7964474000000337,,,,,,faizah_2,001,2020_Jan_10_1411,posner,3.1.5,60.07326535446807,
0.5,180,1,right,2,4,2,0,2,0,7,3,59,7,,,,,,,,,637.5506453000007,638.0506008000002,638.7683836999995,None,638.0673192999993,638.7514526999994,639.2690100999998,None,right,1,0.2653962999993382,639.2690100999998,None,None,638.0673192999993,639.2523248000007,0.5116800999985571,0.5951045000001614,1.713390699998854,1.7967638999998599,,,,,,faizah_2,001,2020_Jan_10_1411,posner,3.1.5,60.07326535446807,
0.5,0,0,right,1,4,2,0,2,0,7,4,60,3,,,,,,,,,639.5534154000006,640.0534146,640.7710725000006,None,640.0700511000005,640.7544031000007,641.2716556999994,None,right,1,0.39879519999885815,641.2716556999994,None,None,640.0700511000005,641.255073700001,0.5115856000011263,0.5950973000017257,1.713230500001373,1.796922800000175,,,,,,faizah_2,001,2020_Jan_10_1411,posner,3.1.5,60.07326535446807,
0.5,180,1,right,2,4,2,0,2,0,7,5,61,5,,,,,,,,,641.689798800001,642.1896304000011,642.9071814999998,None,642.2064918000005,642.8905409000008,643.4078701000008,None,right,1,0.3104650000004767,643.4078701000008,None,None,642.2064918000005,643.3913036000004,0.5116504000015993,0.5950097000004462,1.7133025000002817,1.7969169000007241,,,,,,faizah_2,001,2020_Jan_10_1411,posner,3.1.5,60.07326535446807,
0.5,180,1,right,2,4,2,0,2,0,7,6,62,6,,,,,,,,,643.7425450000001,644.2423764000005,644.9601056000001,None,644.2593265999994,644.9438746000005,645.4610870999995,None,right,1,0.3133579000004829,645.4610870999995,None,None,644.2593265999994,645.4446314000006,0.5116429000008793,0.5953461000008247,1.7141093999998702,1.7967662999999447,,,,,,faizah_2,001,2020_Jan_10_1411,posner,3.1.5,60.07326535446807,
-0.5,180,0,left,2,3,2,0,2,0,7,7,63,4,,,,,,,,,645.7955303999997,646.2953411000008,647.0128563999997,None,646.3118076000001,646.9964332999998,647.5135423000002,None,left,1,0.3968205000001035,647.5135423000002,None,None,646.3118076000001,647.4969928,0.5115558999987115,0.5950001000001066,1.7131823999989138,1.7965790999987803,,,,,,faizah_2,001,2020_Jan_10_1411,posner,3.1.5,60.07326535446807,
0.5,180,1,right,2,4,2,0,2,0,8,0,64,6,,,,,,,,,647.9316408999994,648.4315634000004,649.1495607000006,None,648.4484380000004,649.1325112000004,649.6498285000007,None,right,1,0.23651710000012827,649.6498285000007,None,None,648.4484380000004,649.6332639000002,0.5117826000005152,0.5952498999995441,1.7134647999992012,1.7968983999999182,,,,,,faizah_2,001,2020_Jan_10_1411,posner,3.1.5,60.07326535446807,
-0.5,180,0,left,2,3,2,0,2,0,8,1,65,4,,,,,,,,,649.9174618000006,650.4177229999996,651.1354655999994,None,650.4345567999999,651.1187168999995,651.6359141000003,652.120019500001,left,1,0.482384799999636,651.6359141000003,None,None,650.4345567999999,651.6194246999994,0.511748400000215,0.5951568000000407,1.7134278000012273,1.7965212000017345,,,,,,faizah_2,001,2020_Jan_10_1411,posner,3.1.5,60.07326535446807,
0.5,0,0,right,1,4,2,0,2,0,8,2,66,3,,,,,,,,,652.1374315000003,652.6373811000003,653.3550853000006,None,652.654010700001,653.3384747999999,653.8556335000003,None,right,1,0.3826240999987931,653.8556335000003,None,None,652.654010700001,653.8390688999998,0.5116350000007515,0.5951476000009279,1.7132983000010427,1.796576400000049,,,,,,faizah_2,001,2020_Jan_10_1411,posner,3.1.5,60.07326535446807,
-0.5,0,1,left,1,3,2,0,2,0,8,3,67,2,,,,,,,,,654.2570163000009,654.756671600001,655.474773500001,None,654.7737098000007,655.4579645000003,655.9753260000007,None,left,1,0.262999900000068,655.9753260000007,None,None,654.7737098000007,655.9586387999998,0.5115772999997716,0.5950534999992669,1.713524700000562,1.7968947999997908,,,,,,faizah_2,001,2020_Jan_10_1411,posner,3.1.5,60.07326535446807,
0.5,180,1,right,2,4,2,0,2,0,8,4,68,5,,,,,,,,,656.2606580000001,656.759751300001,657.4774609999995,None,656.7763244999996,657.4606551999996,657.9780070000006,None,right,1,0.2361547000000428,657.9780070000006,None,None,656.7763244999996,657.9615094999999,0.5112253999996028,0.5945861999989575,1.7129630999988876,1.7965803999995842,,,,,,faizah_2,001,2020_Jan_10_1411,posner,3.1.5,60.07326535446807,
0.5,180,1,right,2,4,2,0,2,0,8,5,69,7,,,,,,,,,658.2457469999999,658.7457623,659.4633678,None,658.7622660999996,659.4469591999996,659.9641204999998,None,right,1,0.28214010000010603,659.9641204999998,None,None,658.7622660999996,659.9477080000006,0.5115870999998151,0.5951010999997379,1.7135067999988678,1.7965069000001677,,,,,,faizah_2,001,2020_Jan_10_1411,posner,3.1.5,60.07326535446807,
-0.5,0,1,left,1,3,2,0,2,0,8,6,70,1,,,,,,,,,660.2648410000011,660.7651895000008,661.4828910999995,None,660.7818570999998,661.4662235000005,661.9834533000003,None,left,1,0.3827947000008862,661.9834533000003,None,None,660.7818570999998,661.9667541000008,0.5115996000004088,0.5952503999997134,1.7131382999996276,1.7967276999988826,,,,,,faizah_2,001,2020_Jan_10_1411,posner,3.1.5,60.07326535446807,
-0.5,0,1,left,1,3,2,0,2,0,8,7,71,0,,,,,,,,,662.3853279999994,662.8849705000002,663.6023737000005,None,662.9013569999997,663.5859783999995,664.1030060000003,None,left,1,0.34330120000049646,664.1030060000003,None,None,662.9013569999997,664.0865459999995,0.5115679999998974,0.5948771000003035,1.7131239999998797,1.7965739000010217,,,,,,faizah_2,001,2020_Jan_10_1411,posner,3.1.5,60.07326535446807,
