targetX,cueOri,congr,corrAns,pin_cue,pin_target,block.thisRepN,block.thisTrialN,block.thisN,block.thisIndex,posner_task.thisRepN,posner_task.thisTrialN,posner_task.thisN,posner_task.thisIndex,port_start_block.started,port_start_block.stopped,text_2.started,text_2.stopped,p_port.started,p_port.stopped,text.started,text.stopped,fixation_1.started,fixation_1.stopped,fixation_2.started,fixation_2.stopped,cue.started,cue.stopped,target.started,target.stopped,correct_key_resp.keys,correct_key_resp.corr,correct_key_resp.rt,correct_key_resp.started,correct_key_resp.stopped,early_resp.keys,early_resp.started,early_resp.stopped,trigger_cue.started,trigger_cue.stopped,trigger_target.started,trigger_target.stopped,break_text.started,break_text.stopped,end_port.started,end_port.stopped,participant,session,date,expName,psychopyVersion,frameRate,
0.5,0,0,right,1,4,0,0,0,0,0,0,0,3,1.6599999980826396e-05,0.09709879999991244,22.92755120000038,None,1.4000000192027073e-05,0.09947920000013255,24.81319600000006,None,25.143502200000512,25.64791669999977,26.3658202000006,None,25.664332299999842,26.348740600000383,26.866085300000123,None,right,1,0.3337214999992284,26.866085300000123,None,None,25.664332299999842,26.849491599999965,0.513633800000207,0.5968065000006391,1.715191300000697,1.7983861000002435,,,,,nikita_3,001,2020_Feb_13_1331,posner,3.1.5,59.925883666929955,
0.5,180,1,right,2,4,0,0,0,0,0,1,1,5,,,,,,,,,27.216914800000268,27.717358599999898,28.43482970000059,None,27.73384940000051,28.418223700000453,28.93579890000001,None,right,1,0.2720622999995612,28.93579890000001,None,None,27.73384940000051,28.91888139999992,0.5114113999998153,0.5950013000001491,1.7129229000001942,1.796252999999524,,,,,nikita_3,001,2020_Feb_13_1331,posner,3.1.5,59.925883666929955,
0.5,180,1,right,2,4,0,0,0,0,0,2,2,7,,,,,,,,,29.23702680000042,29.73686120000002,30.45416209999985,None,29.753377699999874,30.437809400000333,30.955231699999786,None,right,1,0.29250320000028296,30.955231699999786,None,None,29.753377699999874,30.938283200000114,0.5115374999995765,0.5947458000000552,1.712945199999922,1.7964752999996563,,,,,nikita_3,001,2020_Feb_13_1331,posner,3.1.5,59.925883666929955,
-0.5,0,1,left,1,3,0,0,0,0,0,3,3,0,,,,,,,,,31.27288790000057,31.772775500000535,32.490493199999946,None,31.78972109999995,32.47374420000051,32.99119320000045,None,left,1,0.25674999999955617,32.99119320000045,None,None,31.78972109999995,32.974485700000514,0.5116054999998596,0.5950681999993321,1.713295300000027,1.7967854999997144,,,,,nikita_3,001,2020_Feb_13_1331,posner,3.1.5,59.925883666929955,
-0.5,180,0,left,2,3,0,0,0,0,0,4,4,4,,,,,,,,,33.27588910000031,33.77560110000013,34.4930832,None,33.792062100000294,34.476530200000525,34.993788400000085,None,left,1,0.2699551999994583,34.993788400000085,None,None,33.792062100000294,34.97739780000029,0.5120520999998917,0.5955677000001742,1.7138337000005777,1.797068699999727,,,,,nikita_3,001,2020_Feb_13_1331,posner,3.1.5,59.925883666929955,
0.5,180,1,right,2,4,0,0,0,0,0,5,5,6,,,,,,,,,35.29476440000053,35.79507360000025,36.51266300000043,None,35.811678300000494,36.49601970000003,37.01328209999974,None,right,1,0.2745012000004863,37.01328209999974,None,None,35.811678300000494,36.99669200000062,0.511782100000346,0.5953705000001719,1.713375399999677,1.796889999999621,,,,,nikita_3,001,2020_Feb_13_1331,posner,3.1.5,59.925883666929955,
-0.5,0,1,left,1,3,0,0,0,0,0,6,6,2,,,,,,,,,37.31442169999991,37.81450170000062,38.53183590000026,None,37.83122249999997,38.515428700000484,39.03261999999995,None,left,1,0.31095619999996416,39.03261999999995,None,None,37.83122249999997,39.01632250000057,0.5116874999994252,0.5952110999996876,1.713486699999521,1.7968634999997448,,,,,nikita_3,001,2020_Feb_13_1331,posner,3.1.5,59.925883666929955,
-0.5,0,1,left,1,3,0,0,0,0,0,7,7,1,,,,,,,,,39.367163200000505,39.86723200000051,40.58484320000025,None,39.884022500000356,40.56829010000001,41.08569030000035,None,left,1,0.28213830000004236,41.08569030000035,None,None,39.884022500000356,41.06897300000037,0.5118440999995073,0.5951633999993646,1.713571399999637,1.796955999999227,,,,,nikita_3,001,2020_Feb_13_1331,posner,3.1.5,59.925883666929955,
-0.5,0,1,left,1,3,0,0,0,0,1,0,8,2,,,,,,,,,41.38705639999989,41.88691430000017,42.60427080000045,None,41.9033387999998,42.587749299999814,43.104983500000344,None,left,1,0.295129299999644,43.104983500000344,None,None,41.9033387999998,43.08836799999972,0.511694400000124,0.5948799999996481,1.7131317999992461,1.7965015999998286,,,,,nikita_3,001,2020_Feb_13_1331,posner,3.1.5,59.925883666929955,
0.5,180,1,right,2,4,0,0,0,0,1,1,9,6,,,,,,,,,43.42257800000061,43.922892700000375,44.640571900000396,None,43.93961769999987,44.6236641000005,45.141250200000286,None,right,1,0.36235109999961423,45.141250200000286,None,None,43.93961769999987,45.12442900000042,0.5118443999999727,0.5952790999999706,1.713360499999908,1.7969264000003022,,,,,nikita_3,001,2020_Feb_13_1331,posner,3.1.5,59.925883666929955,
0.5,180,1,right,2,4,0,0,0,0,1,2,10,5,,,,,,,,,45.52582100000018,46.02570139999989,46.74329570000009,None,46.04217690000041,46.72656910000023,47.24398590000055,None,right,1,0.2997681000006196,47.24398590000055,None,None,46.04217690000041,47.2275023000002,0.5117909000000509,0.5954800999998042,1.7135693000000174,1.7968174999996336,,,,,nikita_3,001,2020_Feb_13_1331,posner,3.1.5,59.925883666929955,
-0.5,180,0,left,2,3,0,0,0,0,1,3,11,4,,,,,,,,,47.56221960000039,48.06173949999993,48.77950800000053,None,48.078533300000345,48.76284209999994,49.28034579999985,None,left,1,0.31135749999975815,49.28034579999985,None,None,48.078533300000345,49.26346560000002,0.5113172999999733,0.5947663999995711,1.7130293000000165,1.796625199999653,,,,,nikita_3,001,2020_Feb_13_1331,posner,3.1.5,59.925883666929955,
-0.5,0,1,left,1,3,0,0,0,0,1,4,12,0,,,,,,,,,49.6152075,50.11465980000048,50.83222459999979,None,50.13180150000062,50.81566170000042,51.332943200000045,None,left,1,0.2746610000003784,51.332943200000045,None,None,50.13180150000062,51.31644030000007,0.5113707999998951,0.5948925999991843,1.7131288999999015,1.7965073999994274,,,,,nikita_3,001,2020_Feb_13_1331,posner,3.1.5,59.925883666929955,
0.5,0,0,right,1,4,0,0,0,0,1,5,13,3,,,,,,,,,51.63455400000021,52.13417910000044,52.851637499999924,None,52.1509315000003,52.83493920000001,53.352503799999795,None,right,1,0.3751249999995707,53.352503799999795,None,None,52.1509315000003,53.33603700000003,0.5117015999994692,0.5951920999996219,1.7135351999995692,1.796628199999759,,,,,nikita_3,001,2020_Feb_13_1331,posner,3.1.5,59.925883666929955,
0.5,180,1,right,2,4,0,0,0,0,1,6,14,7,,,,,,,,,53.75381990000005,54.2535512000004,54.97139090000019,None,54.270536699999866,54.95451300000059,55.47187920000033,None,right,1,0.3597857999993721,55.47187920000033,None,None,54.270536699999866,55.455621500000234,0.5113844000006793,0.5949644000002081,1.7134343000006993,1.7967625000001135,,,,,nikita_3,001,2020_Feb_13_1331,posner,3.1.5,59.925883666929955,
-0.5,0,1,left,1,3,0,0,0,0,1,7,15,1,,,,,,,,,55.85616140000002,56.35665659999995,57.07428130000062,None,56.37317820000044,57.05754410000009,57.57500720000007,None,left,1,0.3365731000003507,57.57500720000007,None,None,56.37317820000044,57.55834740000046,0.5124136000004,0.595863499999723,1.714088300000185,1.797381200000018,,,,,nikita_3,001,2020_Feb_13_1331,posner,3.1.5,59.925883666929955,
-0.5,180,0,left,2,3,0,0,0,0,2,0,16,4,,,,,,,,,57.94278350000059,58.44273350000003,59.160651600000165,None,58.459679999999935,59.14360720000059,59.66106000000036,None,left,1,0.346664900000178,59.66106000000036,None,None,58.459679999999935,59.64442550000058,0.5114742000005208,0.5949642000005042,1.7131461999997555,1.7965198000001692,,,,,nikita_3,001,2020_Feb_13_1331,posner,3.1.5,59.925883666929955,
-0.5,0,1,left,1,3,0,0,0,0,2,1,17,2,,,,,,,,,60.0291072,60.528907300000355,61.24673020000046,None,60.54584010000053,61.23009490000004,61.747367800000575,None,left,1,0.3322548000005554,61.747367800000575,None,None,60.54584010000053,61.730782000000545,0.5115107000001444,0.5950184000002992,1.713363500000014,1.7966667999999117,,,,,nikita_3,001,2020_Feb_13_1331,posner,3.1.5,59.925883666929955,
0.5,180,1,right,2,4,0,0,0,0,2,2,18,7,,,,,,,,,62.098701699999765,62.598672900000565,63.31613280000056,None,62.61524759999975,63.299529099999745,63.817041600000266,None,right,1,0.30257410000012896,63.817041600000266,None,None,62.61524759999975,63.80042390000017,0.5116689000005863,0.594829500000742,1.7134032000003572,1.796592600000622,,,,,nikita_3,001,2020_Feb_13_1331,posner,3.1.5,59.925883666929955,
-0.5,0,1,left,1,3,0,0,0,0,2,3,19,1,,,,,,,,,64.1515317000003,64.65127099999972,65.36902030000056,None,64.66804349999984,65.3522724000004,65.8696602,None,left,1,0.3220616999997219,65.8696602,None,None,64.66804349999984,65.85283309999977,0.5112440000002607,0.5947519999999713,1.7127831999996488,1.796496500000103,,,,,nikita_3,001,2020_Feb_13_1331,posner,3.1.5,59.925883666929955,
0.5,180,1,right,2,4,0,0,0,0,2,4,20,6,,,,,,,,,66.22087310000006,66.72100510000018,67.43845510000028,None,66.73752000000059,67.42190159999973,67.93934940000054,None,right,1,0.3242082000006121,67.93934940000054,None,None,66.73752000000059,67.9225221000006,0.51171179999983,0.594840199999453,1.7132174999997005,1.7966298999999708,,,,,nikita_3,001,2020_Feb_13_1331,posner,3.1.5,59.925883666929955,
0.5,0,0,right,1,4,0,0,0,0,2,5,21,3,,,,,,,,,68.29024320000008,68.79043270000057,69.50796260000061,None,68.80712610000046,69.4914662000001,70.00880320000033,None,right,1,0.3427542999997968,70.00880320000033,None,None,68.80712610000046,69.99191390000033,0.5118611999996574,0.5951687999995556,1.7133286999996926,1.7968833999993876,,,,,nikita_3,001,2020_Feb_13_1331,posner,3.1.5,59.925883666929955,
-0.5,0,1,left,1,3,0,0,0,0,2,6,22,0,,,,,,,,,70.37666600000011,70.87665370000013,71.59432500000003,None,70.89335560000018,71.57757730000048,72.09477489999972,None,left,1,0.3128015000002051,72.09477489999972,None,None,70.89335560000018,72.0781766,0.5115935000003446,0.5950437999999849,1.7130995000006806,1.796649900000375,,,,,nikita_3,001,2020_Feb_13_1331,posner,3.1.5,59.925883666929955,
0.5,180,1,right,2,4,0,0,0,0,2,7,23,5,,,,,,,,,72.42949000000044,72.92953600000055,73.64686140000049,None,72.9460880000006,73.63079540000035,74.14785050000046,None,right,1,0.31571940000048926,74.14785050000046,None,None,72.9460880000006,74.13111990000016,0.5116631999999299,0.594833699999981,1.7132337000002735,1.7966549000002487,,,,,nikita_3,001,2020_Feb_13_1331,posner,3.1.5,59.925883666929955,
0.5,180,1,right,2,4,0,0,0,0,3,0,24,5,,,,,,,,,74.48204050000004,74.98208560000057,75.70003160000033,None,74.99880529999973,75.68306399999983,76.20066560000032,None,right,1,0.33491219999996247,76.20066560000032,None,None,74.99880529999973,76.18375879999985,0.511774399999922,0.5954022000005352,1.7134246000005078,1.7971008000004076,,,,,nikita_3,001,2020_Feb_13_1331,posner,3.1.5,59.925883666929955,
-0.5,0,1,left,1,3,0,0,0,0,3,1,25,1,,,,,,,,,76.5517647000006,77.05171320000045,77.7693104,None,77.06847850000031,77.75272180000047,78.27015350000056,None,left,1,0.321349800000462,78.27015350000056,None,None,77.06847850000031,78.2534295000005,0.5115796000000046,0.595104099999844,1.7132854999999836,1.7971102000001338,,,,,nikita_3,001,2020_Feb_13_1331,posner,3.1.5,59.925883666929955,
-0.5,180,0,left,2,3,0,0,0,0,3,2,26,4,,,,,,,,,78.62109359999977,79.12118590000046,79.83884690000014,None,79.13798839999981,79.82207639999979,80.33972069999982,None,left,1,0.34782840000025317,80.33972069999982,None,None,79.13798839999981,80.32285670000056,0.5115105000004405,0.594879199999923,1.7131627999997363,1.796584100000473,,,,,nikita_3,001,2020_Feb_13_1331,posner,3.1.5,59.925883666929955,
0.5,180,1,right,2,4,0,0,0,0,3,3,27,6,,,,,,,,,80.70765790000041,81.20740209999985,81.9251347999998,None,81.22407360000034,81.90858560000015,82.42561459999979,None,right,1,0.31784049999987474,82.42561459999979,None,None,81.22407360000034,82.40929219999998,0.5113133999993806,0.5947876000000178,1.713179599999421,1.796351500000128,,,,,nikita_3,001,2020_Feb_13_1331,posner,3.1.5,59.925883666929955,
0.5,180,1,right,2,4,0,0,0,0,3,4,28,7,,,,,,,,,82.76013690000036,83.2603694999998,83.97791180000058,None,83.27716330000021,83.96125810000012,84.47872819999975,None,right,1,0.2568344999999681,84.47872819999975,None,None,83.27716330000021,84.4618958000001,0.5119778999996925,0.5952470000001995,1.7134746000001542,1.7969489999995858,,,,,nikita_3,001,2020_Feb_13_1331,posner,3.1.5,59.925883666929955,
0.5,0,0,right,1,4,0,0,0,0,3,5,29,3,,,,,,,,,84.76302889999988,85.26293859999987,85.98075530000006,None,85.2800326000006,85.9640288999999,86.48126769999999,None,right,1,0.3343123000004198,86.48126769999999,None,None,85.2800326000006,86.46455250000054,0.5115492000004451,0.5950479000002815,1.7131484999999884,1.796643500000755,,,,,nikita_3,001,2020_Feb_13_1331,posner,3.1.5,59.925883666929955,
-0.5,0,1,left,1,3,0,0,0,0,3,6,30,2,,,,,,,,,86.83264469999995,87.33235169999989,88.05024980000053,None,87.34927100000004,88.03356150000036,88.55089820000012,None,left,1,0.32887810000011086,88.55089820000012,None,None,87.34927100000004,88.53407460000017,0.5114795999998023,0.5950962000006257,1.7131835000000137,1.7967311000002155,,,,,nikita_3,001,2020_Feb_13_1331,posner,3.1.5,59.925883666929955,
-0.5,0,1,left,1,3,0,0,0,0,3,7,31,0,,,,,,,,,88.90212539999993,89.40184529999988,90.1198460000005,None,89.41873750000013,90.1029253000006,90.62045610000041,None,left,1,0.3150477999997747,90.62045610000041,None,None,89.41873750000013,90.60362880000048,0.5113793999998961,0.594987299999957,1.7131491000000096,1.7966894000001048,,,,,nikita_3,001,2020_Feb_13_1331,posner,3.1.5,59.925883666929955,
-0.5,180,0,left,2,3,0,0,0,0,4,0,32,4,,,,,,,,,90.9550919000003,91.45517160000054,92.17267489999995,None,91.47155660000044,92.15577600000051,92.67307979999987,None,left,1,0.3263625999998112,92.67307979999987,None,None,91.47155660000044,92.6565258999999,0.5117583999999624,0.5948847999998179,1.7130968000001303,1.7966661000000386,,,,,nikita_3,001,2020_Feb_13_1331,posner,3.1.5,59.925883666929955,
0.5,180,1,right,2,4,0,0,0,0,4,1,33,5,,,,,,,,,93.02442380000048,93.52423240000007,94.24192440000024,None,93.54118930000004,94.22547519999989,94.74271539999972,None,right,1,0.3206436999998914,94.74271539999972,None,None,93.54118930000004,94.72622120000051,0.5115055000005668,0.595546500000637,1.7134586000001946,1.7967757000005804,,,,,nikita_3,001,2020_Feb_13_1331,posner,3.1.5,59.925883666929955,
0.5,180,1,right,2,4,0,0,0,0,4,2,34,6,,,,,,,,,95.09374040000057,95.59392949999983,96.31156180000016,None,95.61074290000033,96.2948008000003,96.81232890000047,None,right,1,0.31508670000039274,96.81232890000047,None,None,95.61074290000033,96.79550530000051,0.5116155000005165,0.5950533000004725,1.7131688999998005,1.7967827000002217,,,,,nikita_3,001,2020_Feb_13_1331,posner,3.1.5,59.925883666929955,
0.5,0,0,right,1,4,0,0,0,0,4,3,35,3,,,,,,,,,97.14737030000015,97.64656520000062,98.36438129999988,None,97.66332950000015,98.34772770000018,98.86503630000061,None,right,1,0.32641170000079,98.86503630000061,None,None,97.66332950000015,98.84825420000016,0.5109910999999556,0.594608700000208,1.7126515999998446,1.7960128999993685,,,,,nikita_3,001,2020_Feb_13_1331,posner,3.1.5,59.925883666929955,
-0.5,0,1,left,1,3,0,0,0,0,4,4,36,1,,,,,,,,,99.21660830000019,99.71620940000048,100.43370640000012,None,99.73256889999993,100.4172423,100.93441729999995,None,left,1,0.3609117999994851,100.93441729999995,None,None,99.73256889999993,100.91779810000025,0.511484499999824,0.5946000000003551,1.7130669999996826,1.7964158000004318,,,,,nikita_3,001,2020_Feb_13_1331,posner,3.1.5,59.925883666929955,
-0.5,0,1,left,1,3,0,0,0,0,4,5,37,2,,,,,,,,,101.31920960000025,101.8192267000004,102.5368527999999,None,101.8358089000003,102.5201517000005,103.03743699999995,None,left,1,0.3139757000008103,103.03743699999995,None,None,101.8358089000003,103.02088860000003,0.5118615000001228,0.5950256999994963,1.7135092999997141,1.7967066000001068,,,,,nikita_3,001,2020_Feb_13_1331,posner,3.1.5,59.925883666929955,
0.5,180,1,right,2,4,0,0,0,0,4,6,38,7,,,,,,,,,103.37175920000027,103.87173789999997,104.5896444,None,103.8887362000005,104.5728595999999,105.09017050000057,None,right,1,0.3092544999999518,105.09017050000057,None,None,103.8887362000005,105.07354020000002,0.5115014000002702,0.5953394999996817,1.7132824999998775,1.7968902000002345,,,,,nikita_3,001,2020_Feb_13_1331,posner,3.1.5,59.925883666929955,
-0.5,0,1,left,1,3,0,0,0,0,4,7,39,0,,,,,,,,,105.42463380000027,105.92475530000047,106.64244810000037,None,105.94132069999978,106.62573460000021,107.14315570000053,None,left,1,0.31229350000012346,107.14315570000053,None,None,105.94132069999978,107.12633389999974,0.5121748999999909,0.5953572000007625,1.7134288000006563,1.7971569999999701,,,,,nikita_3,001,2020_Feb_13_1331,posner,3.1.5,59.925883666929955,
-0.5,180,0,left,2,3,0,0,0,0,5,0,40,4,,,,,,,,,107.47800650000045,107.9775639999998,108.69525460000023,None,107.99425950000023,108.67852930000026,109.19597140000042,None,left,1,0.29952830000001995,109.19597140000042,None,None,107.99425950000023,109.1794289999998,0.5113373000003776,0.5947288000006665,1.7131824000007327,1.7963737000000037,,,,,nikita_3,001,2020_Feb_13_1331,posner,3.1.5,59.925883666929955,
0.5,180,1,right,2,4,0,0,0,0,5,1,41,5,,,,,,,,,109.51385620000019,110.01366260000032,110.73122130000047,None,110.03039950000039,110.71477950000008,111.2318935000003,None,left,0,0.30339009999988775,111.2318935000003,None,None,110.03039950000039,111.21527650000007,0.5114273999997749,0.595040300000619,1.71302199999991,1.7967208000000028,,,,,nikita_3,001,2020_Feb_13_1331,posner,3.1.5,59.925883666929955,
0.5,180,1,right,2,4,0,0,0,0,5,2,42,6,,,,,,,,,111.56689230000029,112.06655610000053,112.78414500000054,None,112.08314630000041,112.76743630000055,113.2849341000001,None,right,1,0.33047780000015337,113.2849341000001,None,None,112.08314630000041,113.26820279999993,0.5112517999996271,0.5946166999992784,1.71288099999947,1.7963868999995611,,,,,nikita_3,001,2020_Feb_13_1331,posner,3.1.5,59.925883666929955,
-0.5,0,1,left,1,3,0,0,0,0,5,3,43,1,,,,,,,,,113.63635979999981,114.13597579999987,114.85364570000002,None,114.15265390000059,114.8370487000002,115.35432889999993,None,left,1,0.2609560999999303,115.35432889999993,None,None,114.15265390000059,115.33761670000058,0.5113203999999314,0.594885599999543,1.7129391999997097,1.7965154000003167,,,,,nikita_3,001,2020_Feb_13_1331,posner,3.1.5,59.925883666929955,
-0.5,0,1,left,1,3,0,0,0,0,5,4,44,2,,,,,,,,,115.63885149999987,116.13869849999992,116.85648970000057,None,116.15559180000037,116.83991280000009,117.35705880000023,None,left,1,0.30641259999993053,117.35705880000023,None,None,116.15559180000037,117.3404244000003,0.5118421999995917,0.5953675999999177,1.713550700000269,1.7969469999998182,,,,,nikita_3,001,2020_Feb_13_1331,posner,3.1.5,59.925883666929955,
0.5,180,1,right,2,4,0,0,0,0,5,5,45,7,,,,,,,,,117.69173800000044,118.19172470000012,118.90952720000041,None,118.20848790000036,118.89250850000008,119.41016390000004,None,right,1,0.2613766000004034,119.41016390000004,None,None,118.20848790000036,119.39333200000056,0.5117944999992687,0.5951533999996172,1.713386499999615,1.7969851999996536,,,,,nikita_3,001,2020_Feb_13_1331,posner,3.1.5,59.925883666929955,
0.5,0,0,right,1,4,0,0,0,0,5,6,46,3,,,,,,,,,119.69485859999986,120.19422290000057,120.91194840000026,None,120.2110388000001,120.89553140000044,121.41274500000054,None,left,0,0.3066482999993241,121.41274500000054,None,None,120.2110388000001,121.39615510000021,0.5111770000003162,0.5948093000006338,1.7130925999999818,1.796299700000418,,,,,nikita_3,001,2020_Feb_13_1331,posner,3.1.5,59.925883666929955,
-0.5,0,1,left,1,3,0,0,0,0,5,7,47,0,,,,,,,,,121.74706419999984,122.24702940000043,122.96484969999983,None,122.26375819999976,122.94825270000001,123.4653898000006,None,left,1,0.31788200000028155,123.4653898000006,None,None,122.26375819999976,123.44873550000011,0.5114120999996885,0.5951067999994848,1.713094399999136,1.796548399999665,,,,,nikita_3,001,2020_Feb_13_1331,posner,3.1.5,59.925883666929955,
-0.5,0,1,left,1,3,0,0,0,0,6,0,48,0,,,,,,,,,123.80018149999978,124.30003740000029,125.01778040000045,None,124.31671780000033,125.00098520000029,125.51836170000024,None,left,1,0.32093499999973574,125.51836170000024,None,None,124.31671780000033,125.50175970000055,0.51162850000037,0.5950030000003608,1.7133364000001166,1.796639099999993,,,,,nikita_3,001,2020_Feb_13_1331,posner,3.1.5,59.925883666929955,
0.5,180,1,right,2,4,0,0,0,0,6,1,49,6,,,,,,,,,125.86970120000024,126.36964350000017,127.08725959999992,None,126.38633579999987,127.07040710000001,127.58781590000035,None,right,1,0.2676030000002356,127.58781590000035,None,None,126.38633579999987,127.57116630000019,0.5116736999998466,0.5949226000002454,1.7131800999995903,1.7967769999995653,,,,,nikita_3,001,2020_Feb_13_1331,posner,3.1.5,59.925883666929955,
0.5,180,1,right,2,4,0,0,0,0,6,2,50,7,,,,,,,,,127.87223679999988,128.3722090000001,129.08996509999997,None,128.3888308000005,129.07320900000013,129.59062450000056,None,right,1,0.2888683999999557,129.59062450000056,None,None,128.3888308000005,129.57373199999984,0.5116408000003503,0.5951097999995909,1.713144000000284,1.7968674000003375,,,,,nikita_3,001,2020_Feb_13_1331,posner,3.1.5,59.925883666929955,
0.5,0,0,right,1,4,0,0,0,0,6,3,51,3,,,,,,,,,129.90866220000044,130.40867320000052,131.12599899999987,None,130.4254735000004,131.10957240000062,131.62689990000035,None,right,1,0.3324592999997549,131.62689990000035,None,None,130.4254735000004,131.61002860000008,0.5118249000006472,0.5948250000001281,1.7131814000003942,1.796644699999888,,,,,nikita_3,001,2020_Feb_13_1331,posner,3.1.5,59.925883666929955,
-0.5,180,0,left,2,3,0,0,0,0,6,4,52,4,,,,,,,,,131.9779548000006,132.4779505000006,133.19560120000006,None,132.49476070000037,133.17893389999972,133.69629470000018,None,left,1,0.31898830000045564,133.69629470000018,None,None,132.49476070000037,133.67981280000004,0.5117661000003864,0.595263299999715,1.713605699999789,1.7969004999995377,,,,,nikita_3,001,2020_Feb_13_1331,posner,3.1.5,59.925883666929955,
0.5,180,1,right,2,4,0,0,0,0,6,5,53,5,,,,,,,,,134.03066990000025,134.53068710000025,135.24840790000053,None,134.54745490000005,135.23163900000054,135.7491841000001,None,right,1,0.25809360000039305,135.7491841000001,None,None,134.54745490000005,135.73235579999982,0.5116087999995216,0.5950277000001734,1.7132578999999168,1.7966232999997374,,,,,nikita_3,001,2020_Feb_13_1331,posner,3.1.5,59.925883666929955,
-0.5,0,1,left,1,3,0,0,0,0,6,6,54,1,,,,,,,,,136.03377020000062,136.53341980000005,137.2510499,None,136.55026420000013,137.2344817000003,137.75182459999996,None,left,1,0.30337280000003375,137.75182459999996,None,None,136.55026420000013,137.73531000000003,0.5115112000003137,0.5949963000002754,1.7133783000008407,1.7967132000003403,,,,,nikita_3,001,2020_Feb_13_1331,posner,3.1.5,59.925883666929955,
-0.5,0,1,left,1,3,0,0,0,0,6,7,55,2,,,,,,,,,138.08621920000041,138.58635510000022,139.30388250000033,None,138.60283609999988,139.28728210000008,139.80459950000022,None,left,1,0.338841599999796,139.80459950000022,None,None,138.60283609999988,139.78810770000018,0.5122678999996424,0.5958713999998508,1.7140023000001747,1.7972086999998282,,,,,nikita_3,001,2020_Feb_13_1331,posner,3.1.5,59.925883666929955,
-0.5,0,1,left,1,3,0,0,0,0,7,0,56,2,,,,,,,,,140.17274030000044,140.67229899999984,141.39033370000016,None,140.68928219999998,141.37335129999974,141.89109710000048,None,left,1,0.32415450000007695,141.89109710000048,None,None,140.68928219999998,141.8740482000003,0.5114409999996496,0.5952306999997745,1.713170099999843,1.7968942999996216,,,,,nikita_3,001,2020_Feb_13_1331,posner,3.1.5,59.925883666929955,
0.5,180,1,right,2,4,0,0,0,0,7,1,57,6,,,,,,,,,142.2419135,142.7418686000001,143.45985480000036,None,142.7589740000003,143.44302229999994,143.9603586000003,None,right,1,0.35095690000071045,143.9603586000003,None,None,142.7589740000003,143.94367560000046,0.5110515999995187,0.5947077999999237,1.7128445999996984,1.79624960000001,,,,,nikita_3,001,2020_Feb_13_1331,posner,3.1.5,59.925883666929955,
0.5,180,1,right,2,4,0,0,0,0,7,2,58,5,,,,,,,,,144.32841499999995,144.82841499999995,145.5459676999999,None,144.8449142999998,145.52933829999984,146.0466452999999,None,right,1,0.3525644999999713,146.0466452999999,None,None,144.8449142999998,146.02998730000036,0.5118929000000207,0.5950896000003922,1.7134497999995801,1.7968690999996397,,,,,nikita_3,001,2020_Feb_13_1331,posner,3.1.5,59.925883666929955,
-0.5,0,1,left,1,3,0,0,0,0,7,3,59,1,,,,,,,,,146.43101000000024,146.93114700000024,147.64875230000052,None,146.9477684000003,147.63238880000063,148.14954219999981,None,left,1,0.27386939999996684,148.14954219999981,None,None,146.9477684000003,148.13286179999977,0.5115324999997028,0.5950191000001723,1.7132339999998294,1.7966074000005392,,,,,nikita_3,001,2020_Feb_13_1331,posner,3.1.5,59.925883666929955,
0.5,180,1,right,2,4,0,0,0,0,7,4,60,7,,,,,,,,,148.4504433000002,148.9505595999999,149.6683235999999,None,148.9671296000006,149.65137700000014,150.1689637999998,None,right,1,0.2622884000002159,150.1689637999998,None,None,148.9671296000006,150.15206649999982,0.5117133000003378,0.595091200000752,1.7132117999999537,1.796794000000773,,,,,nikita_3,001,2020_Feb_13_1331,posner,3.1.5,59.925883666929955,
-0.5,0,1,left,1,3,0,0,0,0,7,5,61,0,,,,,,,,,150.45339969999986,150.95334449999973,151.67083600000024,None,150.97000370000023,151.65412890000061,152.17154029999983,None,left,1,0.23561680000057095,152.17154029999983,None,None,150.97000370000023,152.15497250000044,0.5113946000001306,0.5951107999999294,1.7130039000003308,1.7964420999996946,,,,,nikita_3,001,2020_Feb_13_1331,posner,3.1.5,59.925883666929955,
-0.5,180,0,left,2,3,0,0,0,0,7,6,62,4,,,,,,,,,152.4226275000001,152.92252569999982,153.6403319000001,None,152.93948210000053,153.6237858000004,154.14125150000018,None,left,1,0.32206719999976485,154.14125150000018,None,None,152.93948210000053,154.12431790000028,0.5114929000001212,0.5950505999999223,1.7132775999998557,1.7966265999993993,,,,,nikita_3,001,2020_Feb_13_1331,posner,3.1.5,59.925883666929955,
0.5,0,0,right,1,4,0,0,0,0,7,7,63,3,,,,,,,,,154.49197650000042,154.99222120000013,155.71002510000017,None,155.00916080000025,155.69320250000055,156.21053099999972,None,right,1,0.3885596000000078,156.21053099999972,None,None,155.00916080000025,156.1938865000002,0.5118101999996725,0.595191899999918,1.7134720000003654,1.7969412000002194,,,,,nikita_3,001,2020_Feb_13_1331,posner,3.1.5,59.925883666929955,
-0.5,0,1,left,1,3,0,0,0,0,8,0,64,1,,,,,,,,,156.62851880000017,157.1287358999998,157.84607980000055,None,157.1452986000004,157.8294702000003,158.34687889999987,None,left,1,0.3164176000000225,158.34687889999987,None,None,157.1452986000004,158.33020570000008,0.511474800000542,0.5944478999999774,1.712933300000259,1.7963380000001052,,,,,nikita_3,001,2020_Feb_13_1331,posner,3.1.5,59.925883666929955,
-0.5,180,0,left,2,3,0,0,0,0,8,1,65,4,,,,,,,,,158.6816091999999,159.1813600000005,159.8990633000003,None,159.1979136,159.8821512000004,160.3996676000006,None,left,1,0.3594548000000941,160.3996676000006,None,None,159.1979136,160.38276150000002,0.5114550999996936,0.5948245999998107,1.7128461000002062,1.7965095999998084,,,,,nikita_3,001,2020_Feb_13_1331,posner,3.1.5,59.925883666929955,
0.5,0,0,right,1,4,0,0,0,0,8,2,66,3,,,,,,,,,160.7841638,161.2841457000004,162.00186510000003,None,161.30097730000034,161.98526589999983,162.5025587,None,right,1,0.30452859999968496,162.5025587,None,None,161.30097730000034,162.48592400000052,0.5115886000003229,0.5950834000004761,1.7133491000004142,1.7967537000004086,,,,,nikita_3,001,2020_Feb_13_1331,posner,3.1.5,59.925883666929955,
-0.5,0,1,left,1,3,0,0,0,0,8,3,67,0,,,,,,,,,162.83695179999995,163.33691220000037,164.05464240000038,None,163.3537895999998,164.03795830000035,164.55549090000022,None,left,1,0.33168169999953534,164.55549090000022,None,None,163.3537895999998,164.53865640000004,0.5111970999996629,0.5949395999996341,1.7129248999999618,1.7962600000000748,,,,,nikita_3,001,2020_Feb_13_1331,posner,3.1.5,59.925883666929955,
0.5,180,1,right,2,4,0,0,0,0,8,4,68,5,,,,,,,,,164.9071414,165.4064954000005,166.1240716000002,None,165.4231362999999,166.1074233999998,166.6248784999998,None,right,1,0.3262113999999201,166.6248784999998,None,None,165.4231362999999,166.60818800000015,0.5112182000002576,0.5947645999995075,1.7128900999996404,1.796238799999628,,,,,nikita_3,001,2020_Feb_13_1331,posner,3.1.5,59.925883666929955,
-0.5,0,1,left,1,3,0,0,0,0,8,5,69,2,,,,,,,,,166.9765679000002,167.47600169999987,168.1936314000004,None,167.49262050000016,168.17716650000057,168.69434460000048,None,left,1,0.25693630000023404,168.69434460000048,None,None,167.49262050000016,168.67768570000044,0.5111802000001262,0.5946068000002924,1.712844600000608,1.7963321000006545,,,,,nikita_3,001,2020_Feb_13_1331,posner,3.1.5,59.925883666929955,
0.5,180,1,right,2,4,0,0,0,0,8,6,70,6,,,,,,,,,168.97872879999977,169.4788883000001,170.19641630000024,None,169.49555380000038,170.17986380000002,170.69714900000054,None,right,1,0.31792289999975765,170.69714900000054,None,None,169.49555380000038,170.6803319999999,0.5116606999999931,0.5951529000003575,1.7130907000000661,1.7967482000003656,,,,,nikita_3,001,2020_Feb_13_1331,posner,3.1.5,59.925883666929955,
0.5,180,1,right,2,4,0,0,0,0,8,7,71,7,,,,,,,,,171.03170150000005,171.5316730000004,172.24942999999985,None,171.54820329999984,172.23253000000022,172.75008049999997,None,right,1,0.313018099999681,172.75008049999997,None,None,171.54820329999984,172.7332894000001,0.5117095000005065,0.5950560000001133,1.713306100000409,1.7966968999999153,,,,,nikita_3,001,2020_Feb_13_1331,posner,3.1.5,59.925883666929955,
-0.5,0,1,left,1,3,0,0,0,0,9,0,72,2,,,,,,,,,173.08490679999977,173.5846319000002,174.30188120000003,None,173.60093659999984,174.2853839999998,174.80280159999984,None,left,1,0.3403237000002264,174.80280159999984,None,None,173.60093659999984,174.78606769999988,0.5117077999993853,0.5948860999997123,1.7131275000001551,1.7966539999997622,,,,,nikita_3,001,2020_Feb_13_1331,posner,3.1.5,59.925883666929955,
-0.5,180,0,left,2,3,0,0,0,0,9,1,73,4,,,,,,,,,175.1706635999999,175.67058520000046,176.38839499999995,None,175.6874888000002,176.37167910000062,176.88888289999977,None,left,1,0.33421699999962584,176.88888289999977,None,None,175.6874888000002,176.87220010000055,0.5115675000006377,0.5948696000004929,1.7131620000000112,1.7968706999999995,,,,,nikita_3,001,2020_Feb_13_1331,posner,3.1.5,59.925883666929955,
0.5,180,1,right,2,4,0,0,0,0,9,2,74,6,,,,,,,,,177.23987790000047,177.7403576000006,178.45769139999993,None,177.75680600000032,178.4411608999999,178.95874210000056,None,right,1,0.3122581000006903,178.95874210000056,None,None,177.75680600000032,178.94176140000036,0.5119314999992639,0.5951005999995687,1.713323599999967,1.7968980999994528,,,,,nikita_3,001,2020_Feb_13_1331,posner,3.1.5,59.925883666929955,
-0.5,0,1,left,1,3,0,0,0,0,9,3,75,0,,,,,,,,,179.29301730000043,179.7929066000006,180.5107162000004,None,179.80972160000056,180.49386030000005,181.01115600000048,None,left,1,0.3079272000004494,181.01115600000048,None,None,179.80972160000056,180.9946071000004,0.5115133999997852,0.5950050999999803,1.7132201000003988,1.7968507000005047,,,,,nikita_3,001,2020_Feb_13_1331,posner,3.1.5,59.925883666929955,
0.5,180,1,right,2,4,0,0,0,0,9,4,76,5,,,,,,,,,181.34624650000023,181.84609450000062,182.5634796000004,None,181.8624675000001,182.54688260000057,183.0641101000001,None,right,1,0.310787800000071,183.0641101000001,None,None,181.8624675000001,183.04755939999995,0.5118056000001161,0.5949575000004188,1.7132579999997688,1.7967835999997988,,,,,nikita_3,001,2020_Feb_13_1331,posner,3.1.5,59.925883666929955,
-0.5,0,1,left,1,3,0,0,0,0,9,5,77,1,,,,,,,,,183.3989345,183.8985333999999,184.6163035999998,None,183.9153428999998,184.59979509999994,185.11683220000032,None,left,1,0.2262060000002748,185.11683220000032,None,None,183.9153428999998,185.10026920000018,0.5112763999995877,0.5947145000000091,1.7129893000001175,1.796461900000395,,,,,nikita_3,001,2020_Feb_13_1331,posner,3.1.5,59.925883666929955,
0.5,180,1,right,2,4,0,0,0,0,9,6,78,7,,,,,,,,,185.3681142000005,185.8682303000005,186.58581610000056,None,185.88461110000026,186.56899950000025,187.08634450000045,None,right,1,0.2807540000003428,187.08634450000045,None,None,185.88461110000026,187.06976810000015,0.5117893000006006,0.5948124000005919,1.7133112000001347,1.7965597000002163,,,,,nikita_3,001,2020_Feb_13_1331,posner,3.1.5,59.925883666929955,
0.5,0,0,right,1,4,0,0,0,0,9,7,79,3,,,,,,,,,187.38760290000027,187.88739799999985,188.60518760000014,None,187.90414690000034,188.58839720000014,189.1057265999998,None,right,1,0.3412384999992355,189.1057265999998,None,None,187.90414690000034,189.08924350000052,0.5113678000006985,0.594705000000431,1.7131954000005862,1.7966559000005873,,,,,nikita_3,001,2020_Feb_13_1331,posner,3.1.5,59.925883666929955,
0.5,180,1,right,2,4,0,0,0,0,10,0,80,6,,,,,,,,,189.4737439999999,189.97395330000018,190.69123990000026,None,189.99049540000033,190.67468120000012,191.1919243000002,None,right,1,0.32706019999932323,191.1919243000002,None,None,189.99049540000033,191.17542680000042,0.5119350999993912,0.5949660999995103,1.7133675999994011,1.796680099999321,,,,,nikita_3,001,2020_Feb_13_1331,posner,3.1.5,59.925883666929955,
-0.5,0,1,left,1,3,0,0,0,0,10,1,81,0,,,,,,,,,191.54319459999988,192.04307870000048,192.76078289999987,None,192.0600013000003,192.74402509999982,193.26134770000044,None,left,1,0.2737699999997858,193.26134770000044,None,None,192.0600013000003,193.2449329000001,0.5115857000000688,0.5950760000005175,1.7134322000001703,1.7969553000002634,,,,,nikita_3,001,2020_Feb_13_1331,posner,3.1.5,59.925883666929955,
0.5,180,1,right,2,4,0,0,0,0,10,2,82,5,,,,,,,,,193.5626028000006,194.06280460000016,194.78028600000016,None,194.07936530000006,194.76354270000047,195.2809887000003,None,right,1,0.26206159999946976,195.2809887000003,None,None,194.07936530000006,195.2643452000002,0.5120417000007365,0.5953291000005265,1.7135723000001235,1.7968163000005006,,,,,nikita_3,001,2020_Feb_13_1331,posner,3.1.5,59.925883666929955,
0.5,0,0,right,1,4,0,0,0,0,10,3,83,3,,,,,,,,,195.56589690000055,196.06549760000053,196.78289610000047,None,196.08204699999987,196.7663078000005,197.2835242000001,None,right,1,0.30752140000004147,197.2835242000001,None,None,196.08204699999987,197.2670103999999,0.5114116000004287,0.5946362000004228,1.7129077000008692,1.7964990000000398,,,,,nikita_3,001,2020_Feb_13_1331,posner,3.1.5,59.925883666929955,
-0.5,180,0,left,2,3,0,0,0,0,10,4,84,4,,,,,,,,,197.61827259999973,198.11802309999985,198.8359147000001,None,198.1350720999999,198.8191321000004,199.33650780000062,None,left,1,0.3584019999998418,199.33650780000062,None,None,198.1350720999999,199.31988100000035,0.5114901999995709,0.5949577000001227,1.7133248999998614,1.7967672999993738,,,,,nikita_3,001,2020_Feb_13_1331,posner,3.1.5,59.925883666929955,
-0.5,0,1,left,1,3,0,0,0,0,10,5,85,2,,,,,,,,,199.7210955999999,200.22089080000023,200.93873880000046,None,200.23774649999996,200.92199040000014,201.4395285999999,None,left,1,0.3354141999998319,201.4395285999999,None,None,200.23774649999996,201.42250479999984,0.5113704999994297,0.5949111999998422,1.7129813000001377,1.796628199999759,,,,,nikita_3,001,2020_Feb_13_1331,posner,3.1.5,59.925883666929955,
0.5,180,1,right,2,4,0,0,0,0,10,6,86,7,,,,,,,,,201.7904368999998,202.29059120000056,203.0085565999998,None,202.30730820000008,202.99138089999997,203.50912750000043,None,right,1,0.31392700000014884,203.50912750000043,None,None,202.30730820000008,203.49226259999978,0.5116604999993797,0.5950545999994574,1.7133197999992262,1.7967259999995804,,,,,nikita_3,001,2020_Feb_13_1331,posner,3.1.5,59.925883666929955,
-0.5,0,1,left,1,3,0,0,0,0,10,7,87,1,,,,,,,,,203.84354390000044,204.34320860000025,205.06100080000033,None,204.36011250000047,205.04425319999973,205.56171059999997,None,left,1,0.2614482999997563,205.56171059999997,None,None,204.36011250000047,205.5450881000006,0.5112291000004916,0.5950105000001713,1.7130891000006159,1.7965836000003037,,,,,nikita_3,001,2020_Feb_13_1331,posner,3.1.5,59.925883666929955,
,,,,,,0,0,0,0,,,,,,,,,,,,,,,,,,,,,,,,,,,,,,,,,205.84699999999975,None,1.849999989644857e-05,0.9955500999994911,nikita_3,001,2020_Feb_13_1331,posner,3.1.5,59.925883666929955,
-0.5,0,1,left,1,3,1,0,1,0,0,0,0,0,1.1199999789823778e-05,0.09737029999996594,266.8627465999998,None,1.4899999769113492e-05,0.09780059999957302,268.9654424999999,None,269.2391548000005,269.7501415000006,270.4506879999999,None,269.7501415000006,270.4342299,270.9514899000005,None,left,1,0.2550751999997374,270.9514899000005,None,None,269.7501415000006,270.9350957000006,0.5035264999996798,0.6036691999997856,1.7054779000000053,1.788679599999341,,,,,nikita_3,001,2020_Feb_13_1331,posner,3.1.5,59.925883666929955,
0.5,180,1,right,2,4,1,0,1,0,0,1,1,6,,,,,,,,,271.2369623000004,271.73603319999984,272.45366980000017,None,271.75264440000046,272.4369806000004,272.9545981000001,None,right,1,0.34015719999933935,272.9545981000001,None,None,271.75264440000046,272.93775670000014,0.5104020999997374,0.5938395000002856,1.7121103999998013,1.795479499999601,,,,,nikita_3,001,2020_Feb_13_1331,posner,3.1.5,59.925883666929955,
0.5,0,0,right,1,4,1,0,1,0,0,2,2,3,,,,,,,,,273.32212979999986,273.82209969999985,274.53995290000057,None,273.8390596999998,274.5231113,275.0403511000004,None,right,1,0.3503442000001087,275.0403511000004,None,None,273.8390596999998,275.02371519999997,0.5115319000005911,0.5954314000000522,1.7131288999999015,1.7967370000005758,,,,,nikita_3,001,2020_Feb_13_1331,posner,3.1.5,59.925883666929955,
0.5,180,1,right,2,4,1,0,1,0,0,3,3,5,,,,,,,,,275.4086852999999,275.90862350000043,276.6261083999998,None,275.9251095999998,276.60962540000037,277.1267453999999,None,right,1,0.2319564999997965,277.1267453999999,None,None,275.9251095999998,277.1101497999998,0.5116127000001143,0.5947980000000825,1.7131228999996893,1.7963972999996258,,,,,nikita_3,001,2020_Feb_13_1331,posner,3.1.5,59.925883666929955,
-0.5,0,1,left,1,3,1,0,1,0,0,4,4,1,,,,,,,,,277.37783839999975,277.87786289999985,278.59560990000045,None,277.8946151,278.57871070000056,279.09624450000047,None,left,1,0.2464431999997032,279.09624450000047,None,None,277.8946151,279.0795179000006,0.5118388999999297,0.5951049999994211,1.7134723999997732,1.7968151999994006,,,,,nikita_3,001,2020_Feb_13_1331,posner,3.1.5,59.925883666929955,
-0.5,0,1,left,1,3,1,0,1,0,0,5,5,2,,,,,,,,,279.36429940000016,279.8637139000002,280.5813512000004,None,279.88055950000034,280.5648215000001,281.0821255000001,None,left,1,0.3325395000001663,281.0821255000001,None,None,279.88055950000034,281.06556590000037,0.5112794999995458,0.5949418000000151,1.7131096999992224,1.7965240999992602,,,,,nikita_3,001,2020_Feb_13_1331,posner,3.1.5,59.925883666929955,
0.5,180,1,right,2,4,1,0,1,0,0,6,6,7,,,,,,,,,281.43377000000055,281.93318629999976,282.65087289999974,None,281.9503175,282.6347072999997,283.1516440000005,None,right,1,0.2869347999994716,283.1516440000005,None,None,281.9503175,283.13515000000007,0.5112306999999419,0.5947329999999056,1.7131770999994842,1.7965948000000935,,,,,nikita_3,001,2020_Feb_13_1331,posner,3.1.5,59.925883666929955,
-0.5,180,0,left,2,3,1,0,1,0,0,7,7,4,,,,,,,,,283.4693570999998,283.9696395000001,284.68714120000004,None,283.98627579999993,284.6704305000003,285.18797689999974,None,left,1,0.31463739999981044,285.18797689999974,None,None,283.98627579999993,285.17103659999975,0.5118088000008356,0.5950348000005761,1.713187100000141,1.7967710000002626,,,,,nikita_3,001,2020_Feb_13_1331,posner,3.1.5,59.925883666929955,
-0.5,0,1,left,1,3,1,0,1,0,1,0,8,0,,,,,,,,,285.5228973000003,286.0222782000001,286.74013280000054,None,286.0389474000003,286.72319080000034,287.24053559999993,None,left,1,0.3259589000008418,287.24053559999993,None,None,286.0389474000003,287.22399850000056,0.5113749000001917,0.5947437000004356,1.7130710999999792,1.7966958000006343,,,,,nikita_3,001,2020_Feb_13_1331,posner,3.1.5,59.925883666929955,
0.5,180,1,right,2,4,1,0,1,0,1,1,9,5,,,,,,,,,287.5909651000002,288.09170900000026,288.8095809000006,None,288.1087002000004,288.7927098,289.31032460000006,None,right,1,0.22425420000035956,289.31032460000006,None,None,288.1087002000004,289.29335270000047,0.5117097000002104,0.595143200000166,1.7133383000000322,1.7968852000003608,,,,,nikita_3,001,2020_Feb_13_1331,posner,3.1.5,59.925883666929955,
0.5,180,1,right,2,4,1,0,1,0,1,2,10,7,,,,,,,,,289.56114940000043,290.06109410000045,290.7788222999998,None,290.07788189999974,290.7620000000006,291.2795577000006,None,right,1,0.2949257000000216,291.2795577000006,None,None,290.07788189999974,291.2628537999999,0.5116928999996162,0.5951217000001634,1.7134335000000647,1.7969080000002577,,,,,nikita_3,001,2020_Feb_13_1331,posner,3.1.5,59.925883666929955,
-0.5,0,1,left,1,3,1,0,1,0,1,3,11,1,,,,,,,,,291.5975312999999,292.0975066000001,292.8150605000001,None,292.1139561,292.7981060000002,293.3158275000005,None,left,1,0.29086800000004587,293.3158275000005,None,None,292.1139561,293.2990387,0.5116629999993165,0.594880299999204,1.7131838999994216,1.7963849999996455,,,,,nikita_3,001,2020_Feb_13_1331,posner,3.1.5,59.925883666929955,
-0.5,0,1,left,1,3,1,0,1,0,1,4,12,2,,,,,,,,,293.6339695000006,294.13380210000014,294.8509565000004,None,294.15012430000024,294.8345755999999,295.35188910000034,None,left,1,0.23870609999994485,295.35188910000034,None,None,294.15012430000024,295.3350424999999,0.5119887999999264,0.5951512000001458,1.7131758000004993,1.7968183000002682,,,,,nikita_3,001,2020_Feb_13_1331,posner,3.1.5,59.925883666929955,
-0.5,180,0,left,2,3,1,0,1,0,1,5,13,4,,,,,,,,,295.6197923999998,296.1195636000002,296.83730600000035,None,296.13630530000046,296.82041709999976,297.33796189999975,None,left,1,0.32454729999972187,297.33796189999975,None,None,296.13630530000046,297.32102699999996,0.5115160999994259,0.5949024999999892,1.7129716999997981,1.796628399999463,,,,,nikita_3,001,2020_Feb_13_1331,posner,3.1.5,59.925883666929955,
0.5,180,1,right,2,4,1,0,1,0,1,6,14,6,,,,,,,,,297.68910550000055,298.18919470000037,298.9068507000002,None,298.2058983000006,298.89004980000027,299.40737910000007,None,right,1,0.279083499999615,299.40737910000007,None,None,298.2058983000006,299.3906127999999,0.511691200000314,0.5950032000000647,1.7130998000002364,1.7967970999998215,,,,,nikita_3,001,2020_Feb_13_1331,posner,3.1.5,59.925883666929955,
0.5,0,0,right,1,4,1,0,1,0,1,7,15,3,,,,,,,,,299.70859329999985,300.2087792000002,300.92608370000016,None,300.22502840000016,300.9097499999998,301.4269218999998,None,right,1,0.3475879999996323,301.4269218999998,None,None,300.22502840000016,301.4102130000001,0.5118395999998029,0.594826299999113,1.7132582999993247,1.796437799999694,,,,,nikita_3,001,2020_Feb_13_1331,posner,3.1.5,59.925883666929955,
-0.5,0,1,left,1,3,1,0,1,0,2,0,16,2,,,,,,,,,301.79491120000057,302.2945666000005,303.0122314,None,302.3114261999999,302.9956508000005,303.5129673000001,None,left,1,0.261574400000427,303.5129673000001,None,None,302.3114261999999,303.4963224000003,0.5113463000006959,0.5948121000001265,1.7130847000007634,1.7967487000005349,,,,,nikita_3,001,2020_Feb_13_1331,posner,3.1.5,59.925883666929955,
0.5,180,1,right,2,4,1,0,1,0,2,1,17,5,,,,,,,,,303.79768070000046,304.29763920000005,305.0150153000004,None,304.3142760999999,304.9984460000005,305.51591629999984,None,right,1,0.21857019999970362,305.51591629999984,None,None,304.3142760999999,305.49922179999976,0.5114524999999048,0.5944839000003412,1.713022799999635,1.7962251999997534,,,,,nikita_3,001,2020_Feb_13_1331,posner,3.1.5,59.925883666929955,
0.5,180,1,right,2,4,1,0,1,0,2,2,18,7,,,,,,,,,305.75019990000055,306.25017840000055,306.96782580000036,None,306.2667104000002,306.9511732000001,307.4686790000005,None,right,1,0.27375949999986915,307.4686790000005,None,None,306.2667104000002,307.4517093000004,0.5117006000000401,0.5949305000003733,1.7132171000002927,1.7969731000002866,,,,,nikita_3,001,2020_Feb_13_1331,posner,3.1.5,59.925883666929955,
0.5,180,1,right,2,4,1,0,1,0,2,3,19,6,,,,,,,,,307.7698147000001,308.2696196000006,308.9872529000004,None,308.2863594999999,308.97047699999985,309.4878468000006,None,right,1,0.25455669999973907,309.4878468000006,None,None,308.2863594999999,309.47135849999995,0.5115783999999621,0.5949471999992966,1.7133115999995425,1.796833699999297,,,,,nikita_3,001,2020_Feb_13_1331,posner,3.1.5,59.925883666929955,
-0.5,0,1,left,1,3,1,0,1,0,2,4,20,1,,,,,,,,,309.7722739999999,310.27212130000044,310.9899408000001,None,310.28904370000055,310.97325379999984,311.4908122000006,None,left,1,0.3076184000001376,311.4908122000006,None,None,310.28904370000055,311.47396410000056,0.5112646999996286,0.5948189999999158,1.7131012999998347,1.7964983000001666,,,,,nikita_3,001,2020_Feb_13_1331,posner,3.1.5,59.925883666929955,
0.5,0,0,right,1,4,1,0,1,0,2,5,21,3,,,,,,,,,311.8245998000002,312.32543200000055,313.0426701000006,None,312.34166060000007,313.0259728000001,313.5434799000004,None,right,1,0.310905699999239,313.5434799000004,None,None,312.34166060000007,313.52684709999994,0.5124816999996256,0.595732599999792,1.7138780999994196,1.7973513999995703,,,,,nikita_3,001,2020_Feb_13_1331,posner,3.1.5,59.925883666929955,
-0.5,0,1,left,1,3,1,0,1,0,2,6,22,0,,,,,,,,,313.8781205000005,314.37785559999975,315.0957632999998,None,314.3948214000002,315.0789728,315.596278,None,left,1,0.27405409999937547,315.596278,None,None,314.3948214000002,315.57977930000015,0.5113947999998345,0.5948699000000488,1.7132956999994349,1.7965019999992364,,,,,nikita_3,001,2020_Feb_13_1331,posner,3.1.5,59.925883666929955,
-0.5,180,0,left,2,3,1,0,1,0,2,7,23,4,,,,,,,,,315.89746579999974,316.39736730000004,317.1152860000002,None,316.4141171000001,317.0984539000001,317.61568890000035,None,left,1,0.34266240000033577,317.61568890000035,None,None,316.4141171000001,317.5991485000004,0.5115843000003224,0.5948723000001337,1.7133443000002444,1.7967055999997683,,,,,nikita_3,001,2020_Feb_13_1331,posner,3.1.5,59.925883666929955,
-0.5,0,1,left,1,3,1,0,1,0,3,0,24,1,,,,,,,,,317.9836593,318.48353490000045,319.2012335999998,None,318.5003949000002,319.1845991,319.70189110000047,None,left,1,0.24045769999975164,319.70189110000047,None,None,318.5003949000002,319.6852331,0.5113941999998133,0.5950634999999238,1.713073599999916,1.7968810000002122,,,,,nikita_3,001,2020_Feb_13_1331,posner,3.1.5,59.925883666929955,
0.5,180,1,right,2,4,1,0,1,0,3,1,25,6,,,,,,,,,319.9694690000006,320.4696818000002,321.18744609999976,None,320.48638089999986,321.1706088000001,321.6880166000001,None,right,1,0.39838719999988825,321.6880166000001,None,None,320.48638089999986,321.6711842000004,0.5117572000008295,0.5952123000006395,1.7132395000007818,1.79679170000054,,,,,nikita_3,001,2020_Feb_13_1331,posner,3.1.5,59.925883666929955,
-0.5,0,1,left,1,3,1,0,1,0,3,2,26,2,,,,,,,,,322.1061856000006,322.6058215000003,323.32358100000056,None,322.6224893999997,323.30693260000044,323.8242962000004,None,left,1,0.30211769999914395,323.8242962000004,None,None,322.6224893999997,323.80771470000036,0.5112699999999677,0.5947845000000598,1.7131398000001354,1.7964317999994819,,,,,nikita_3,001,2020_Feb_13_1331,posner,3.1.5,59.925883666929955,
0.5,180,1,right,2,4,1,0,1,0,3,3,27,7,,,,,,,,,324.15859,324.6591563000002,325.37651970000024,None,324.67557810000017,325.3600333000004,325.8772116,None,right,1,0.31317399999988993,325.8772116,None,None,324.67557810000017,325.86031120000007,0.5120343999997203,0.5950745000000097,1.713176599999315,1.7967868999994607,,,,,nikita_3,001,2020_Feb_13_1331,posner,3.1.5,59.925883666929955,
-0.5,0,1,left,1,3,1,0,1,0,3,4,28,0,,,,,,,,,326.21082339999975,326.71153870000035,327.42926700000044,None,326.7282258000005,327.4125971000003,327.93009619999975,None,left,1,0.26026269999965734,327.93009619999975,None,None,326.7282258000005,327.9131604000004,0.5123556000007738,0.5959223000008933,1.7139608000006774,1.7974391000007017,,,,,nikita_3,001,2020_Feb_13_1331,posner,3.1.5,59.925883666929955,
0.5,0,0,right,1,4,1,0,1,0,3,5,29,3,,,,,,,,,328.2144374999998,328.7141829000002,329.43186400000013,None,328.73088499999994,329.41524759999993,329.93265789999987,None,right,1,0.33765630000016245,329.93265789999987,None,None,328.73088499999994,329.9160302,0.5114331000004313,0.5950487999998586,1.7132621999999174,1.7967847999998412,,,,,nikita_3,001,2020_Feb_13_1331,posner,3.1.5,59.925883666929955,
0.5,180,1,right,2,4,1,0,1,0,3,6,30,5,,,,,,,,,330.3002378000001,330.80052200000046,331.5181510000002,None,330.81730940000034,331.5015239000004,332.0191986,None,right,1,0.30719719999979134,332.0191986,None,None,330.81730940000034,332.0022325,0.5116791999998895,0.5954467000001387,1.7133764000000156,1.7968653999996604,,,,,nikita_3,001,2020_Feb_13_1331,posner,3.1.5,59.925883666929955,
-0.5,180,0,left,2,3,1,0,1,0,3,7,31,4,,,,,,,,,332.35363289999987,332.8533545999999,333.5708516000004,None,332.8699608000006,333.5544346000006,334.07169909999993,None,left,1,0.3345919999992475,334.07169909999993,None,None,332.8699608000006,334.0549120000005,0.5116136999995433,0.5948993000001792,1.7131566999996721,1.7967069999995147,,,,,nikita_3,001,2020_Feb_13_1331,posner,3.1.5,59.925883666929955,
-0.5,0,1,left,1,3,1,0,1,0,4,0,32,0,,,,,,,,,334.4229370000003,334.9227418999999,335.64045989999977,None,334.93955240000014,335.6238658000002,336.14113309999993,None,left,1,0.3131757999999536,336.14113309999993,None,None,334.93955240000014,336.1245292000003,0.511598199999753,0.5952214999997523,1.7133605999997599,1.796803799999907,,,,,nikita_3,001,2020_Feb_13_1331,posner,3.1.5,59.925883666929955,
0.5,0,0,right,1,4,1,0,1,0,4,1,33,3,,,,,,,,,336.4759683000002,336.97570110000015,337.69337799999994,None,336.9924259999998,337.6766564999998,338.1942151000003,None,right,1,0.2841467999996894,338.1942151000003,None,None,336.9924259999998,338.1775858000001,0.5113324999992983,0.594902999999249,1.7131962999992538,1.796261799999229,,,,,nikita_3,001,2020_Feb_13_1331,posner,3.1.5,59.925883666929955,
0.5,180,1,right,2,4,1,0,1,0,4,2,34,7,,,,,,,,,338.49524290000045,338.9952634000001,339.7128124000001,None,339.0117601000002,339.6962330000006,340.21354340000016,None,right,1,0.40079980000064097,340.21354340000016,None,None,339.0117601000002,340.1969084000002,0.5116689999995288,0.5949209000000337,1.7133001000001968,1.796843799999806,,,,,nikita_3,001,2020_Feb_13_1331,posner,3.1.5,59.925883666929955,
0.5,180,1,right,2,4,1,0,1,0,4,3,35,6,,,,,,,,,340.63145499999973,341.13118159999976,341.84916070000054,None,341.1475508000003,341.8323022000004,342.3499499999998,None,right,1,0.3043201999998928,342.3499499999998,None,None,341.1475508000003,342.3329812000002,0.5113875000006374,0.5947925000000396,1.713175500000034,1.796683500000654,,,,,nikita_3,001,2020_Feb_13_1331,posner,3.1.5,59.925883666929955,
-0.5,180,0,left,2,3,1,0,1,0,4,4,36,4,,,,,,,,,342.6840866000002,343.1842383000003,343.9019452000002,None,343.20084360000055,343.88527669999985,344.4026214000005,None,left,1,0.24371520000022429,344.4026214000005,None,None,343.20084360000055,344.38592880000033,0.5115347999999358,0.5949976000001698,1.7132029999993392,1.7969002999998338,,,,,nikita_3,001,2020_Feb_13_1331,posner,3.1.5,59.925883666929955,
-0.5,0,1,left,1,3,1,0,1,0,4,5,37,2,,,,,,,,,344.67030520000026,345.17013599999973,345.8878319000005,None,345.1867646999999,345.8711559000003,346.38875220000045,None,left,1,0.31363260000034643,346.38875220000045,None,None,345.1867646999999,346.37186980000024,0.5115398999996614,0.5950090999995155,1.7132596999999805,1.7970218999998906,,,,,nikita_3,001,2020_Feb_13_1331,posner,3.1.5,59.925883666929955,
0.5,180,1,right,2,4,1,0,1,0,4,6,38,5,,,,,,,,,346.72385740000027,347.2229720000005,347.9406348000002,None,347.2400171999998,347.9242331000005,348.4414273000002,None,right,1,0.2847799000001032,348.4414273000002,None,None,347.2400171999998,348.42488779999985,0.5111645999995744,0.59465420000015,1.7130676999995558,1.7965526999996655,,,,,nikita_3,001,2020_Feb_13_1331,posner,3.1.5,59.925883666929955,
-0.5,0,1,left,1,3,1,0,1,0,4,7,39,1,,,,,,,,,348.7427099000006,349.2425357000002,349.96012320000045,None,349.25943110000026,349.94344439999986,350.46078940000007,None,left,1,0.27349729999968986,350.46078940000007,None,None,349.25943110000026,350.44428080000034,0.5115480000004027,0.5951727000001483,1.7132739999997284,1.796582799999669,,,,,nikita_3,001,2020_Feb_13_1331,posner,3.1.5,59.925883666929955,
0.5,180,1,right,2,4,1,0,1,0,5,0,40,5,,,,,,,,,350.76203350000014,351.26204810000036,351.9796114999999,None,351.2789365999997,351.9629119000001,352.48010220000015,None,right,1,0.29419359999974404,352.48010220000015,None,None,351.2789365999997,352.4636956000004,0.5116705999998885,0.59529350000048,1.713294300000598,1.7967260000004899,,,,,nikita_3,001,2020_Feb_13_1331,posner,3.1.5,59.925883666929955,
-0.5,0,1,left,1,3,1,0,1,0,5,1,41,1,,,,,,,,,352.79821379999976,353.29814050000004,354.01599239999996,None,353.3148288000002,353.99902590000056,354.5166558000001,None,left,1,0.28159059999961755,354.5166558000001,None,None,353.3148288000002,354.4999250999999,0.51163170000018,0.5949313000000984,1.713393800000631,1.796598300000369,,,,,nikita_3,001,2020_Feb_13_1331,posner,3.1.5,59.925883666929955,
0.5,0,0,right,1,4,1,0,1,0,5,2,42,3,,,,,,,,,354.81769729999996,355.3176486000002,356.03536780000013,None,355.33436750000055,356.01867240000047,356.5358193000002,None,right,1,0.2862833999997747,356.5358193000002,None,None,355.33436750000055,356.5194575000005,0.5114503000004333,0.5947715000002063,1.713241200000084,1.796570900000006,,,,,nikita_3,001,2020_Feb_13_1331,posner,3.1.5,59.925883666929955,
-0.5,0,1,left,1,3,1,0,1,0,5,3,43,2,,,,,,,,,356.85379680000005,357.3536573000001,358.07134159999987,None,357.3701841000002,358.05473489999986,358.57192529999975,None,left,1,0.29829739999968297,358.57192529999975,None,None,357.3701841000002,358.5552686000001,0.5117792999999438,0.5949568000005456,1.7130717000000004,1.7967471000001751,,,,,nikita_3,001,2020_Feb_13_1331,posner,3.1.5,59.925883666929955,
0.5,180,1,right,2,4,1,0,1,0,5,4,44,7,,,,,,,,,358.8899514000004,359.38991929999975,360.10743230000026,None,359.4067229000002,360.09075459999985,360.6084752000006,None,right,1,0.2856790000005276,360.6084752000006,None,None,359.4067229000002,360.59149080000043,0.5115418000004865,0.5948249000002761,1.713098700000046,1.796660800000609,,,,,nikita_3,001,2020_Feb_13_1331,posner,3.1.5,59.925883666929955,
-0.5,0,1,left,1,3,1,0,1,0,5,5,45,0,,,,,,,,,360.92615060000026,361.4259251000003,362.1436351000002,None,361.4426051999999,362.12701800000013,362.6443485,None,left,1,0.2899203999995734,362.6443485,None,None,361.4426051999999,362.6277727000006,0.5113522999999986,0.5950400000001537,1.7131765000003725,1.7964103000003888,,,,,nikita_3,001,2020_Feb_13_1331,posner,3.1.5,59.925883666929955,
-0.5,180,0,left,2,3,1,0,1,0,5,6,46,4,,,,,,,,,362.96209439999984,363.4620917000002,364.1797701000005,None,363.4789397000004,364.1630574999999,364.6803896000001,None,left,1,0.3577359000000797,364.6803896000001,None,None,363.4789397000004,364.66380130000016,0.5119094000001496,0.5953345000007175,1.7138727000001381,1.7970328000001246,,,,,nikita_3,001,2020_Feb_13_1331,posner,3.1.5,59.925883666929955,
0.5,180,1,right,2,4,1,0,1,0,5,7,47,6,,,,,,,,,365.0653379000005,365.5651908,366.28256560000045,None,365.58161780000046,366.26605160000054,366.7833596999999,None,right,1,0.27876300000025367,366.7833596999999,None,None,365.58161780000046,366.7665388000005,0.5115729999997711,0.5948785999999018,1.7129092000004675,1.7963063999995939,,,,,nikita_3,001,2020_Feb_13_1331,posner,3.1.5,59.925883666929955,
-0.5,0,1,left,1,3,1,0,1,0,6,0,48,1,,,,,,,,,367.0847558000005,367.5846425,368.3020047,None,367.60107010000047,368.28552519999994,368.80268309999974,None,left,1,0.2594289000007848,368.80268309999974,None,None,367.60107010000047,368.78607980000015,0.5115188999998281,0.5946911999999429,1.7129420000001119,1.7962882000001628,,,,,nikita_3,001,2020_Feb_13_1331,posner,3.1.5,59.925883666929955,
0.5,180,1,right,2,4,1,0,1,0,6,1,49,7,,,,,,,,,369.0873620000002,369.58730340000056,370.304932,None,369.60391750000053,370.2882446000003,370.8056354999999,None,right,1,0.3045386999992843,370.8056354999999,None,None,369.60391750000053,370.7888588000005,0.5117217000006349,0.5948806000005789,1.713265300000785,1.7966482000001633,,,,,nikita_3,001,2020_Feb_13_1331,posner,3.1.5,59.925883666929955,
-0.5,0,1,left,1,3,1,0,1,0,6,2,50,2,,,,,,,,,371.1398452000003,371.64001720000033,372.3576632000004,None,371.6568758000003,372.34091850000004,372.85865550000017,None,left,1,0.29147199999988516,372.85865550000017,None,None,371.6568758000003,372.8417061,0.5114583000004131,0.5951968000008492,1.7131333000006634,1.7965517000002365,,,,,nikita_3,001,2020_Feb_13_1331,posner,3.1.5,59.925883666929955,
0.5,180,1,right,2,4,1,0,1,0,6,3,51,6,,,,,,,,,373.1756830000004,373.67599040000005,374.3937727000002,None,373.69271240000035,374.3773080000001,374.8944035000004,None,right,1,0.31972439999935887,374.8944035000004,None,None,373.69271240000035,374.87794980000035,0.5120882000001075,0.5957803999999669,1.7140075999996043,1.7971088000003874,,,,,nikita_3,001,2020_Feb_13_1331,posner,3.1.5,59.925883666929955,
0.5,180,1,right,2,4,1,0,1,0,6,4,52,5,,,,,,,,,375.2458529000005,375.7457480000003,376.4634057000003,None,375.7623193999998,376.4465942000006,376.9640876000003,None,right,1,0.354053400000339,376.9640876000003,None,None,375.7623193999998,376.94737220000025,0.5116088999993735,0.5951033999999709,1.7132127999993827,1.796434699999736,,,,,nikita_3,001,2020_Feb_13_1331,posner,3.1.5,59.925883666929955,
-0.5,180,0,left,2,3,1,0,1,0,6,5,53,4,,,,,,,,,377.3482997000001,377.8487909000005,378.5661643000003,None,377.86537300000055,378.54966200000035,379.0668605000001,None,left,1,0.3393230000001495,379.0668605000001,None,None,377.86537300000055,379.0501223000001,0.5119666999999026,0.5951166999993802,1.7132854000001316,1.7972970000000714,,,,,nikita_3,001,2020_Feb_13_1331,posner,3.1.5,59.925883666929955,
-0.5,0,1,left,1,3,1,0,1,0,6,6,54,0,,,,,,,,,379.4347851000002,379.9347052000003,380.6524159999999,None,379.9512992,380.63579410000057,381.15296750000016,None,left,1,0.4292098999994778,381.15296750000016,None,None,379.9512992,381.13619389999985,0.5116106000004947,0.5951353999998901,1.7130882000001293,1.7968139000004157,,,,,nikita_3,001,2020_Feb_13_1331,posner,3.1.5,59.925883666929955,
0.5,0,0,right,1,4,1,0,1,0,6,7,55,3,,,,,,,,,381.6047515,382.1044350000002,382.8219355000001,None,382.1209364000006,382.8053282000001,383.32264080000004,None,right,1,0.3634543999996822,383.32264080000004,None,None,382.1209364000006,383.3060698999998,0.511460700000498,0.5951104000005216,1.7130723000000216,1.7964037000001554,,,,,nikita_3,001,2020_Feb_13_1331,posner,3.1.5,59.925883666929955,
-0.5,0,1,left,1,3,1,0,1,0,7,0,56,0,,,,,,,,,383.7077340000005,384.20731460000025,384.9250431999999,None,384.2240115000004,384.9084004000006,385.42579660000047,None,left,1,0.2682556999998269,385.42579660000047,None,None,384.2240115000004,385.4089748000006,0.5112017000001288,0.5944657000000007,1.7128477999995084,1.7963731999998345,,,,,nikita_3,001,2020_Feb_13_1331,posner,3.1.5,59.925883666929955,
0.5,180,1,right,2,4,1,0,1,0,7,1,57,6,,,,,,,,,385.71011739999994,386.2098524000003,386.92777380000007,None,386.2269379999998,386.91097640000044,387.4285104999999,None,right,1,0.3855209000003015,387.4285104999999,None,None,386.2269379999998,387.4117446,0.5113096000004589,0.5948581000002378,1.7131874000006064,1.7966882000000624,,,,,nikita_3,001,2020_Feb_13_1331,posner,3.1.5,59.925883666929955,
-0.5,0,1,left,1,3,1,0,1,0,7,2,58,1,,,,,,,,,387.8295652000006,388.3296936000006,389.04721250000057,None,388.3462288999999,389.0304087000004,389.5480376000005,None,left,1,0.3540278999998918,389.5480376000005,None,None,388.3462288999999,389.5313028999999,0.5116235000004963,0.5950878000003286,1.7132192999997642,1.7968713999998727,,,,,nikita_3,001,2020_Feb_13_1331,posner,3.1.5,59.925883666929955,
-0.5,180,0,left,2,3,1,0,1,0,7,3,59,4,,,,,,,,,389.9323224,390.4324234000005,391.1501732000006,None,390.4492125000006,391.1339103999999,391.6508038000002,392.1349629000006,None,0,,391.6508038000002,None,None,390.4492125000006,391.63468470000043,0.5116314000006241,0.5952390000002197,1.7138713000003918,1.796950800000559,,,,,nikita_3,001,2020_Feb_13_1331,posner,3.1.5,59.925883666929955,
-0.5,0,1,left,1,3,1,0,1,0,7,4,60,2,,,,,,,,,392.6356768000005,393.1360906,393.85395960000005,392.6356768000005,393.1528651999997,393.83724660000007,394.3545535000003,None,left,1,0.3074125000002823,394.3545535000003,None,None,393.1528651999997,394.3378756000002,0.5136751000000004,0.5972634999998263,1.7154353000005358,1.7987628000000768,,,,,nikita_3,001,2020_Feb_13_1331,posner,3.1.5,59.925883666929955,
0.5,0,0,right,1,4,1,0,1,0,7,5,61,3,,,,,,,,,394.68910719999985,395.1890686000006,395.9068404999998,None,395.20602990000043,395.8900174999999,396.40737030000037,None,right,1,0.34264299999995274,396.40737030000037,None,None,395.20602990000043,396.3906869000002,0.511671700000079,0.5951072999996541,1.713271800000257,1.7968479000001025,,,,,nikita_3,001,2020_Feb_13_1331,posner,3.1.5,59.925883666929955,
0.5,180,1,right,2,4,1,0,1,0,7,6,62,7,,,,,,,,,396.7755901999999,397.2753594000005,397.99289790000057,None,397.2918472000001,397.97612930000014,398.49358740000025,None,right,1,0.3603745999998864,398.49358740000025,None,None,397.2918472000001,398.4769974999999,0.511418500000218,0.5948755999997957,1.7130428999998912,1.7964842999999746,,,,,nikita_3,001,2020_Feb_13_1331,posner,3.1.5,59.925883666929955,
0.5,180,1,right,2,4,1,0,1,0,7,7,63,5,,,,,,,,,398.87842590000037,399.37837519999994,400.0959174999998,None,399.3948132000005,400.07905050000045,400.5964739000001,None,right,1,0.32948409999971773,400.5964739000001,None,None,399.3948132000005,400.5798500000001,0.5118176000005406,0.5948562000003221,1.7132699000003413,1.796680500000548,,,,,nikita_3,001,2020_Feb_13_1331,posner,3.1.5,59.925883666929955,
-0.5,0,1,left,1,3,1,0,1,0,8,0,64,1,,,,,,,,,400.9479415000005,401.4479261000006,402.16546759999983,None,401.4641663000002,402.14868579999984,402.66611999999986,None,left,1,0.3400786000001972,402.66611999999986,None,None,401.4641663000002,402.64931760000036,0.5116506000003938,0.5951528000005055,1.7130678000003172,1.796559200000047,,,,,nikita_3,001,2020_Feb_13_1331,posner,3.1.5,59.925883666929955,
0.5,0,0,right,1,4,1,0,1,0,8,1,65,3,,,,,,,,,403.0336733000004,403.5337960000006,404.2514892999998,None,403.55032589999973,404.23498459999973,404.7522184999998,None,right,1,0.2858083000000988,404.7522184999998,None,None,403.55032589999973,404.73547000000053,0.5118123000002015,0.5952223000003869,1.7134698999998363,1.797023000000081,,,,,nikita_3,001,2020_Feb_13_1331,posner,3.1.5,59.925883666929955,
0.5,180,1,right,2,4,1,0,1,0,8,2,66,5,,,,,,,,,405.0696865,405.56990099999985,406.28758389999985,None,405.58681870000055,406.27080750000005,406.7884967,None,right,1,0.36133909999989555,406.7884967,None,None,405.58681870000055,406.7716809000003,0.5115556000000652,0.5953023000001849,1.713332399999672,1.7967836999996507,,,,,nikita_3,001,2020_Feb_13_1331,posner,3.1.5,59.925883666929955,
0.5,180,1,right,2,4,1,0,1,0,8,3,67,7,,,,,,,,,407.1731785000002,407.6728305000006,408.3905523000003,None,407.6896174000003,408.37385240000003,408.89135929999975,None,right,1,0.29874539999946137,408.89135929999975,None,None,407.6896174000003,408.87458440000046,0.511590499999329,0.5951619999996183,1.7132856999996875,1.7965386999994735,,,,,nikita_3,001,2020_Feb_13_1331,posner,3.1.5,59.925883666929955,
-0.5,0,1,left,1,3,1,0,1,0,8,4,68,2,,,,,,,,,409.2093822000006,409.70917350000036,410.42672760000005,None,409.7256508999999,410.40997849999985,410.92750780000006,None,left,1,0.3184520999993765,410.92750780000006,None,None,409.7256508999999,410.9107654999998,0.5119469000001118,0.5951502999996592,1.7135239999997793,1.7968103000002884,,,,,nikita_3,001,2020_Feb_13_1331,posner,3.1.5,59.925883666929955,
-0.5,180,0,left,2,3,1,0,1,0,8,5,69,4,,,,,,,,,411.2618153000003,411.76183779999974,412.4796219,None,411.77864320000026,412.46282690000044,412.98009060000004,None,left,1,0.34579329999996844,412.98009060000004,None,None,411.77864320000026,412.9634550999999,0.5117473999998765,0.5951938999996855,1.7136786999999458,1.7968199999995704,,,,,nikita_3,001,2020_Feb_13_1331,posner,3.1.5,59.925883666929955,
-0.5,0,1,left,1,3,1,0,1,0,8,6,70,0,,,,,,,,,413.3483332000005,413.8481034000006,414.5658039,None,413.8651060000002,414.5490993000003,415.0663095,None,left,1,0.31573670000034326,415.0663095,None,None,413.8651060000002,415.0497542000003,0.5115550999998959,0.5947828999997,1.7131823999998232,1.7970652999993035,,,,,nikita_3,001,2020_Feb_13_1331,posner,3.1.5,59.925883666929955,
0.5,180,1,right,2,4,1,0,1,0,8,7,71,6,,,,,,,,,415.4009094000003,415.90066879999995,416.61850700000014,None,415.9176015000003,416.6017492000001,417.1192695,None,right,1,0.3745785999999498,417.1192695,None,None,415.9176015000003,417.10267100000056,0.5113970000002155,0.5950339000000895,1.713379900000291,1.7967255000003206,,,,,nikita_3,001,2020_Feb_13_1331,posner,3.1.5,59.925883666929955,
-0.5,180,0,left,2,3,1,0,1,0,9,0,72,4,,,,,,,,,417.5204149000001,418.0203431,418.73817920000056,None,418.03728690000025,418.72139479999987,419.2388755000002,None,left,1,0.28703179999956774,419.2388755000002,None,None,418.03728690000025,419.2221534999999,0.5114883000005648,0.5952006000006804,1.7132828000003428,1.7968657000001258,,,,,nikita_3,001,2020_Feb_13_1331,posner,3.1.5,59.925883666929955,
-0.5,0,1,left,1,3,1,0,1,0,9,1,73,2,,,,,,,,,419.55619019999995,420.05660290000014,420.77439180000056,None,420.07338660000005,420.75746570000047,421.27485500000057,None,left,1,0.34709730000031414,421.27485500000057,None,None,420.07338660000005,421.2584906000002,0.5116928000006737,0.5949590000000171,1.7135576000000583,1.7967134000000442,,,,,nikita_3,001,2020_Feb_13_1331,posner,3.1.5,59.925883666929955,
-0.5,0,1,left,1,3,1,0,1,0,9,2,74,0,,,,,,,,,421.64294549999977,422.1425927,422.8603813,None,422.15959329999987,422.84392370000023,423.3611787,None,left,1,0.43669059999956517,423.3611787,None,None,422.15959329999987,423.3444448,0.5115913999998156,0.5951145999997607,1.7134215999994922,1.7968387000000803,,,,,nikita_3,001,2020_Feb_13_1331,posner,3.1.5,59.925883666929955,
0.5,180,1,right,2,4,1,0,1,0,9,3,75,5,,,,,,,,,423.82905480000045,424.3291396000004,425.0467877000001,None,424.34594370000013,425.0299746999999,425.54757640000025,None,right,1,0.24228279999988445,425.54757640000025,None,None,424.34594370000013,425.53066690000014,0.5115719000004901,0.5949338000000353,1.7130794000004244,1.7965241000001697,,,,,nikita_3,001,2020_Feb_13_1331,posner,3.1.5,59.925883666929955,
0.5,180,1,right,2,4,1,0,1,0,9,4,76,7,,,,,,,,,425.81527019999976,426.31533730000046,427.0326133999997,None,426.3319277999999,427.0162068999998,427.53366879999976,None,right,1,0.28806129999975383,427.53366879999976,None,None,426.3319277999999,427.51676250000037,0.5116084000001138,0.5950284000000465,1.7130213000000367,1.7963858000002801,,,,,nikita_3,001,2020_Feb_13_1331,posner,3.1.5,59.925883666929955,
-0.5,0,1,left,1,3,1,0,1,0,9,5,77,1,,,,,,,,,427.85107919999973,428.3512193000006,429.06903390000025,None,428.3683766000004,429.05215169999974,429.56975349999993,None,left,1,0.4361532000002626,429.56975349999993,None,None,428.3683766000004,429.55290310000055,0.5110884000005171,0.594722400000137,1.7127502000003005,1.7962362000007488,,,,,nikita_3,001,2020_Feb_13_1331,posner,3.1.5,59.925883666929955,
0.5,180,1,right,2,4,1,0,1,0,9,6,78,6,,,,,,,,,430.0374999000005,430.5374926000004,431.25536060000013,None,430.5543982999998,431.2387253000006,431.7559860000001,None,right,1,0.29002940000009403,431.7559860000001,None,None,430.5543982999998,431.7394380000005,0.5116605000002892,0.5949719000000186,1.7135833000002094,1.7967766000001575,,,,,nikita_3,001,2020_Feb_13_1331,posner,3.1.5,59.925883666929955,
0.5,0,0,right,1,4,1,0,1,0,9,7,79,3,,,,,,,,,432.07401219999974,432.57392979999986,433.2912778,None,432.5903159999998,433.2747988000001,433.7920124000002,None,right,1,0.3418573999997534,433.7920124000002,None,None,432.5903159999998,433.7754955999999,0.5117093999997451,0.5949594999992769,1.7132599999995364,1.7968084999993152,,,,,nikita_3,001,2020_Feb_13_1331,posner,3.1.5,59.925883666929955,
0.5,180,1,right,2,4,1,0,1,0,10,0,80,5,,,,,,,,,434.15979119999975,434.65991660000054,435.3778329000006,None,434.6766819000004,435.36090500000046,435.87825990000056,None,right,1,0.4315238999997746,435.87825990000056,None,None,434.6766819000004,435.86157000000003,0.5117081000007602,0.595129100000122,1.7133435000005193,1.7968870000004245,,,,,nikita_3,001,2020_Feb_13_1331,posner,3.1.5,59.925883666929955,
-0.5,0,1,left,1,3,1,0,1,0,10,1,81,1,,,,,,,,,436.3300651999998,436.8296943000005,437.5472348000003,None,436.8464189000006,437.53044260000024,438.04817600000024,None,left,1,0.26188340000044263,438.04817600000024,None,None,436.8464189000006,438.03126950000023,0.511313799999698,0.5950375000002168,1.7128813999997874,1.796530999999959,,,,,nikita_3,001,2020_Feb_13_1331,posner,3.1.5,59.925883666929955,
0.5,180,1,right,2,4,1,0,1,0,10,2,82,7,,,,,,,,,438.33268959999987,438.8322011999999,439.5501152000006,None,438.84923419999996,439.5334130000001,440.0505417000004,None,right,1,0.2673807000001034,440.0505417000004,None,None,438.84923419999996,440.0341478,0.5112676999997348,0.5949417000001631,1.7131728000003932,1.7965650000005553,,,,,nikita_3,001,2020_Feb_13_1331,posner,3.1.5,59.925883666929955,
-0.5,0,1,left,1,3,1,0,1,0,10,3,83,2,,,,,,,,,440.3353821999999,440.8351509000004,441.5527066000004,None,440.851627,441.53604240000004,442.0536679000006,None,left,1,0.22410889999991923,442.0536679000006,None,None,440.851627,442.0368956000002,0.5111751000004006,0.5946536000001288,1.7129045000001497,1.796027000000322,,,,,nikita_3,001,2020_Feb_13_1331,posner,3.1.5,59.925883666929955,
0.5,180,1,right,2,4,1,0,1,0,10,4,84,6,,,,,,,,,442.3046783,442.80479470000046,443.52210809999997,None,442.8210886000006,443.50572230000034,444.0227167000003,None,right,1,0.2870850999997856,444.0227167000003,None,None,442.8210886000006,444.0062275,0.5116539000000557,0.5948276999997688,1.713070400000106,1.7963927999999214,,,,,nikita_3,001,2020_Feb_13_1331,posner,3.1.5,59.925883666929955,
-0.5,180,0,left,2,3,1,0,1,0,10,5,85,4,,,,,,,,,444.34002190000047,444.84046670000043,445.5581901000005,None,444.8573292000001,445.5414429000002,446.05917039999986,None,left,1,0.2667308000000048,446.05917039999986,None,None,444.8573292000001,446.04221770000004,0.5119446000007883,0.5956275000007736,1.7136766000003263,1.7972964999999022,,,,,nikita_3,001,2020_Feb_13_1331,posner,3.1.5,59.925883666929955,
-0.5,0,1,left,1,3,1,0,1,0,10,6,86,0,,,,,,,,,446.34330950000003,446.84342019999985,447.56106439999985,None,446.8601440000002,447.5443589000006,448.06169560000035,None,left,1,0.28016569999999774,448.06169560000035,None,None,446.8601440000002,448.0451856999998,0.5121595999999045,0.5956520999998247,1.7139057000003959,1.7971198000004733,,,,,nikita_3,001,2020_Feb_13_1331,posner,3.1.5,59.925883666929955,
0.5,0,0,right,1,4,1,0,1,0,10,7,87,3,,,,,,,,,448.3630606000006,448.86292539999977,449.58043009999983,None,448.8794484,449.5639093,450.08109460000014,None,right,1,0.3327826999993704,450.08109460000014,None,None,448.8794484,450.0647325,0.511413100000027,0.5946531999998115,1.7131812999996328,1.796494299999722,,,,,nikita_3,001,2020_Feb_13_1331,posner,3.1.5,59.925883666929955,
,,,,,,1,0,1,0,,,,,,,,,,,,,,,,,,,,,,,,,,,,,,,,,450.4321166,None,1.6599999980826396e-05,0.9959081000006336,nikita_3,001,2020_Feb_13_1331,posner,3.1.5,59.925883666929955,
0.5,180,1,right,2,4,2,0,2,0,0,0,0,7,1.2200000128359534e-05,0.09763420000035694,511.44879779999974,None,1.5100000382517464e-05,0.0981578000000809,513.5517135999999,None,513.8373025000001,514.3363028000003,515.0537812000002,None,514.3531208000004,515.0374024000002,515.5545278,None,right,1,0.2829887999996572,515.5545278,None,None,514.3531208000004,515.5377586000004,0.5078318999994735,0.5909400999998979,1.7092763999999079,1.7927480999996988,,,,,nikita_3,001,2020_Feb_13_1331,posner,3.1.5,59.925883666929955,
-0.5,0,1,left,1,3,2,0,2,0,0,1,1,2,,,,,,,,,515.8568826999999,516.3556896,517.0731790999998,None,516.372222,517.0565297000003,517.5740541000005,None,left,1,0.29541470000003756,517.5740541000005,None,None,516.372222,517.5575035000002,0.5102911999993012,0.5935199999994438,1.712089399999968,1.795307800000046,,,,,nikita_3,001,2020_Feb_13_1331,posner,3.1.5,59.925883666929955,
-0.5,0,1,left,1,3,2,0,2,0,0,2,2,1,,,,,,,,,517.8919068000005,518.3917243000005,519.1094475,None,518.4085407000002,519.0928676000003,519.6099415999997,None,left,1,0.3236802000001262,519.6099415999997,None,None,518.4085407000002,519.5934698000001,0.5113024000002042,0.5948454999997921,1.713030500000059,1.7963995000000068,,,,,nikita_3,001,2020_Feb_13_1331,posner,3.1.5,59.925883666929955,
-0.5,0,1,left,1,3,2,0,2,0,0,3,3,0,,,,,,,,,519.9613101000004,520.4612266000004,521.1789435000001,None,520.4779440000002,521.1622146999998,521.6795088999997,None,left,1,0.3818960999997216,521.6795088999997,None,None,520.4779440000002,521.6631455000006,0.5115627999994103,0.5951908999995794,1.7134673999998995,1.796654199999466,,,,,nikita_3,001,2020_Feb_13_1331,posner,3.1.5,59.925883666929955,
0.5,180,1,right,2,4,2,0,2,0,0,4,4,5,,,,,,,,,522.0806954,522.5808198000004,523.2984486000005,None,522.5976087999998,523.2818231000001,523.7992684000001,None,right,1,0.3261966999998549,523.7992684000001,None,None,522.5976087999998,523.7823852000001,0.5117490000002363,0.5951732000003176,1.7133165000004738,1.7969188000006397,,,,,nikita_3,001,2020_Feb_13_1331,posner,3.1.5,59.925883666929955,
-0.5,180,0,left,2,3,2,0,2,0,0,5,5,4,,,,,,,,,524.1497263000001,524.6501563000002,525.3681624999999,None,524.6669674000004,525.3512257000002,525.8686053000001,None,left,1,0.2968308999998044,525.8686053000001,None,None,524.6669674000004,525.8519993,0.511196899999959,0.5947667999998885,1.713014399999338,1.7964709999996558,,,,,nikita_3,001,2020_Feb_13_1331,posner,3.1.5,59.925883666929955,
0.5,180,1,right,2,4,2,0,2,0,0,6,6,6,,,,,,,,,526.1865973000004,526.6866061999999,527.4040666999999,None,526.7032423999999,527.3874348999998,527.9049411000005,None,right,1,0.24474710000049527,527.9049411000005,None,None,526.7032423999999,527.8882453000006,0.5115974999998798,0.594683399999667,1.7132385999993858,1.796734199999264,,,,,nikita_3,001,2020_Feb_13_1331,posner,3.1.5,59.925883666929955,
0.5,0,0,right,1,4,2,0,2,0,0,7,7,3,,,,,,,,,528.1732673000006,528.6725757000004,529.3900957000005,None,528.6890480000002,529.3735624999999,529.8908227000002,None,right,1,0.39450639999995474,529.8908227000002,None,None,528.6890480000002,529.8744124000004,0.5112997000005635,0.5947721000002275,1.713119000000006,1.7964787999999317,,,,,nikita_3,001,2020_Feb_13_1331,posner,3.1.5,59.925883666929955,
-0.5,0,1,left,1,3,2,0,2,0,1,0,8,2,,,,,,,,,530.3090742000004,530.8090312000004,531.5264550000002,None,530.8255553999998,531.5097722,532.0272197000004,None,left,1,0.2822599999999511,532.0272197000004,None,None,530.8255553999998,532.0105448000004,0.5117483999993055,0.5948613000000478,1.7132512999996834,1.7966729999998279,,,,,nikita_3,001,2020_Feb_13_1331,posner,3.1.5,59.925883666929955,
-0.5,180,0,left,2,3,2,0,2,0,1,1,9,4,,,,,,,,,532.3283879,532.8284959000002,533.5460228000002,None,532.8450474000001,533.5292015000005,534.0466081000004,None,left,1,0.37480479999976524,534.0466081000004,None,None,532.8450474000001,534.0297329000005,0.5116523000006055,0.5950138000007428,1.71287890000076,1.7967505000005985,,,,,nikita_3,001,2020_Feb_13_1331,posner,3.1.5,59.925883666929955,
0.5,0,0,right,1,4,2,0,2,0,1,2,10,3,,,,,,,,,534.4476871000006,534.9479166000001,535.6655785000003,None,534.9646253000001,535.6489235999998,536.1661877000006,None,right,1,0.3110999000000447,536.1661877000006,None,None,534.9646253000001,536.1495214000006,0.5117295999998532,0.5952072999998563,1.713318000000072,1.7967673000002833,,,,,nikita_3,001,2020_Feb_13_1331,posner,3.1.5,59.925883666929955,
0.5,180,1,right,2,4,2,0,2,0,1,3,11,6,,,,,,,,,536.5004207000002,537.0006337000004,537.7183374000006,None,537.0174121999999,537.7016035000006,538.2190414000006,None,left,0,0.19418670000050042,538.2190414000006,None,None,537.0174121999999,538.2022403999999,0.5119157999997697,0.5953441999999995,1.7135060000000522,1.7969692000006035,,,,,nikita_3,001,2020_Feb_13_1331,posner,3.1.5,59.925883666929955,
0.5,180,1,right,2,4,2,0,2,0,1,4,12,5,,,,,,,,,538.4368587999998,538.9368082999999,539.6543977000001,None,538.9535022,539.6375340000004,540.1551240999997,None,right,1,0.3302667999996629,540.1551240999997,None,None,538.9535022,540.1382712000004,0.5113707000000431,0.5945208000002822,1.7128220000004148,1.7962502000000313,,,,,nikita_3,001,2020_Feb_13_1331,posner,3.1.5,59.925883666929955,
-0.5,0,1,left,1,3,2,0,2,0,1,5,13,1,,,,,,,,,540.5064856999998,541.0062730999998,541.7239976999999,None,541.0228071000001,541.7071925999999,542.2245982000004,None,left,1,0.2847066000003906,542.2245982000004,None,None,541.0228071000001,542.2079282000004,0.5115545999997266,0.5947583999995913,1.713188299999274,1.7965363999992405,,,,,nikita_3,001,2020_Feb_13_1331,posner,3.1.5,59.925883666929955,
0.5,180,1,right,2,4,2,0,2,0,1,6,14,7,,,,,,,,,542.5255801000003,543.0256332999998,543.743332,None,543.0422552999999,543.7267040000006,544.243958,None,right,1,0.24137250000057975,544.243958,None,None,543.0422552999999,544.2273208000006,0.5115536000002976,0.5949719000000186,1.713227199999892,1.7965457999998762,,,,,nikita_3,001,2020_Feb_13_1331,posner,3.1.5,59.925883666929955,
-0.5,0,1,left,1,3,2,0,2,0,1,7,15,0,,,,,,,,,544.5120980000002,545.0117478000002,545.7291882999998,None,545.0283231000003,545.7129553000004,546.2298694000001,None,left,1,0.2635847000001377,546.2298694000001,None,None,545.0283231000003,546.2134274999999,0.5116594999999506,0.594930000000204,1.7133197000002838,1.7967601999998806,,,,,nikita_3,001,2020_Feb_13_1331,posner,3.1.5,59.925883666929955,
0.5,0,0,right,1,4,2,0,2,0,2,0,16,3,,,,,,,,,546.5145761000003,547.0145542999999,547.7320283999998,None,547.0310512000005,547.7154421000005,548.2326708999999,None,right,1,0.2845347000002221,548.2326708999999,None,None,547.0310512000005,548.2161003000001,0.5114406000002418,0.5948151000002326,1.7129704999997557,1.796462899999824,,,,,nikita_3,001,2020_Feb_13_1331,posner,3.1.5,59.925883666929955,
-0.5,0,1,left,1,3,2,0,2,0,2,1,17,0,,,,,,,,,548.5334447000005,549.0339518000001,549.7513850000005,None,549.0505245000004,549.7348544000006,550.2522417999999,None,left,1,0.27312480000000505,550.2522417999999,None,None,549.0505245000004,550.2354119000001,0.5122291999996378,0.5957071999991967,1.7136805999998614,1.7972744999997303,,,,,nikita_3,001,2020_Feb_13_1331,posner,3.1.5,59.925883666929955,
0.5,180,1,right,2,4,2,0,2,0,2,2,18,7,,,,,,,,,550.5536481999998,551.0534988999998,551.7709739000002,None,551.0699091000006,551.7543655,552.2716264000001,None,right,1,0.2536859000001641,552.2716264000001,None,None,551.0699091000006,552.2550990999998,0.5117260000006354,0.59482190000017,1.713306200000261,1.7966420000002472,,,,,nikita_3,001,2020_Feb_13_1331,posner,3.1.5,59.925883666929955,
0.5,180,1,right,2,4,2,0,2,0,2,3,19,6,,,,,,,,,552.5557668000001,553.0560511000003,553.7739116000002,None,553.0726750000003,553.7571720000005,554.2744770999998,None,right,1,0.32289350000064587,554.2744770999998,None,None,553.0726750000003,554.2577689999998,0.5115863999999419,0.5948508000001311,1.713292200000069,1.7965228000002753,,,,,nikita_3,001,2020_Feb_13_1331,posner,3.1.5,59.925883666929955,
0.5,180,1,right,2,4,2,0,2,0,2,4,20,5,,,,,,,,,554.6254900000004,555.1255332999999,555.8431903000001,None,555.1420367999999,555.8266873000002,556.3438045000003,None,right,1,0.3413877000002685,556.3438045000003,None,None,555.1420367999999,556.3273432000005,0.511563600000045,0.5951473000004626,1.7133499999999913,1.7967606000001979,,,,,nikita_3,001,2020_Feb_13_1331,posner,3.1.5,59.925883666929955,
-0.5,0,1,left,1,3,2,0,2,0,2,5,21,1,,,,,,,,,556.7117525000003,557.2118470000005,557.9292593999999,None,557.2285541000001,557.9129263000004,558.4300934000003,None,left,1,0.38322559999960504,558.4300934000003,None,None,557.2285541000001,558.4136511000006,0.5118824000001041,0.5953601000001072,1.7136618000004091,1.796891300000425,,,,,nikita_3,001,2020_Feb_13_1331,posner,3.1.5,59.925883666929955,
-0.5,0,1,left,1,3,2,0,2,0,2,6,22,2,,,,,,,,,558.8314904999997,559.3311641,560.0489752000003,None,559.3481729000005,560.0322436000006,560.5497735999998,None,left,1,0.27159630000005563,560.5497735999998,None,None,559.3481729000005,560.5330054000005,0.5111465999998472,0.5947979000002306,1.7129611999998815,1.7963897999998153,,,,,nikita_3,001,2020_Feb_13_1331,posner,3.1.5,59.925883666929955,
-0.5,180,0,left,2,3,2,0,2,0,2,7,23,4,,,,,,,,,560.8509755000005,561.3506084999999,562.0685816000005,None,561.3674682999999,562.0516499000005,562.5693396000006,None,left,1,0.3078594999997222,562.5693396000006,None,None,561.3674682999999,562.5525106000005,0.5114198999999644,0.595036099999561,1.713241399999788,1.796799199999441,,,,,nikita_3,001,2020_Feb_13_1331,posner,3.1.5,59.925883666929955,
-0.5,0,1,left,1,3,2,0,2,0,3,0,24,2,,,,,,,,,562.903773,563.4037098999997,564.1212194,None,563.4202746999999,564.1046966000004,564.6219247999998,None,left,1,0.31161340000016935,564.6219247999998,None,None,563.4202746999999,564.6052439000005,0.5116970999997648,0.5951624999997875,1.7132138999995732,1.7966244999997798,,,,,nikita_3,001,2020_Feb_13_1331,posner,3.1.5,59.925883666929955,
-0.5,0,1,left,1,3,2,0,2,0,3,1,25,0,,,,,,,,,564.9563539000001,565.4565375000002,566.1742607000006,None,565.4731523999999,566.1574660000006,566.6747283000004,567.1587998000005,left,1,0.49880639999992127,566.6747283000004,None,None,565.4731523999999,566.6582130000006,0.511790600000495,0.5950406000001749,1.7134408000001713,1.796802700000626,,,,,nikita_3,001,2020_Feb_13_1331,posner,3.1.5,59.925883666929955,
0.5,180,1,right,2,4,2,0,2,0,3,2,26,5,,,,,,,,,567.1933160999997,567.6930874,568.4106013999999,None,567.7095178999998,568.3938060999999,568.9111013000002,None,right,1,0.25412859999960347,568.9111013000002,None,None,567.7095178999998,568.8944006000002,0.5115163000000393,0.5947599000000992,1.7128207000005204,1.7964465000004566,,,,,nikita_3,001,2020_Feb_13_1331,posner,3.1.5,59.925883666929955,
0.5,0,0,right,1,4,2,0,2,0,3,3,27,3,,,,,,,,,569.1955941000006,569.6956030000001,570.4133737000002,None,569.7122128000001,570.3966337000002,570.9139286999998,None,right,1,0.347264200000609,570.9139286999998,None,None,569.7122128000001,570.8974087000006,0.5113637000004019,0.5948948000004748,1.7131514000002426,1.796342999999979,,,,,nikita_3,001,2020_Feb_13_1331,posner,3.1.5,59.925883666929955,
-0.5,180,0,left,2,3,2,0,2,0,3,4,28,4,,,,,,,,,571.2818659000004,571.7818797,572.4992655000005,None,571.7986548999997,572.4829171000001,573.0000387,None,left,1,0.29313900000033755,573.0000387,None,None,571.7986548999997,572.9834891999999,0.5115240000004633,0.5949778000003789,1.7131152000001748,1.7966372000000774,,,,,nikita_3,001,2020_Feb_13_1331,posner,3.1.5,59.925883666929955,
0.5,180,1,right,2,4,2,0,2,0,3,5,29,7,,,,,,,,,573.3178484999999,573.8179971,574.5356655000005,None,573.8346089000006,574.5192391999999,575.0362058999999,None,right,1,0.27311850000023696,575.0362058999999,None,None,573.8346089000006,575.0195234000003,0.5117602000000261,0.5949869000005492,1.713263999999981,1.7968276000001424,,,,,nikita_3,001,2020_Feb_13_1331,posner,3.1.5,59.925883666929955,
0.5,180,1,right,2,4,2,0,2,0,3,6,30,6,,,,,,,,,575.3373320999999,575.8372632999999,576.5552077000002,None,575.8541703000001,576.5384995000004,577.0558427000005,None,right,1,0.31757610000022396,577.0558427000005,None,None,575.8541703000001,577.0393015999998,0.5115630999998757,0.594924600000013,1.7135912999992797,1.796750699999393,,,,,nikita_3,001,2020_Feb_13_1331,posner,3.1.5,59.925883666929955,
-0.5,0,1,left,1,3,2,0,2,0,3,7,31,1,,,,,,,,,577.3900333000001,577.8899814000006,578.6078428999999,None,577.9070858000005,578.5911028,579.1085551000006,None,left,1,0.33662360000016633,579.1085551000006,None,None,577.9070858000005,579.0917176000003,0.5116628000005221,0.5953859000001103,1.7133784000006926,1.7970359999999346,,,,,nikita_3,001,2020_Feb_13_1331,posner,3.1.5,59.925883666929955,
0.5,0,0,right,1,4,2,0,2,0,4,0,32,3,,,,,,,,,579.4763837999999,579.9764569999998,580.6941203000006,None,579.9933421000005,580.6775466999998,581.1948248999997,581.6788520999999,right,1,0.4904464999999618,581.1948248999997,None,None,579.9933421000005,581.1780110999998,0.5112371000004714,0.5947131000002628,1.7127778000003673,1.7961778000008053,,,,,nikita_3,001,2020_Feb_13_1331,posner,3.1.5,59.925883666929955,
-0.5,0,1,left,1,3,2,0,2,0,4,1,33,2,,,,,,,,,581.7131280000003,582.2128414999997,582.9306967000002,None,582.2295119999999,582.9140017,583.4311937000002,None,left,1,0.30186399999911373,583.4311937000002,None,None,582.2295119999999,583.4146160999999,0.5117038000007597,0.5951089000000138,1.713448800000151,1.7966308000004574,,,,,nikita_3,001,2020_Feb_13_1331,posner,3.1.5,59.925883666929955,
0.5,180,1,right,2,4,2,0,2,0,4,2,34,7,,,,,,,,,583.7488591000001,584.2492060000004,584.9668606000005,None,584.2657123999998,584.9499786000006,585.4673561,None,right,1,0.2577422000003935,585.4673561,None,None,584.2657123999998,585.4506007999998,0.5118715000007796,0.595005800000763,1.7132535000000644,1.79674310000064,,,,,nikita_3,001,2020_Feb_13_1331,posner,3.1.5,59.925883666929955,
-0.5,180,0,left,2,3,2,0,2,0,4,3,35,4,,,,,,,,,585.7517724999998,586.2516857999999,586.9693020000004,None,586.2684869000004,586.9526278000003,587.4700156999997,None,left,1,0.39106319999973493,587.4700156999997,None,None,586.2684869000004,587.4535076000002,0.5114900000007765,0.5950566999999864,1.713289100000111,1.796677900000759,,,,,nikita_3,001,2020_Feb_13_1331,posner,3.1.5,59.925883666929955,
-0.5,0,1,left,1,3,2,0,2,0,4,4,36,1,,,,,,,,,587.8879011999998,588.3878579000002,589.1056069000006,None,588.4047197,589.0887530999998,589.6062280000006,None,left,1,0.3032711999994717,589.6062280000006,None,None,588.4047197,589.5895422000003,0.5115515000006781,0.5950312000004487,1.7132196000002295,1.7967654000003677,,,,,nikita_3,001,2020_Feb_13_1331,posner,3.1.5,59.925883666929955,
0.5,180,1,right,2,4,2,0,2,0,4,5,37,6,,,,,,,,,589.9404504000004,590.4408949999997,591.1585481000002,None,590.4575998999999,591.1416786,591.6594479000005,None,right,1,0.2817019000003711,591.6594479000005,None,None,590.4575998999999,591.6426722000006,0.5118744999999763,0.5953814999993483,1.7136390999994546,1.7967196999998123,,,,,nikita_3,001,2020_Feb_13_1331,posner,3.1.5,59.925883666929955,
-0.5,0,1,left,1,3,2,0,2,0,4,6,38,0,,,,,,,,,591.9605233000002,592.4601257000004,593.1777927000003,None,592.4770656000001,593.1611730000004,593.6786252000002,None,left,1,0.3264644999999291,593.6786252000002,None,None,592.4770656000001,593.6618778000002,0.5112666999993962,0.5948922999996284,1.7130009000002246,1.7966439000001628,,,,,nikita_3,001,2020_Feb_13_1331,posner,3.1.5,59.925883666929955,
0.5,180,1,right,2,4,2,0,2,0,4,7,39,5,,,,,,,,,594.0296205000004,594.5295397,595.2474848000002,None,594.5464822000004,595.2306970999998,595.7479981000006,None,right,1,0.35294639999938227,595.7479981000006,None,None,594.5464822000004,595.7313940000004,0.5116515999998228,0.5955131999999139,1.7134900999999445,1.7971090000000913,,,,,nikita_3,001,2020_Feb_13_1331,posner,3.1.5,59.925883666929955,
0.5,180,1,right,2,4,2,0,2,0,5,0,40,6,,,,,,,,,596.1327886999998,596.6330463000004,597.3501406000005,None,596.6492298000003,597.3338728999997,597.8510490999997,None,right,1,0.3141112000002977,597.8510490999997,None,None,596.6492298000003,597.8344127,0.5123395999999047,0.5953978999996252,1.7136972999996942,1.7970916999993278,,,,,nikita_3,001,2020_Feb_13_1331,posner,3.1.5,59.925883666929955,
-0.5,180,0,left,2,3,2,0,2,0,5,1,41,4,,,,,,,,,598.1856527999998,598.6855363000004,599.4031169999998,None,598.7021863999998,599.3863243000005,599.9038163000005,None,left,1,0.29327959999955056,599.9038163000005,None,None,598.7021863999998,599.8871755999999,0.5114972000001217,0.5947244999997565,1.7131194999992658,1.7964955999996164,,,,,nikita_3,001,2020_Feb_13_1331,posner,3.1.5,59.925883666929955,
-0.5,0,1,left,1,3,2,0,2,0,5,2,42,0,,,,,,,,,600.2214159000005,600.7215710999999,601.4392429,None,600.7383399,601.4227016000004,601.9397251,None,left,1,0.30529459999979736,601.9397251,None,None,600.7383399,601.9231268000003,0.5118334999997387,0.5953668000001926,1.7133857999997417,1.796929000000091,,,,,nikita_3,001,2020_Feb_13_1331,posner,3.1.5,59.925883666929955,
0.5,180,1,right,2,4,2,0,2,0,5,3,43,7,,,,,,,,,602.2744416000005,602.7744196000003,603.4919103000002,None,602.7909082000006,603.4754522000003,603.9928221,None,right,1,0.2601191000003382,603.9928221,None,None,602.7909082000006,603.9761186000005,0.5113430999999764,0.5949497000001429,1.7130238999998255,1.7963487999995777,,,,,nikita_3,001,2020_Feb_13_1331,posner,3.1.5,59.925883666929955,
-0.5,0,1,left,1,3,2,0,2,0,5,4,44,2,,,,,,,,,604.2770645,604.7772928000004,605.4948384999998,None,604.7939612,605.4781515000004,605.9955497000001,None,left,1,0.23361730000033276,605.9955497000001,None,None,604.7939612,605.9787858,0.5118205999997372,0.5950509000003876,1.7133052999997744,1.7969881999997597,,,,,nikita_3,001,2020_Feb_13_1331,posner,3.1.5,59.925883666929955,
-0.5,0,1,left,1,3,2,0,2,0,5,5,45,1,,,,,,,,,606.2460894000005,606.7464362000001,607.4642911000001,None,606.7632874000001,607.4475842000002,607.9648996000005,None,left,1,0.33611500000006345,607.9648996000005,None,None,606.7632874000001,607.9480635,0.5119374000005337,0.5954356000002008,1.7135428000001411,1.797122599999966,,,,,nikita_3,001,2020_Feb_13_1331,posner,3.1.5,59.925883666929955,
0.5,0,0,right,1,4,2,0,2,0,5,6,46,3,,,,,,,,,608.3325621000004,608.8327950000003,609.5503687999999,None,608.8493046000003,609.5338858000005,610.0510055000004,None,right,1,0.32993590000023687,610.0510055000004,None,None,608.8493046000003,610.0345747000001,0.51166639999974,0.5951056999992943,1.7134221999995134,1.7968292999994446,,,,,nikita_3,001,2020_Feb_13_1331,posner,3.1.5,59.925883666929955,
0.5,180,1,right,2,4,2,0,2,0,5,7,47,5,,,,,,,,,610.4025060000004,610.9020652999998,611.6197855,None,610.9188957000006,611.6032925,612.1205054000002,None,right,1,0.26840230000016163,612.1205054000002,None,None,610.9188957000006,612.1039213000004,0.5112421000003451,0.5949196000001393,1.7130654000002323,1.7966075000003912,,,,,nikita_3,001,2020_Feb_13_1331,posner,3.1.5,59.925883666929955,
-0.5,180,0,left,2,3,2,0,2,0,6,0,48,4,,,,,,,,,612.4049821999997,612.9050281999998,613.6226065999999,None,612.9214802000006,613.6060336,614.1233683999999,None,left,1,0.3057014000005438,614.1233683999999,None,None,612.9214802000006,614.1066854999999,0.511703000000125,0.5951021000000765,1.7133433999997578,1.796733299999687,,,,,nikita_3,001,2020_Feb_13_1331,posner,3.1.5,59.925883666929955,
-0.5,0,1,left,1,3,2,0,2,0,6,1,49,0,,,,,,,,,614.4576880000004,614.9579207000006,615.675534,None,614.9745051999998,615.6588041000005,616.1762061,None,left,1,0.2607354000001578,616.1762061,None,None,614.9745051999998,616.1595009000002,0.5117598999995607,0.5950537999997323,1.7133320999992065,1.7969521999993958,,,,,nikita_3,001,2020_Feb_13_1331,posner,3.1.5,59.925883666929955,
-0.5,0,1,left,1,3,2,0,2,0,6,2,50,2,,,,,,,,,616.4599194000002,616.9606437000002,617.6782872000003,None,616.9773222000003,617.6616159000005,618.1789724999999,None,left,1,0.28209050000077696,618.1789724999999,None,None,616.9773222000003,618.1622348999999,0.5123889000005875,0.5956358000003092,1.7139612999999372,1.7972876000003453,,,,,nikita_3,001,2020_Feb_13_1331,posner,3.1.5,59.925883666929955,
-0.5,0,1,left,1,3,2,0,2,0,6,3,51,1,,,,,,,,,618.4802893000005,618.9799111000002,619.6977870000001,None,618.9965911999998,619.6809045999998,620.1983995,None,left,1,0.25447559999975056,620.1983995,None,None,618.9965911999998,620.1816131000005,0.5111960999993244,0.5946930000000066,1.7128795999997237,1.796347199999218,,,,,nikita_3,001,2020_Feb_13_1331,posner,3.1.5,59.925883666929955,
0.5,180,1,right,2,4,2,0,2,0,6,4,52,6,,,,,,,,,620.4826303999998,620.9828458000002,621.7003942000001,None,620.9992779000004,621.6838920999999,622.2009281999999,None,right,1,0.20400320000044303,622.2009281999999,None,None,620.9992779000004,622.1844538000005,0.5116118000005372,0.5950785000004544,1.7132029000003968,1.7967420000004495,,,,,nikita_3,001,2020_Feb_13_1331,posner,3.1.5,59.925883666929955,
0.5,180,1,right,2,4,2,0,2,0,6,5,53,7,,,,,,,,,622.4352993000002,622.9354068000002,623.653303,None,622.9521752,623.6364991,624.153808,None,right,1,0.2672525999996651,624.153808,None,None,622.9521752,624.1371767999999,0.511463000000731,0.5949536000007356,1.7132160000001022,1.7964857000006305,,,,,nikita_3,001,2020_Feb_13_1331,posner,3.1.5,59.925883666929955,
0.5,180,1,right,2,4,2,0,2,0,6,6,54,5,,,,,,,,,624.4380516000001,624.9382585000003,625.6557750000002,None,624.9549764000003,625.6390300000003,626.1566902000004,None,right,1,0.32823540000026696,626.1566902000004,None,None,624.9549764000003,626.1396708000002,0.5117905000006431,0.5949492999998256,1.7131923000006282,1.7968273000005865,,,,,nikita_3,001,2020_Feb_13_1331,posner,3.1.5,59.925883666929955,
0.5,0,0,right,1,4,2,0,2,0,6,7,55,3,,,,,,,,,626.5077169000006,627.0076539000002,627.7254751,None,627.0244382999999,627.7086865000001,628.2260092000006,None,right,1,0.3310459999993327,628.2260092000006,None,None,627.0244382999999,628.2093779000006,0.5116786000007778,0.5951733000001695,1.7133857000007993,1.7968095000005633,,,,,nikita_3,001,2020_Feb_13_1331,posner,3.1.5,59.925883666929955,
-0.5,0,1,left,1,3,2,0,2,0,7,0,56,0,,,,,,,,,628.5777482000003,629.0774229999997,629.7950081999998,None,629.0938421999999,629.7782426000003,630.2957490999997,None,left,1,0.31718670000009297,630.2957490999997,None,None,629.0938421999999,630.2787930000004,0.5115144000001237,0.59464669999943,1.712863799999468,1.7965272999999797,,,,,nikita_3,001,2020_Feb_13_1331,posner,3.1.5,59.925883666929955,
-0.5,180,0,left,2,3,2,0,2,0,7,1,57,4,,,,,,,,,630.6301223999999,631.1305141000003,631.8477380000004,None,631.1468074000004,631.8309872999998,632.3482851999997,None,left,1,0.33655369999996765,632.3482851999997,None,None,631.1468074000004,632.3316769000003,0.5125264000007519,0.595623300000625,1.7136700999999448,1.7970916000003854,,,,,nikita_3,001,2020_Feb_13_1331,posner,3.1.5,59.925883666929955,
-0.5,0,1,left,1,3,2,0,2,0,7,2,58,2,,,,,,,,,632.7158816000001,633.2161544999999,633.9340128000003,None,633.2330874999998,633.9173355000003,634.4344339999998,None,left,1,0.32253680000030727,634.4344339999998,None,None,633.2330874999998,634.4179701000003,0.5117005000001882,0.5950807000008353,1.7134963000007701,1.7967786000008346,,,,,nikita_3,001,2020_Feb_13_1331,posner,3.1.5,59.925883666929955,
0.5,180,1,right,2,4,2,0,2,0,7,3,59,5,,,,,,,,,634.7858351000004,635.2859156000004,636.0034249,None,635.3024906999999,635.9867427999998,636.5042252000003,None,right,1,0.2926169000002119,636.5042252000003,None,None,635.3024906999999,636.4874402000005,0.5113662000003387,0.5946064999998271,1.7128696999998283,1.7962984000005235,,,,,nikita_3,001,2020_Feb_13_1331,posner,3.1.5,59.925883666929955,
0.5,0,0,right,1,4,2,0,2,0,7,4,60,3,,,,,,,,,636.8217896000006,637.3217236,638.0394412000005,None,637.3384216000004,638.0229168000005,638.5400988000001,639.0244469999998,right,1,0.5047585000002073,638.5400988000001,None,None,637.3384216000004,638.5236708000002,0.5113572999998723,0.5950164000005316,1.7132823000001736,1.7967491999997947,,,,,nikita_3,001,2020_Feb_13_1331,posner,3.1.5,59.925883666929955,
-0.5,0,1,left,1,3,2,0,2,0,7,5,61,1,,,,,,,,,639.0745280000001,639.5749829000006,640.2926527999998,None,639.5919574,640.2759323999999,640.7934724000006,None,left,1,0.2673119000000952,640.7934724000006,None,None,639.5919574,640.7766484000003,0.5120005999997375,0.5954315999997561,1.7136498999998366,1.7970367999996597,,,,,nikita_3,001,2020_Feb_13_1331,posner,3.1.5,59.925883666929955,
0.5,180,1,right,2,4,2,0,2,0,7,6,62,7,,,,,,,,,641.0777427000003,641.5777152999999,642.2953819000004,None,641.5945902000003,642.2787711000001,642.7960453000005,None,right,1,0.24906740000005811,642.7960453000005,None,None,641.5945902000003,642.7794039999999,0.511594900000091,0.5951802999998108,1.713260999999875,1.7967902999998842,,,,,nikita_3,001,2020_Feb_13_1331,posner,3.1.5,59.925883666929955,
0.5,180,1,right,2,4,2,0,2,0,7,7,63,6,,,,,,,,,643.0641051000002,643.5636857,644.2814564,None,643.5804416999999,644.2648403000003,644.7819594000002,None,right,1,0.31884749999971973,644.7819594000002,None,None,643.5804416999999,644.7654262000005,0.5111572000005253,0.5948689000006198,1.7128751000000193,1.7963096000003134,,,,,nikita_3,001,2020_Feb_13_1331,posner,3.1.5,59.925883666929955,
0.5,180,1,right,2,4,2,0,2,0,8,0,64,5,,,,,,,,,645.1165829000001,645.6167277000004,646.3341810000002,None,645.633691,646.3175799999999,646.8351405000003,None,right,1,0.2817111999993358,646.8351405000003,None,None,645.633691,646.8183010000002,0.5117706000000908,0.5950159999993048,1.7133337999994183,1.7966744999994262,,,,,nikita_3,001,2020_Feb_13_1331,posner,3.1.5,59.925883666929955,
-0.5,180,0,left,2,3,2,0,2,0,8,1,65,4,,,,,,,,,647.1367203999998,647.6361126000002,648.3539265,None,647.6527843000003,648.3372240999997,648.8545513999998,None,left,1,0.33414970000012545,648.8545513999998,None,None,647.6527843000003,648.8378864000006,0.511244400000578,0.594492000000173,1.713002200000119,1.796294200000375,,,,,nikita_3,001,2020_Feb_13_1331,posner,3.1.5,59.925883666929955,
-0.5,0,1,left,1,3,2,0,2,0,8,2,66,0,,,,,,,,,649.2056565000003,649.7056837999999,650.4232782999998,None,649.7221509999999,650.4067092000005,650.9241913000005,None,left,1,0.3125366000003851,650.9241913000005,None,None,649.7221509999999,650.9072676000005,0.5118165000003501,0.595149499999934,1.7133873000002495,1.7968150000006062,,,,,nikita_3,001,2020_Feb_13_1331,posner,3.1.5,59.925883666929955,
-0.5,0,1,left,1,3,2,0,2,0,8,3,67,1,,,,,,,,,651.2578082999999,651.7585768999998,652.4760219999998,None,651.7750658000004,652.4593051000002,652.9769047,None,left,1,0.34010489999946003,652.9769047,None,None,651.7750658000004,652.9598640000004,0.512377999999444,0.5957441999998991,1.7136504999998579,1.797242899999219,,,,,nikita_3,001,2020_Feb_13_1331,posner,3.1.5,59.925883666929955,
0.5,0,0,right,1,4,2,0,2,0,8,4,68,3,,,,,,,,,653.3447747999999,653.8446601000005,654.5625372000004,None,653.8614119000003,654.5456565000004,655.0630505999998,None,right,1,0.28576690000045346,655.0630505999998,None,None,653.8614119000003,655.0463540000001,0.5113293000003978,0.5949489000004178,1.7130048999997598,1.7963785000001735,,,,,nikita_3,001,2020_Feb_13_1331,posner,3.1.5,59.925883666929955,
-0.5,0,1,left,1,3,2,0,2,0,8,5,69,2,,,,,,,,,655.3646263999999,655.8640921000006,656.5816693000006,None,655.8806681000005,656.5649862,657.0823595000002,None,left,1,0.27439159999994445,657.0823595000002,None,None,655.8806681000005,657.0658143999999,0.5113512999996601,0.5948867999995855,1.7130559999995967,1.7963932999991812,,,,,nikita_3,001,2020_Feb_13_1331,posner,3.1.5,59.925883666929955,
0.5,180,1,right,2,4,2,0,2,0,8,6,70,6,,,,,,,,,657.3836403000005,657.8834733000003,658.6011718999998,None,657.9000462000004,658.5843818000003,659.1017517999999,None,right,1,0.3108975000004648,659.1017517999999,None,None,657.9000462000004,659.0850449999998,0.5116711999999097,0.5952914999998029,1.7132235999997647,1.7966593000001012,,,,,nikita_3,001,2020_Feb_13_1331,posner,3.1.5,59.925883666929955,
0.5,180,1,right,2,4,2,0,2,0,8,7,71,7,,,,,,,,,659.4361663999998,659.9364136000004,660.6541508,None,659.9530755000005,660.6372972999998,661.1548192999999,None,right,1,0.2900203999997757,661.1548192999999,None,None,659.9530755000005,661.1382033999998,0.5117704000003869,0.594878100000642,1.713545100000374,1.7968614000001253,,,,,nikita_3,001,2020_Feb_13_1331,posner,3.1.5,59.925883666929955,
-0.5,0,1,left,1,3,2,0,2,0,9,0,72,2,,,,,,,,,661.4726774999999,661.9725251,662.6900583000006,None,661.9889841000004,662.6733730000005,663.1907655000005,None,left,1,0.25400880000051984,663.1907655000005,None,None,661.9889841000004,663.1741292000006,0.511719200000698,0.5952495000001363,1.7133088000000498,1.7967109000001074,,,,,nikita_3,001,2020_Feb_13_1331,posner,3.1.5,59.925883666929955,
