targetX,cueOri,congr,corrAns,pin_cue,pin_target,block.thisRepN,block.thisTrialN,block.thisN,block.thisIndex,posner_task.thisRepN,posner_task.thisTrialN,posner_task.thisN,posner_task.thisIndex,port_start_block.started,port_start_block.stopped,text_2.started,text_2.stopped,p_port.started,p_port.stopped,text.started,text.stopped,fixation_1.started,fixation_1.stopped,fixation_2.started,fixation_2.stopped,cue.started,cue.stopped,target.started,target.stopped,correct_key_resp.keys,correct_key_resp.corr,correct_key_resp.rt,correct_key_resp.started,correct_key_resp.stopped,early_resp.keys,early_resp.started,early_resp.stopped,trigger_cue.started,trigger_cue.stopped,trigger_target.started,trigger_target.stopped,early_resp.rt,break_text.started,break_text.stopped,end_port.started,end_port.stopped,participant,session,date,expName,psychopyVersion,frameRate,
0.5,180,1,right,2,4,0,0,0,0,0,0,0,7,1.8400000044493936e-05,0.09222039999986009,24.979839900000115,None,1.4400000509340316e-05,0.09974070000043866,26.865349000000606,None,27.202919300000758,27.700095900000633,28.41779829999996,None,27.71690320000016,28.400950100000045,28.918449800000417,None,right,1,0.3475908000000345,28.918449800000417,None,None,27.71690320000016,28.901544100000137,0.506486500000392,0.5899933000000601,1.707911200000126,1.791411600000174,,,,,,prithik_1,001,2020_Feb_05_1222,posner,3.1.5,59.89645101548982,
0.5,180,1,right,2,4,0,0,0,0,0,1,1,5,,,,,,,,,29.28767880000032,29.786039900000105,30.503867700000228,None,29.802758000000722,30.4872318000007,31.004572400000143,None,right,1,0.3013760000003458,31.004572400000143,None,None,29.802758000000722,30.987910800000463,0.5099612999993042,0.5936695000000327,1.711806099999194,1.7950601999991704,,,,,,prithik_1,001,2020_Feb_05_1222,posner,3.1.5,59.89645101548982,
-0.5,0,1,left,1,3,0,0,0,0,0,2,2,0,,,,,,,,,31.321972100000494,31.822169100000792,32.54003260000081,None,31.839113900000484,32.52318220000052,33.04073200000039,None,left,1,0.3291735000002518,33.04073200000039,None,None,31.839113900000484,33.02383439999994,0.5119350000004488,0.5954010000004928,1.713581100000738,1.7975427000001218,,,,,,prithik_1,001,2020_Feb_05_1222,posner,3.1.5,59.89645101548982,
-0.5,180,0,left,2,3,0,0,0,0,0,3,3,4,,,,,,,,,33.39166770000065,33.89178979999997,34.6096804000008,None,33.90858710000066,34.592755800000305,35.11047620000045,None,left,1,0.3554346999999325,35.11047620000045,None,None,33.90858710000066,35.093399400000635,0.5117899000006219,0.59521980000045,1.7133785000005446,1.7968780000001061,,,,,,prithik_1,001,2020_Feb_05_1222,posner,3.1.5,59.89645101548982,
-0.5,0,1,left,1,3,0,0,0,0,0,4,4,1,,,,,,,,,35.49479950000023,35.99472690000039,36.71236790000057,None,36.01156130000072,36.69565330000023,37.21316480000041,None,left,1,0.37288139999964187,37.21316480000041,None,None,36.01156130000072,37.196492500000204,0.5117103000002317,0.5952188999999635,1.7134169000000838,1.796907299999475,,,,,,prithik_1,001,2020_Feb_05_1222,posner,3.1.5,59.89645101548982,
0.5,180,1,right,2,4,0,0,0,0,0,5,5,6,,,,,,,,,37.614499700000124,38.114226300000155,38.831939200000306,None,38.13107080000009,38.81522580000001,39.33254410000063,None,right,1,0.301325899999938,39.33254410000063,None,None,38.13107080000009,39.31606080000074,0.5116814000002705,0.5953669999998965,1.713494399999945,1.7967909999997573,,,,,,prithik_1,001,2020_Feb_05_1222,posner,3.1.5,59.89645101548982,
-0.5,0,1,left,1,3,0,0,0,0,0,6,6,2,,,,,,,,,39.65021180000076,40.150587500000256,40.8682060000001,None,40.16703080000025,40.8513937000007,41.36892930000067,None,left,1,0.32891399999971327,41.36892930000067,None,None,40.16703080000025,41.352071199999955,0.5121337000000494,0.5953300000001036,1.7136073000001488,1.797181100000671,,,,,,prithik_1,001,2020_Feb_05_1222,posner,3.1.5,59.89645101548982,
0.5,0,0,right,1,4,0,0,0,0,0,7,7,3,,,,,,,,,41.720187000000806,42.22021230000064,42.937656200000674,None,42.23666360000061,42.920888300000115,43.43835440000021,None,right,1,0.3236378000001423,43.43835440000021,None,None,42.23666360000061,43.42144720000033,0.5116661000001841,0.5947890999996162,1.7128724000003785,1.7965305999996417,,,,,,prithik_1,001,2020_Feb_05_1222,posner,3.1.5,59.89645101548982,
-0.5,0,1,left,1,3,0,0,0,0,1,0,8,0,,,,,,,,,43.78941269999996,44.28953470000033,45.0073366000006,None,44.30685090000043,44.9905974000003,45.507757700000184,None,left,1,0.3501359000001685,45.507757700000184,None,None,44.30685090000043,45.49107980000008,0.5118879000001471,0.5951180000001841,1.7134052999999767,1.7966821999998501,,,,,,prithik_1,001,2020_Feb_05_1222,posner,3.1.5,59.89645101548982,
0.5,0,0,right,1,4,0,0,0,0,1,1,9,3,,,,,,,,,45.875849500000186,46.37552010000036,47.0932358,None,46.39218980000078,47.07661069999995,47.5939285000004,None,right,1,0.2959037000000535,47.5939285000004,None,None,46.39218980000078,47.57730850000007,0.5112520000002405,0.5949024000001373,1.7130095000002257,1.7966270000006261,,,,,,prithik_1,001,2020_Feb_05_1222,posner,3.1.5,59.89645101548982,
0.5,180,1,right,2,4,0,0,0,0,1,2,10,6,,,,,,,,,47.91286089999994,48.41186780000044,49.129452300000594,None,48.42856440000014,49.11260990000028,49.63002400000005,None,right,1,0.3399186999995436,49.63002400000005,None,None,48.42856440000014,49.61331270000028,0.5114750000002459,0.5951078999996753,1.7128979999997682,1.7966809999998077,,,,,,prithik_1,001,2020_Feb_05_1222,posner,3.1.5,59.89645101548982,
0.5,180,1,right,2,4,0,0,0,0,1,3,11,7,,,,,,,,,49.998171000000184,50.49803300000076,51.215675100000226,None,50.514777200000026,51.19911990000037,51.71645119999994,None,right,1,0.3174645999997665,51.71645119999994,None,None,50.514777200000026,51.69987690000016,0.5115538000000015,0.5948145000002114,1.7133742999994865,1.7964777999995931,,,,,,prithik_1,001,2020_Feb_05_1222,posner,3.1.5,59.89645101548982,
0.5,180,1,right,2,4,0,0,0,0,1,4,12,5,,,,,,,,,52.05104680000022,52.55088390000037,53.26848280000013,None,52.56754660000024,53.25163169999996,53.76923710000028,None,right,1,0.34459100000003673,53.76923710000028,None,None,52.56754660000024,53.75231940000049,0.5115286999998716,0.5951836999993247,1.712951299999986,1.7963871000001745,,,,,,prithik_1,001,2020_Feb_05_1222,posner,3.1.5,59.89645101548982,
-0.5,0,1,left,1,3,0,0,0,0,1,5,13,2,,,,,,,,,54.1374364000003,54.63704710000002,55.354873500000394,None,54.65357089999998,55.33819990000029,55.85556429999997,None,left,1,0.31424090000018623,55.85556429999997,None,None,54.65357089999998,55.83858340000006,0.5113603999998304,0.5948499999994965,1.712883299999703,1.79618709999977,,,,,,prithik_1,001,2020_Feb_05_1222,posner,3.1.5,59.89645101548982,
-0.5,0,1,left,1,3,0,0,0,0,1,6,14,1,,,,,,,,,56.189908400000604,56.68980780000038,57.40750920000028,None,56.70643800000016,57.39099090000036,57.9083868000007,None,left,1,0.30942119999963325,57.9083868000007,None,None,56.70643800000016,57.89153729999998,0.5116095000003043,0.5950148000001718,1.713355099999717,1.7966470999999729,,,,,,prithik_1,001,2020_Feb_05_1222,posner,3.1.5,59.89645101548982,
-0.5,180,0,left,2,3,0,0,0,0,1,7,15,4,,,,,,,,,58.241943700000775,58.74267500000042,59.46045940000022,None,58.75938980000046,59.443555100000594,59.96099130000039,None,left,1,0.3448422000001301,59.96099130000039,None,None,58.75938980000046,59.94426560000011,0.5123945000004824,0.5958608000000822,1.7139688999995997,1.797551200000271,,,,,,prithik_1,001,2020_Feb_05_1222,posner,3.1.5,59.89645101548982,
-0.5,180,0,left,2,3,0,0,0,0,2,0,16,4,,,,,,,,,60.32907230000001,60.82896290000008,61.54690420000043,None,60.84560810000039,61.53000229999998,62.047166800000014,None,left,1,0.362546299999849,62.047166800000014,None,None,60.84560810000039,62.03040890000011,0.5116659999994226,0.5949919999993654,1.7130944000000454,1.796513799999957,,,,,,prithik_1,001,2020_Feb_05_1222,posner,3.1.5,59.89645101548982,
-0.5,0,1,left,1,3,0,0,0,0,2,1,17,1,,,,,,,,,62.43164870000055,62.931798399999934,63.64932950000002,None,62.94871950000015,63.63267310000083,64.15036830000008,None,left,1,0.3474249000000782,64.15036830000008,None,None,62.94871950000015,64.13337620000038,0.5118241000000125,0.5952104999996664,1.7133837999999741,1.797023099999933,,,,,,prithik_1,001,2020_Feb_05_1222,posner,3.1.5,59.89645101548982,
0.5,180,1,right,2,4,0,0,0,0,2,2,18,6,,,,,,,,,64.51797590000024,65.01800640000056,65.73554250000052,None,65.0346840000002,65.71908880000046,66.23646250000002,None,right,1,0.3092976000007184,66.23646250000002,None,None,65.0346840000002,66.21954170000026,0.5114260999998805,0.5947112000003472,1.71294829999988,1.796416300000601,,,,,,prithik_1,001,2020_Feb_05_1222,posner,3.1.5,59.89645101548982,
0.5,180,1,right,2,4,0,0,0,0,2,3,19,5,,,,,,,,,66.57063560000006,67.07063900000048,67.78855770000064,None,67.08737590000055,67.77152250000017,68.28904620000048,None,right,1,0.37669979999918723,68.28904620000048,None,None,67.08737590000055,68.2722074000003,0.5114987999995719,0.5951973999999609,1.7130499999993845,1.7969426999998177,,,,,,prithik_1,001,2020_Feb_05_1222,posner,3.1.5,59.89645101548982,
0.5,180,1,right,2,4,0,0,0,0,2,4,20,7,,,,,,,,,68.69054030000007,69.19035130000066,69.90829870000016,None,69.20710980000058,69.89120260000072,70.40873060000013,None,right,1,0.417043399999784,70.40873060000013,None,None,69.20710980000058,70.39176950000001,0.5116513000002669,0.5949752999995326,1.7130545999998503,1.7966753000000608,,,,,,prithik_1,001,2020_Feb_05_1222,posner,3.1.5,59.89645101548982,
0.5,0,0,right,1,4,0,0,0,0,2,5,21,3,,,,,,,,,70.8438754000008,71.34319390000019,72.06101130000025,None,71.36008790000051,72.04427740000028,72.56167600000026,None,right,1,0.33607449999999517,72.56167600000026,None,None,71.36008790000051,72.54500850000022,0.5112626000000091,0.594879100000071,1.7130560000005062,1.7964614000002257,,,,,,prithik_1,001,2020_Feb_05_1222,posner,3.1.5,59.89645101548982,
-0.5,0,1,left,1,3,0,0,0,0,2,6,22,0,,,,,,,,,72.92942760000005,73.42958720000024,74.14737280000008,None,73.44634970000061,74.13063420000071,74.64804300000014,None,left,1,0.31369079999967653,74.64804300000014,None,None,73.44634970000061,74.63110940000024,0.5115464000000429,0.5948573000005126,1.7130398999997851,1.7964491000002454,,,,,,prithik_1,001,2020_Feb_05_1222,posner,3.1.5,59.89645101548982,
-0.5,0,1,left,1,3,0,0,0,0,2,7,23,2,,,,,,,,,74.98232989999997,75.4822879000003,76.19998720000058,None,75.49918610000077,76.1832215000004,76.70046820000061,None,left,1,0.469277800000782,76.70046820000061,None,None,75.49918610000077,76.68391969999993,0.5115310000001045,0.5951383000001442,1.713178400000288,1.796670400000039,,,,,,prithik_1,001,2020_Feb_05_1222,posner,3.1.5,59.89645101548982,
0.5,180,1,right,2,4,0,0,0,0,3,0,24,7,,,,,,,,,77.18555660000038,77.68556720000015,78.40297890000056,None,77.7019478000002,78.38640720000058,78.90372990000014,77.18555660000038,right,1,0.32195519999913813,78.90372990000014,None,None,77.7019478000002,78.88714040000013,0.5116357999995671,0.5949808999994275,1.713190599999507,1.7966340999992099,,,,,,prithik_1,001,2020_Feb_05_1222,posner,3.1.5,59.89645101548982,
0.5,180,1,right,2,4,0,0,0,0,3,1,25,6,,,,,,,,,79.25495990000036,79.7548738000005,80.47233310000047,None,79.77171309999994,80.45588870000029,80.9732511000002,None,right,1,0.332510899999761,80.9732511000002,None,None,79.77171309999994,80.95665360000021,0.5115286000000197,0.5950067999992825,1.7132862999997087,1.7967134999998962,,,,,,prithik_1,001,2020_Feb_05_1222,posner,3.1.5,59.89645101548982,
-0.5,180,0,left,2,3,0,0,0,0,3,2,26,4,,,,,,,,,81.32491680000021,81.82444550000037,82.54183830000056,None,81.8409085000003,82.5255614000007,83.04260390000036,None,left,1,0.3270462000000407,83.04260390000036,None,None,81.8409085000003,83.02624640000067,0.511464100000012,0.5948809999999867,1.7132509000002756,1.7964579999998023,,,,,,prithik_1,001,2020_Feb_05_1222,posner,3.1.5,59.89645101548982,
-0.5,0,1,left,1,3,0,0,0,0,3,3,27,1,,,,,,,,,83.3940749000003,83.89371430000028,84.61152160000074,None,83.91064490000008,84.59492520000003,85.11198779999995,None,left,1,0.3618364999992991,85.11198779999995,None,None,83.91064490000008,85.09550220000074,0.5114160000002812,0.5952612999999474,1.7131886999995913,1.7967258999997284,,,,,,prithik_1,001,2020_Feb_05_1222,posner,3.1.5,59.89645101548982,
-0.5,0,1,left,1,3,0,0,0,0,3,4,28,0,,,,,,,,,85.4972985000004,85.99688220000007,86.71444530000008,None,86.01360620000014,86.6978665000006,87.21524050000062,None,left,1,0.3383564000005208,87.21524050000062,None,None,86.01360620000014,87.19851650000055,0.5113098000001628,0.5947926999997435,1.7129261999998562,1.7961981999997079,,,,,,prithik_1,001,2020_Feb_05_1222,posner,3.1.5,59.89645101548982,
-0.5,0,1,left,1,3,0,0,0,0,3,5,29,2,,,,,,,,,87.5825388000003,88.08298670000022,88.80053279999993,None,88.09967860000052,88.78396900000007,89.30114950000007,None,left,1,0.34061879999990197,89.30114950000007,None,None,88.09967860000052,89.28478750000068,0.5116429999998218,0.5950950999995257,1.7134196999995766,1.796698699999979,,,,,,prithik_1,001,2020_Feb_05_1222,posner,3.1.5,59.89645101548982,
0.5,0,0,right,1,4,0,0,0,0,3,6,30,3,,,,,,,,,89.66917130000002,90.16941060000045,90.88691180000023,None,90.18595710000045,90.8703187000001,91.38775010000063,91.87144520000038,right,1,0.5659917000002679,91.38775010000063,None,None,90.18595710000045,91.37078880000081,0.5119094000001496,0.5950860000002649,1.7132724000002781,1.7968117999998867,,,,,,prithik_1,001,2020_Feb_05_1222,posner,3.1.5,59.89645101548982,
0.5,180,1,right,2,4,0,0,0,0,3,7,31,5,,,,,,,,,91.97207600000002,92.47236790000079,93.19007820000024,None,92.48915710000074,93.17349510000076,93.69060150000041,None,right,1,0.3030361000000994,93.69060150000041,None,None,92.48915710000074,93.67394390000027,0.5119496999996045,0.5954857999995511,1.7135233999997581,1.7971502999998847,,,,,,prithik_1,001,2020_Feb_05_1222,posner,3.1.5,59.89645101548982,
0.5,180,1,right,2,4,0,0,0,0,4,0,32,7,,,,,,,,,94.02540399999998,94.52517960000023,95.24267770000006,None,94.54165880000073,95.22632539999995,95.74354740000035,None,right,1,0.29806939999980386,95.74354740000035,None,None,94.54165880000073,95.72700350000014,0.5116742000000158,0.5952837000004365,1.7134713000004922,1.796760400000494,,,,,,prithik_1,001,2020_Feb_05_1222,posner,3.1.5,59.89645101548982,
0.5,0,0,right,1,4,0,0,0,0,4,1,33,3,,,,,,,,,96.06163310000011,96.56129620000047,97.27910020000036,None,96.57799870000053,97.26224580000053,97.77966780000042,None,right,1,0.3342248999997537,97.77966780000042,None,None,96.57799870000053,97.76274050000029,0.5113896999991994,0.5947896999996374,1.712817399999949,1.7966599999999744,,,,,,prithik_1,001,2020_Feb_05_1222,posner,3.1.5,59.89645101548982,
-0.5,0,1,left,1,3,0,0,0,0,4,2,34,1,,,,,,,,,98.13039900000058,98.63053540000055,99.34842350000054,None,98.64756350000062,99.33181250000052,99.84929040000043,None,left,1,0.24823990000004414,99.84929040000043,None,None,98.64756350000062,99.83229449999999,0.5119057000001703,0.5955515999994532,1.7136497999999847,1.7975393999995504,,,,,,prithik_1,001,2020_Feb_05_1222,posner,3.1.5,59.89645101548982,
-0.5,180,0,left,2,3,0,0,0,0,4,3,35,4,,,,,,,,,100.11680590000014,100.61706480000066,101.33459500000026,None,100.63334610000038,101.31786050000028,101.83528220000062,102.31943140000021,right,0,0.4944742999996379,101.83528220000062,None,None,100.63334610000038,101.81847270000071,0.5116468000005625,0.5947269000007509,1.7130347000002075,1.7966116000006878,,,,,,prithik_1,001,2020_Feb_05_1222,posner,3.1.5,59.89645101548982,
0.5,180,1,right,2,4,0,0,0,0,4,4,36,5,,,,,,,,,102.35376600000018,102.8531036000004,103.57083950000015,None,102.87014830000044,103.55402470000081,104.07139830000051,None,right,1,0.29026080000039656,104.07139830000051,None,None,102.87014830000044,104.05513430000065,0.5112393999997948,0.5948058000003584,1.713281299999835,1.7965142000002743,,,,,,prithik_1,001,2020_Feb_05_1222,posner,3.1.5,59.89645101548982,
-0.5,0,1,left,1,3,0,0,0,0,4,5,37,0,,,,,,,,,104.38956400000006,104.88949649999995,105.60735190000014,None,104.90614249999999,105.59029780000037,106.10776250000072,None,left,1,0.26174039999932575,106.10776250000072,None,None,104.90614249999999,106.0909859000003,0.5115476000000854,0.5947303000002648,1.713019599999825,1.7968829999999798,,,,,,prithik_1,001,2020_Feb_05_1222,posner,3.1.5,59.89645101548982,
0.5,180,1,right,2,4,0,0,0,0,4,6,38,6,,,,,,,,,106.39165070000035,106.89195070000005,107.60992330000045,None,106.9089154000003,107.59299100000044,108.11062990000028,None,right,1,0.28296750000026805,108.11062990000028,None,None,106.9089154000003,108.0937556000008,0.5120164999998451,0.5957637000001341,1.7138028999997914,1.7973932000004424,,,,,,prithik_1,001,2020_Feb_05_1222,posner,3.1.5,59.89645101548982,
-0.5,0,1,left,1,3,0,0,0,0,4,7,39,2,,,,,,,,,108.41169200000058,108.91148900000007,109.62943930000074,None,108.92824820000078,109.61220380000032,110.12992780000059,None,left,1,0.27147189999959664,110.12992780000059,None,None,108.92824820000078,110.11310050000066,0.5111785999997664,0.594759200000226,1.712768800000049,1.7963270999998713,,,,,,prithik_1,001,2020_Feb_05_1222,posner,3.1.5,59.89645101548982,
-0.5,0,1,left,1,3,0,0,0,0,5,0,40,2,,,,,,,,,110.43078760000026,110.93099320000056,111.64879350000047,None,110.94792310000048,111.63176999999996,112.14944270000069,None,left,1,0.27606680000008055,112.14944270000069,None,None,110.94792310000048,112.1325753000001,0.5116558000008808,0.5953812000007019,1.713200200000756,1.796880400000191,,,,,,prithik_1,001,2020_Feb_05_1222,posner,3.1.5,59.89645101548982,
-0.5,0,1,left,1,3,0,0,0,0,5,1,41,0,,,,,,,,,112.45068710000032,112.95051020000028,113.66825779999999,None,112.96715399999994,113.65143750000061,114.16894560000037,None,left,1,0.35253000000011525,114.16894560000037,None,None,112.96715399999994,114.15220730000055,0.5116831000004822,0.5952007000005324,1.7133583000004364,1.796718100000362,,,,,,prithik_1,001,2020_Feb_05_1222,posner,3.1.5,59.89645101548982,
0.5,180,1,right,2,4,0,0,0,0,5,2,42,5,,,,,,,,,114.55340580000029,115.05314290000024,115.77089230000001,None,115.07019880000007,115.75426200000038,116.27145010000004,None,right,1,0.30602170000020124,116.27145010000004,None,None,115.07019880000007,116.25501770000028,0.5114588000005824,0.5950614000003043,1.7133294000004753,1.7969622999999046,,,,,,prithik_1,001,2020_Feb_05_1222,posner,3.1.5,59.89645101548982,
0.5,0,0,right,1,4,0,0,0,0,5,3,43,3,,,,,,,,,116.60638020000079,117.10642009999992,117.82372380000015,None,117.12281170000006,117.80731060000016,118.32448400000067,None,right,1,0.30097569999998086,118.32448400000067,None,None,117.12281170000006,118.30792360000032,0.5116476000002876,0.5949633999998696,1.713133000000198,1.7964916999999332,,,,,,prithik_1,001,2020_Feb_05_1222,posner,3.1.5,59.89645101548982,
-0.5,0,1,left,1,3,0,0,0,0,5,4,44,1,,,,,,,,,118.64174060000005,119.14209540000047,119.86014180000075,None,119.15895080000064,119.84322440000051,120.36099370000011,None,left,1,0.24049569999988307,120.36099370000011,None,None,119.15895080000064,120.34385270000075,0.5119542000002184,0.5956262999998216,1.7136931000004552,1.7973750999999538,,,,,,prithik_1,001,2020_Feb_05_1222,posner,3.1.5,59.89645101548982,
-0.5,180,0,left,2,3,0,0,0,0,5,5,45,4,,,,,,,,,120.6281781000007,121.12835240000004,121.84623040000042,None,121.14514580000014,121.82935290000023,122.34686779999993,None,left,1,0.3426339999996344,122.34686779999993,None,None,121.14514580000014,122.33012030000009,0.5116617000003316,0.5953177000001233,1.71341670000038,1.7974182000007204,,,,,,prithik_1,001,2020_Feb_05_1222,posner,3.1.5,59.89645101548982,
0.5,180,1,right,2,4,0,0,0,0,5,6,46,7,,,,,,,,,122.71472730000005,123.21476180000082,123.93226350000077,None,123.23106550000011,123.9160266000008,124.43293059999996,None,right,1,0.27259329999924375,124.43293059999996,None,None,123.23106550000011,124.41663480000079,0.5119159000005311,0.5950575000006211,1.7137663000003158,1.7969492000001992,,,,,,prithik_1,001,2020_Feb_05_1222,posner,3.1.5,59.89645101548982,
0.5,180,1,right,2,4,0,0,0,0,5,7,47,6,,,,,,,,,124.73390290000043,125.23396370000046,125.95159710000007,None,125.25073710000015,125.93512770000052,126.45219830000042,None,right,1,0.3252472000003763,126.45219830000042,None,None,125.25073710000015,126.43580480000037,0.5114431000001787,0.5950136000001294,1.7132615000000442,1.7966171999996732,,,,,,prithik_1,001,2020_Feb_05_1222,posner,3.1.5,59.89645101548982,
-0.5,0,1,left,1,3,0,0,0,0,6,0,48,1,,,,,,,,,126.80359470000076,127.30357510000067,128.020939,None,127.32034060000024,128.00450470000033,128.52182390000053,None,left,1,0.2955492000000959,128.52182390000053,None,None,127.32034060000024,128.5053198000005,0.5115355999996609,0.5950462000000698,1.7132510000001275,1.7966351999994004,,,,,,prithik_1,001,2020_Feb_05_1222,posner,3.1.5,59.89645101548982,
-0.5,0,1,left,1,3,0,0,0,0,6,1,49,2,,,,,,,,,128.83981920000042,129.33990190000077,130.0575202,None,129.35634500000015,130.04074970000056,130.55828940000083,None,left,1,0.3711505000001125,130.55828940000083,None,None,129.35634500000015,130.5413894000003,0.5117004000003362,0.5949738999997862,1.7131796000003305,1.796684500000083,,,,,,prithik_1,001,2020_Feb_05_1222,posner,3.1.5,59.89645101548982,
-0.5,180,0,left,2,3,0,0,0,0,6,2,50,4,,,,,,,,,130.95898170000055,131.4594506000003,132.17708089999996,None,131.47588220000034,132.16030950000004,132.6777428000005,None,left,1,0.4596274999994421,132.6777428000005,None,right,131.47588220000034,132.6609655000002,0.5119927000005191,0.59517120000055,1.7134882000000289,1.7971465000000535,1.0694824000001972,,,,,prithik_1,001,2020_Feb_05_1222,posner,3.1.5,59.89645101548982,
-0.5,0,1,left,1,3,0,0,0,0,6,3,51,0,,,,,,,,,133.1619911000007,133.66207320000012,134.37993590000042,None,133.67893970000023,134.36304999999993,134.8812222000006,135.36472910000066,left,1,0.6001733000002787,134.8812222000006,None,None,133.67893970000023,134.86361390000002,0.5115361999996821,0.595249199999671,1.713062899999386,1.7970667999998113,,,,,,prithik_1,001,2020_Feb_05_1222,posner,3.1.5,59.89645101548982,
0.5,180,1,right,2,4,0,0,0,0,6,4,52,7,,,,,,,,,135.49894930000028,135.99910490000002,136.71676050000042,None,136.0154878000003,136.6999220000007,137.21744949999993,None,right,1,0.3678503000001001,137.21744949999993,None,None,136.0154878000003,137.2006667000005,0.5115582000007635,0.5948620000008304,1.7131306000001132,1.7967709000004106,,,,,,prithik_1,001,2020_Feb_05_1222,posner,3.1.5,59.89645101548982,
0.5,180,1,right,2,4,0,0,0,0,6,5,53,5,,,,,,,,,137.6018109000006,138.10202759999993,138.81963970000015,None,138.11869110000043,138.80293070000062,139.32017040000028,None,right,1,0.3531337000003987,139.32017040000028,None,None,138.11869110000043,139.30348850000064,0.5120226999997612,0.5955338000003394,1.713453500000469,1.7969316999997318,,,,,,prithik_1,001,2020_Feb_05_1222,posner,3.1.5,59.89645101548982,
0.5,0,0,right,1,4,0,0,0,0,6,6,54,3,,,,,,,,,139.70573680000052,140.2049678000003,140.92192630000045,None,140.22157320000042,140.9057494000008,141.42294910000055,None,right,1,0.4504696000003605,141.42294910000055,None,None,140.22157320000042,141.4064825000005,0.511588400000619,0.5949471000003541,1.7131081000006816,1.7966341999999713,,,,,,prithik_1,001,2020_Feb_05_1222,posner,3.1.5,59.89645101548982,
0.5,180,1,right,2,4,0,0,0,0,6,7,55,6,,,,,,,,,141.89169149999998,142.3910061000006,143.10866720000013,None,142.40770000000066,143.09169030000066,143.60961190000035,None,right,1,0.3597484000001714,143.60961190000035,None,None,142.40770000000066,143.59286710000015,0.5113185999998677,0.5947562999999718,1.7131576000001587,1.7966795000002094,,,,,,prithik_1,001,2020_Feb_05_1222,posner,3.1.5,59.89645101548982,
-0.5,0,1,left,1,3,0,0,0,0,7,0,56,0,,,,,,,,,143.9943931000007,144.49403090000033,145.21164370000042,None,144.51065710000057,145.1950779000008,145.71232320000036,None,left,1,0.3769056000001001,145.71232320000036,None,None,144.51065710000057,145.69561500000054,0.5116537000003518,0.5950570000004518,1.7131908000001204,1.7968472000002293,,,,,,prithik_1,001,2020_Feb_05_1222,posner,3.1.5,59.89645101548982,
0.5,180,1,right,2,4,0,0,0,0,7,1,57,5,,,,,,,,,146.11379209999996,146.61348530000032,147.33099350000066,None,146.6301069000001,147.31455480000022,147.8317323000001,None,right,1,0.28981539999949746,147.8317323000001,None,None,146.6301069000001,147.81515480000053,0.5113672999996197,0.5948268000001917,1.713007700000162,1.7965587999997297,,,,,,prithik_1,001,2020_Feb_05_1222,posner,3.1.5,59.89645101548982,
0.5,180,1,right,2,4,0,0,0,0,7,2,58,6,,,,,,,,,148.14928260000033,148.64970500000072,149.36750720000055,None,148.66671560000032,149.35084780000034,149.86820420000004,None,right,1,0.3172292999997808,149.86820420000004,None,None,148.66671560000032,149.8512496000003,0.5120514999998704,0.5954717999993591,1.713577799999257,1.797133600000052,,,,,,prithik_1,001,2020_Feb_05_1222,posner,3.1.5,59.89645101548982,
-0.5,180,0,left,2,3,0,0,0,0,7,3,59,4,,,,,,,,,150.20274289999998,150.70246710000083,151.4200681000002,None,150.7192472000006,151.4035001000002,151.92094200000065,None,left,1,0.30440100000032544,151.92094200000065,None,None,150.7192472000006,151.90437680000014,0.5113566999998511,0.594666099999813,1.7132446000005075,1.796522200000254,,,,,,prithik_1,001,2020_Feb_05_1222,posner,3.1.5,59.89645101548982,
-0.5,0,1,left,1,3,0,0,0,0,7,4,60,1,,,,,,,,,152.25506459999997,152.7555314000001,153.47305570000026,None,152.77196900000035,153.4561517000002,153.97365250000075,None,left,1,0.32367470000008325,153.97365250000075,None,None,152.77196900000035,153.9572302000006,0.5125468999995064,0.5957392999998774,1.714233400000012,1.7973287999993772,,,,,,prithik_1,001,2020_Feb_05_1222,posner,3.1.5,59.89645101548982,
0.5,0,0,right,1,4,0,0,0,0,7,5,61,3,,,,,,,,,154.32495220000055,154.82490750000034,155.54237180000018,None,154.84144620000006,155.52571920000082,156.0430763000004,None,right,1,0.2542318999994677,156.0430763000004,None,None,154.84144620000006,156.02660060000017,0.5121486999996705,0.5955452999996851,1.7138162999999622,1.797150800000054,,,,,,prithik_1,001,2020_Feb_05_1222,posner,3.1.5,59.89645101548982,
0.5,180,1,right,2,4,0,0,0,0,7,6,62,7,,,,,,,,,156.32741170000008,156.82761430000028,157.5453602000007,None,156.84439620000012,157.52871800000048,158.04619940000066,None,right,1,0.3150548000003255,158.04619940000066,None,None,156.84439620000012,158.0294418000003,0.5122526999994079,0.5952996999994866,1.7140585999995892,1.7973709999996572,,,,,,prithik_1,001,2020_Feb_05_1222,posner,3.1.5,59.89645101548982,
-0.5,0,1,left,1,3,0,0,0,0,7,7,63,2,,,,,,,,,158.37930760000017,158.88038600000073,159.59842449999996,None,158.89733530000012,159.5810121000004,160.09856840000066,None,left,1,0.2626589999999851,160.09856840000066,None,None,158.89733530000012,160.0816831000002,0.5126410000002579,0.5960004999997182,1.7139141999996355,1.797694899999442,,,,,,prithik_1,001,2020_Feb_05_1222,posner,3.1.5,59.89645101548982,
0.5,0,0,right,1,4,0,0,0,0,8,0,64,3,,,,,,,,,160.3835349000001,160.88307030000033,161.60050970000066,None,160.9000199000002,161.5840315000005,162.10141120000026,None,right,1,0.3399985000005472,162.10141120000026,None,None,160.9000199000002,162.08472680000068,0.5113832000006369,0.5950677999999243,1.713016300000163,1.7968319999999949,,,,,,prithik_1,001,2020_Feb_05_1222,posner,3.1.5,59.89645101548982,
-0.5,0,1,left,1,3,0,0,0,0,8,1,65,1,,,,,,,,,162.46908940000048,162.96982070000013,163.68724350000048,None,162.98577520000072,163.6702608000005,164.1872800000001,None,left,1,0.23780230000011215,164.1872800000001,None,None,162.98577520000072,164.17115960000046,0.5119310999998561,0.5948440000001938,1.7132228000000396,1.7971631000000343,,,,,,prithik_1,001,2020_Feb_05_1222,posner,3.1.5,59.89645101548982,
0.5,180,1,right,2,4,0,0,0,0,8,2,66,5,,,,,,,,,164.4567730000008,164.95478600000024,165.67259720000038,None,164.9722167,165.65643160000036,166.17380950000006,None,right,1,0.2835810999995374,166.17380950000006,None,None,164.9722167,166.15713570000025,0.510436600000503,0.5949465000003329,1.7127669000001333,1.7960104000003412,,,,,,prithik_1,001,2020_Feb_05_1222,posner,3.1.5,59.89645101548982,
-0.5,0,1,left,1,3,0,0,0,0,8,3,67,0,,,,,,,,,166.47570970000015,166.9746315000002,167.69211310000082,None,166.99122800000077,167.67570830000022,168.19294979999995,None,left,1,0.3201347000003807,168.19294979999995,None,None,166.99122800000077,168.1762301000008,0.5106398000007175,0.5942653000001883,1.7122214000000895,1.7959597000008216,,,,,,prithik_1,001,2020_Feb_05_1222,posner,3.1.5,59.89645101548982,
-0.5,180,0,left,2,3,0,0,0,0,8,4,68,4,,,,,,,,,168.54387769999994,169.04447040000014,169.76199350000024,None,169.06111770000007,169.7454503000008,170.2629110000007,None,left,1,0.3861726000004637,170.2629110000007,None,None,169.06111770000007,170.24572340000032,0.5126675000001342,0.5960154999993392,1.7138669999994818,1.7976803999999902,,,,,,prithik_1,001,2020_Feb_05_1222,posner,3.1.5,59.89645101548982,
-0.5,0,1,left,1,3,0,0,0,0,8,5,69,2,,,,,,,,,170.68058420000034,171.1806873000005,171.8985534000003,None,171.1969478000001,171.88189520000014,172.39907490000041,None,left,1,0.33027299999957904,172.39907490000041,None,None,171.1969478000001,172.38227910000023,0.5116300999998202,0.594861999999921,1.7131773000000976,1.7967975999999908,,,,,,prithik_1,001,2020_Feb_05_1222,posner,3.1.5,59.89645101548982,
0.5,180,1,right,2,4,0,0,0,0,8,6,70,7,,,,,,,,,172.74993580000046,173.25035070000013,173.96819460000006,None,173.26700789999995,173.95108980000077,174.46858820000034,None,right,1,0.37269780000042374,174.46858820000034,None,None,173.26700789999995,174.4516078000006,0.512156299999333,0.5955579999999827,1.7133882999996786,1.7974324999995588,,,,,,prithik_1,001,2020_Feb_05_1222,posner,3.1.5,59.89645101548982,
0.5,180,1,right,2,4,0,0,0,0,8,7,71,6,,,,,,,,,174.87017950000063,175.36948460000076,176.08741830000054,None,175.3865291000002,176.07043020000037,176.58834960000058,None,right,1,0.31675759999961883,176.58834960000058,None,None,175.3865291000002,176.5718665000004,0.5111479999995936,0.5946640000001935,1.713514000000032,1.796729900000173,,,,,,prithik_1,001,2020_Feb_05_1222,posner,3.1.5,59.89645101548982,
-0.5,180,0,left,2,3,0,0,0,0,9,0,72,4,,,,,,,,,176.92215290000058,177.4225877000008,178.14019439999993,None,177.43899469999997,178.12340080000013,178.64117430000078,None,left,1,0.27222140000048967,178.64117430000078,None,None,177.43899469999997,178.62474470000052,0.5124734000000899,0.5959760999994614,1.7146318999994037,1.7977891000000454,,,,,,prithik_1,001,2020_Feb_05_1222,posner,3.1.5,59.89645101548982,
-0.5,0,1,left,1,3,0,0,0,0,9,1,73,0,,,,,,,,,178.94199170000047,179.4415770000005,180.16007290000016,None,179.45832860000064,180.14284339999995,180.66007360000003,None,left,1,0.34931130000040866,180.66007360000003,None,None,179.45832860000064,180.64367949999996,0.5110850999999457,0.5949199000006047,1.713158999999905,1.7968678000006548,,,,,,prithik_1,001,2020_Feb_05_1222,posner,3.1.5,59.89645101548982,
0.5,180,1,right,2,4,0,0,0,0,9,2,74,5,,,,,,,,,181.02827350000007,181.52819739999995,182.24595650000083,None,181.54484970000067,182.22908610000013,182.74668790000032,None,right,1,0.262346599999546,182.74668790000032,None,None,181.54484970000067,182.72955140000067,0.5116487000004781,0.5949179000008371,1.7129864000007728,1.796692200000507,,,,,,prithik_1,001,2020_Feb_05_1222,posner,3.1.5,59.89645101548982,
0.5,180,1,right,2,4,0,0,0,0,9,3,75,6,,,,,,,,,183.03073270000004,183.5309169000002,184.24870800000008,None,183.5476477000002,184.23184070000025,184.74957640000048,None,right,1,0.3234859999993205,184.74957640000048,None,None,183.5476477000002,184.73254170000018,0.5109935999998925,0.594503899999836,1.7125805999994554,1.795980299999428,,,,,,prithik_1,001,2020_Feb_05_1222,posner,3.1.5,59.89645101548982,
-0.5,0,1,left,1,3,0,0,0,0,9,4,76,2,,,,,,,,,185.09992200000033,185.60050310000042,186.31865520000065,None,185.61668850000024,186.3014692000006,186.81881620000058,None,left,1,0.2861646000001201,186.81881620000058,None,None,185.61668850000024,186.80262970000058,0.5124298000000636,0.5957545999999638,1.7145082999995793,1.7969728999996732,,,,,,prithik_1,001,2020_Feb_05_1222,posner,3.1.5,59.89645101548982,
-0.5,0,1,left,1,3,0,0,0,0,9,5,77,1,,,,,,,,,187.13587710000047,187.63672710000083,188.35435460000008,None,187.65325250000024,188.33750190000046,188.85510580000027,None,left,1,0.33025760000055016,188.85510580000027,None,None,187.65325250000024,188.83841010000015,0.5120939000007638,0.5952824000005421,1.7137590000002092,1.7969044999999824,,,,,,prithik_1,001,2020_Feb_05_1222,posner,3.1.5,59.89645101548982,
0.5,180,1,right,2,4,0,0,0,0,9,6,78,7,,,,,,,,,189.20618300000024,189.70615309999994,190.42377710000073,None,189.72274880000077,190.4071782000001,190.92450929999995,None,right,1,0.2685166000001118,190.92450929999995,None,None,189.72274880000077,190.9078857000004,0.5117556000004697,0.5951303000001644,1.7134515000007013,1.7967369000007238,,,,,,prithik_1,001,2020_Feb_05_1222,posner,3.1.5,59.89645101548982,
0.5,0,0,right,1,4,0,0,0,0,9,7,79,3,,,,,,,,,191.20902980000028,191.70894350000071,192.42690070000026,None,191.72579480000059,192.40976560000036,192.9275731000007,None,right,1,0.33739659999992,192.9275731000007,None,None,191.72579480000059,192.91044390000025,0.5110974999997779,0.5944564999999784,1.7125781999993706,1.7960536000000502,,,,,,prithik_1,001,2020_Feb_05_1222,posner,3.1.5,59.89645101548982,
0.5,0,0,right,1,4,0,0,0,0,10,0,80,3,,,,,,,,,193.29499920000035,193.7950277,194.51266230000056,None,193.81162770000083,194.4960198000008,195.0129136000005,None,right,1,0.31629249999969034,195.0129136000005,None,None,193.81162770000083,194.99618830000054,0.5119813999999678,0.5955235000001267,1.7131217999994988,1.7968746999995346,,,,,,prithik_1,001,2020_Feb_05_1222,posner,3.1.5,59.89645101548982,
0.5,180,1,right,2,4,0,0,0,0,10,1,81,5,,,,,,,,,195.3477257000004,195.84804860000077,196.56552620000002,None,195.8646417,196.54899960000057,197.0662712000003,None,right,1,0.31862980000005336,197.0662712000003,None,None,195.8646417,197.0497303000002,0.5122276000001875,0.5951810000005935,1.7138821000007738,1.7971309000004112,,,,,,prithik_1,001,2020_Feb_05_1222,posner,3.1.5,59.89645101548982,
-0.5,180,0,left,2,3,0,0,0,0,10,2,82,4,,,,,,,,,197.41736050000054,197.91721450000023,198.6353375000008,None,197.9337340000002,198.6188000000002,199.1356351000004,None,left,1,0.25758069999938016,199.1356351000004,None,None,197.9337340000002,199.11911170000076,0.5115906000000905,0.5951529999992999,1.7134538999998767,1.7967093999995996,,,,,,prithik_1,001,2020_Feb_05_1222,posner,3.1.5,59.89645101548982,
-0.5,0,1,left,1,3,0,0,0,0,10,3,83,2,,,,,,,,,199.42017750000014,199.92003700000078,200.63801740000054,None,199.93706450000082,200.62098630000037,201.13850470000034,None,left,1,0.3985764000008203,201.13850470000034,None,None,199.93706450000082,201.12157690000004,0.5117237999993449,0.5953682999997909,1.713241200000084,1.7969023999994533,,,,,,prithik_1,001,2020_Feb_05_1222,posner,3.1.5,59.89645101548982,
0.5,180,1,right,2,4,0,0,0,0,10,4,84,7,,,,,,,,,201.55558050000036,202.05649660000017,202.77354360000027,None,202.07288900000003,202.75737260000005,203.27514260000044,None,right,1,0.24589779999951134,203.27514260000044,None,None,202.07288900000003,203.25815340000008,0.5121659999995245,0.5953805999997712,1.7138285999999425,1.7970846999996866,,,,,,prithik_1,001,2020_Feb_05_1222,posner,3.1.5,59.89645101548982,
-0.5,0,1,left,1,3,0,0,0,0,10,5,85,1,,,,,,,,,203.54215380000005,204.04232310000043,204.76004550000016,None,204.0589613000002,204.7434516000003,205.26064850000057,None,left,1,0.31645149999985733,205.26064850000057,None,None,204.0589613000002,205.2437092,0.5123284999999669,0.5969410999996398,1.713691299999482,1.7976778000002014,,,,,,prithik_1,001,2020_Feb_05_1222,posner,3.1.5,59.89645101548982,
-0.5,0,1,left,1,3,0,0,0,0,10,6,86,0,,,,,,,,,205.59590019999996,206.09531250000055,206.81349540000065,None,206.1118778,206.79613420000078,207.3135082000008,None,left,1,0.3194180000000415,207.3135082000008,None,None,206.1118778,207.2969122000004,0.5113048000002891,0.5949033999995663,1.712887800000317,1.7961685000000216,,,,,,prithik_1,001,2020_Feb_05_1222,posner,3.1.5,59.89645101548982,
0.5,180,1,right,2,4,0,0,0,0,10,7,87,6,,,,,,,,,207.66502050000054,208.1644184000006,208.88241930000004,None,208.18143650000002,208.86593919999996,209.3831897,None,right,1,0.35377390000030573,209.3831897,None,None,208.18143650000002,209.36633849999998,0.5114021999997931,0.5958941999997478,1.7132935999998153,1.797000599999592,,,,,,prithik_1,001,2020_Feb_05_1222,posner,3.1.5,59.89645101548982,
,,,,,,0,0,0,0,,,,,,,,,,,,,,,,,,,,,,,,,,,,,,,,,,209.76797960000022,None,1.9500000234984327e-05,0.9961121000005733,prithik_1,001,2020_Feb_05_1222,posner,3.1.5,59.89645101548982,
-0.5,0,1,left,1,3,1,0,1,0,0,0,0,0,1.359999987471383e-05,0.09741310000026715,270.78414300000077,None,1.5900000107649248e-05,0.09812679999959073,272.8870768000006,None,273.1681754000001,273.67128460000004,274.38909030000013,None,273.6881908000005,274.3723460000001,274.88980250000077,None,left,1,0.2950347000005422,274.88980250000077,None,None,273.6881908000005,274.8730449000004,0.5121404999999868,0.5956631999997626,1.7138848000004145,1.7974881000000096,,,,,,prithik_1,001,2020_Feb_05_1222,posner,3.1.5,59.89645101548982,
-0.5,0,1,left,1,3,1,0,1,0,0,1,1,1,,,,,,,,,275.2087171000003,275.7075983000004,276.4251369000003,None,275.7242690000003,276.40873140000076,276.9261198000004,None,left,1,0.3465147999995679,276.9261198000004,None,None,275.7242690000003,276.9091393000008,0.510517499999878,0.5936983000001419,1.7120448000005126,1.7953904000005423,,,,,,prithik_1,001,2020_Feb_05_1222,posner,3.1.5,59.89645101548982,
0.5,180,1,right,2,4,1,0,1,0,0,2,2,5,,,,,,,,,277.2940243000003,277.7937765000006,278.5112532000003,None,277.8103716000005,278.4948202000005,279.0120300000008,None,right,1,0.29257200000029115,279.0120300000008,None,None,277.8103716000005,278.9953994000007,0.511685800000123,0.5950424000002386,1.7132954000007885,1.796783100000539,,,,,,prithik_1,001,2020_Feb_05_1222,posner,3.1.5,59.89645101548982,
0.5,180,1,right,2,4,1,0,1,0,0,3,3,7,,,,,,,,,279.3297218000007,279.82986130000063,280.5476959000007,None,279.84659850000025,280.53065980000065,281.0484109000008,281.53217080000013,None,0,,281.0484109000008,None,None,279.84659850000025,281.03144130000055,0.5118427999996129,0.5956575000000157,1.7134077000000616,1.79693750000024,,,,,,prithik_1,001,2020_Feb_05_1222,posner,3.1.5,59.89645101548982,
-0.5,180,0,left,2,3,1,0,1,0,0,4,4,4,,,,,,,,,282.0327292000002,282.53361310000037,283.2511277000003,282.0327292000002,282.5502712000007,283.2346417000008,283.7518020000007,None,left,1,0.3127572000003056,283.7518020000007,None,None,282.5502712000007,283.73529490000055,0.5137223000001541,0.5972714999998061,1.7153815000001487,1.7987695000001622,,,,,,prithik_1,001,2020_Feb_05_1222,posner,3.1.5,59.89645101548982,
-0.5,0,1,left,1,3,1,0,1,0,0,5,5,2,,,,,,,,,284.0863497,284.5865487000001,285.3040443,None,284.60300430000007,285.28744580000057,285.80515410000044,None,left,1,0.3474914999997054,285.80515410000044,None,None,284.60300430000007,285.78811040000073,0.5116876000001866,0.5950483000005988,1.7132367000003796,1.796563700000661,,,,,,prithik_1,001,2020_Feb_05_1222,posner,3.1.5,59.89645101548982,
0.5,180,1,right,2,4,1,0,1,0,0,6,6,6,,,,,,,,,286.17253560000063,286.6726146000001,287.39026580000063,None,286.6893684000006,287.37356100000034,287.8907616000006,None,right,1,0.26183340000079625,287.8907616000006,None,None,286.6893684000006,287.8743187,0.5114410000005591,0.5950136000001294,1.7131263999999646,1.7967904000006456,,,,,,prithik_1,001,2020_Feb_05_1222,posner,3.1.5,59.89645101548982,
0.5,0,0,right,1,4,1,0,1,0,0,7,7,3,,,,,,,,,288.1756122000006,288.6753255000003,289.3928399000006,None,288.6918592000002,289.3764127000004,289.8936265000002,None,right,1,0.30717530000038096,289.8936265000002,None,None,288.6918592000002,289.87698570000066,0.5113774999999805,0.5949838999995336,1.7130138000002262,1.7963527000001704,,,,,,prithik_1,001,2020_Feb_05_1222,posner,3.1.5,59.89645101548982,
-0.5,180,0,left,2,3,1,0,1,0,1,0,8,4,,,,,,,,,290.2281634000001,290.7286085000005,291.44582190000074,None,290.74515490000067,291.42920030000005,291.9464000000007,None,left,1,0.26226300000053016,291.9464000000007,None,None,290.74515490000067,291.9296333000002,0.51201889999993,0.5947163000000728,1.713030599999911,1.796841399999721,,,,,,prithik_1,001,2020_Feb_05_1222,posner,3.1.5,59.89645101548982,
0.5,180,1,right,2,4,1,0,1,0,1,1,9,5,,,,,,,,,292.23153580000053,292.7308335000007,293.4487202,None,292.74779370000033,293.4318802000007,293.9494250000007,None,right,1,0.25916179999967426,293.9494250000007,None,None,292.74779370000033,293.93253040000036,0.5111150000002453,0.5946976000004724,1.7127921000001152,1.7963179000007585,,,,,,prithik_1,001,2020_Feb_05_1222,posner,3.1.5,59.89645101548982,
-0.5,0,1,left,1,3,1,0,1,0,1,2,10,2,,,,,,,,,294.2339522000002,294.7339101000007,295.4513087000005,None,294.7503417000007,295.4348125000006,295.9521631000007,None,left,1,0.27244750000045315,295.9521631000007,None,None,294.7503417000007,295.93545970000014,0.5116373999999269,0.5947391999998217,1.7131685999993351,1.7965438999999606,,,,,,prithik_1,001,2020_Feb_05_1222,posner,3.1.5,59.89645101548982,
-0.5,0,1,left,1,3,1,0,1,0,1,3,11,0,,,,,,,,,296.2531959000007,296.7530794000004,297.47062040000037,None,296.76976360000026,297.4539833000008,297.97137530000055,298.4552883000006,None,0,,297.97137530000055,None,None,296.76976360000026,297.95483289999993,0.5116797999999108,0.5951365999999325,1.71340919999966,1.7967693999999028,,,,,,prithik_1,001,2020_Feb_05_1222,posner,3.1.5,59.89645101548982,
-0.5,0,1,left,1,3,1,0,1,0,1,4,12,1,,,,,,,,,298.9561413000001,299.4567659000004,300.17456889999994,298.9561413000001,299.4735561000007,300.15787080000064,300.6750230000007,None,left,1,0.293499299999894,300.6750230000007,None,None,299.4735561000007,300.6586562000002,0.51364250000006,0.5968502999994598,1.7155087000001004,1.7987382999999681,,,,,,prithik_1,001,2020_Feb_05_1222,posner,3.1.5,59.89645101548982,
0.5,0,0,right,1,4,1,0,1,0,1,5,13,3,,,,,,,,,300.9929716000006,301.4933269000003,302.21036710000044,None,301.5096286000007,302.19382420000056,302.7112594,None,right,1,0.36931950000052893,302.7112594,None,None,301.5096286000007,302.6944796000007,0.512257999999747,0.5955415999997058,1.7133985999998913,1.7972666999994544,,,,,,prithik_1,001,2020_Feb_05_1222,posner,3.1.5,59.89645101548982,
0.5,180,1,right,2,4,1,0,1,0,1,6,14,7,,,,,,,,,303.1127191000005,303.61234240000067,304.33007799999996,None,303.6290673000003,304.31359450000036,304.8307768000004,None,right,1,0.3456443999994008,304.8307768000004,None,None,303.6290673000003,304.8141226000007,0.5113778999993883,0.5950335999996241,1.713135500000135,1.796685499999512,,,,,,prithik_1,001,2020_Feb_05_1222,posner,3.1.5,59.89645101548982,
0.5,180,1,right,2,4,1,0,1,0,1,7,15,6,,,,,,,,,305.19897480000054,305.6987349000001,306.41657530000066,None,305.7155446000006,306.3995657000005,306.9171404000008,None,right,1,0.3395072000002983,306.9171404000008,None,None,305.7155446000006,306.90023100000053,0.5114620000003924,0.5948402000003625,1.712938600000598,1.7967556000003242,,,,,,prithik_1,001,2020_Feb_05_1222,posner,3.1.5,59.89645101548982,
0.5,180,1,right,2,4,1,0,1,0,2,0,16,5,,,,,,,,,307.2850412000007,307.7851616000007,308.5026166000007,None,307.8014086000003,308.4857950000005,309.0031712,None,right,1,0.30931909999981144,309.0031712,None,None,307.8014086000003,308.98674240000037,0.511856699999953,0.5950548000000708,1.7134193000001687,1.7966112000003704,,,,,,prithik_1,001,2020_Feb_05_1222,posner,3.1.5,59.89645101548982,
0.5,0,0,right,1,4,1,0,1,0,2,1,17,3,,,,,,,,,309.3379266000002,309.8378773000004,310.55538890000025,None,309.85459340000034,310.53867100000025,311.0562307,None,right,1,0.2803269999994882,311.0562307,None,None,309.85459340000034,311.0394384000001,0.511865299999954,0.5950689999999668,1.7134028000000399,1.796838100000059,,,,,,prithik_1,001,2020_Feb_05_1222,posner,3.1.5,59.89645101548982,
-0.5,0,1,left,1,3,1,0,1,0,2,2,18,2,,,,,,,,,311.35720240000046,311.8573398000008,312.57477520000066,None,311.87397750000036,312.5583856000003,313.0757057999999,None,left,1,0.29279630000019097,313.0757057999999,None,None,311.87397750000036,313.05876910000006,0.5117799999998169,0.5948576000000685,1.713189500000226,1.7965516000003845,,,,,,prithik_1,001,2020_Feb_05_1222,posner,3.1.5,59.89645101548982,
-0.5,0,1,left,1,3,1,0,1,0,2,3,19,0,,,,,,,,,313.39342250000027,313.8931085000004,314.6108559000004,None,313.9098098000004,314.59438820000014,315.11160689999997,None,left,1,0.3048577999998088,315.11160689999997,None,None,313.9098098000004,315.0950124000001,0.5113982999992004,0.5949975999992603,1.7132693999992625,1.7967836999996507,,,,,,prithik_1,001,2020_Feb_05_1222,posner,3.1.5,59.89645101548982,
-0.5,0,1,left,1,3,1,0,1,0,2,4,20,1,,,,,,,,,315.4459489999999,315.9462003000008,316.6638887000008,None,315.96273680000013,316.64733049999995,317.1644535000005,None,left,1,0.25194999999985157,317.1644535000005,None,None,315.96273680000013,317.1478943000002,0.511627299999418,0.5949536999996781,1.7133035999995627,1.7964117000001352,,,,,,prithik_1,001,2020_Feb_05_1222,posner,3.1.5,59.89645101548982,
-0.5,180,0,left,2,3,1,0,1,0,2,5,21,4,,,,,,,,,317.43138980000003,317.9321015000005,318.6498106000008,None,317.94896940000035,318.6333303000001,319.15065550000054,None,left,1,0.31388829999923473,319.15065550000054,None,None,317.94896940000035,319.1336850000007,0.5115466000006563,0.5950244000005114,1.7131107000004704,1.7968096000004152,,,,,,prithik_1,001,2020_Feb_05_1222,posner,3.1.5,59.89645101548982,
0.5,180,1,right,2,4,1,0,1,0,2,6,22,7,,,,,,,,,319.4853189000005,319.98514240000077,320.7025194000007,None,320.00164010000026,320.68618960000003,321.20337290000043,None,right,1,0.3010052999998152,321.20337290000043,None,None,320.00164010000026,321.1867521000004,0.5114959000002273,0.5948440000001938,1.71308450000015,1.796273800000563,,,,,,prithik_1,001,2020_Feb_05_1222,posner,3.1.5,59.89645101548982,
0.5,180,1,right,2,4,1,0,1,0,2,7,23,6,,,,,,,,,321.52054080000016,322.02100100000007,322.73871340000005,None,322.0379232000005,322.72178630000053,323.2394623,None,right,1,0.3209715999992113,323.2394623,None,None,322.0379232000005,323.2227165000004,0.5120747999999367,0.5957197999996424,1.7137684999997873,1.79742669999996,,,,,,prithik_1,001,2020_Feb_05_1222,posner,3.1.5,59.89645101548982,
-0.5,180,0,left,2,3,1,0,1,0,3,0,24,4,,,,,,,,,323.5904061000001,324.0905646000001,324.80859370000053,None,324.1073683000004,324.79154970000036,325.30889990000014,None,left,1,0.2836435999997775,325.30889990000014,None,None,324.1073683000004,325.2923473999999,0.5117264999998952,0.5952812000004997,1.7134839000000284,1.7969651000003068,,,,,,prithik_1,001,2020_Feb_05_1222,posner,3.1.5,59.89645101548982,
-0.5,0,1,left,1,3,1,0,1,0,3,1,25,0,,,,,,,,,325.60985210000035,326.110001,326.8278183000002,None,326.1267905000004,326.81100610000067,327.32846810000046,None,left,1,0.3199009999998452,327.32846810000046,None,None,326.1267905000004,327.3118144,0.5116719000006924,0.5951557000007597,1.7134668000007878,1.7970672999999806,,,,,,prithik_1,001,2020_Feb_05_1222,posner,3.1.5,59.89645101548982,
0.5,0,0,right,1,4,1,0,1,0,3,2,26,3,,,,,,,,,327.6794056000008,328.17950850000034,328.89722190000066,None,328.1964145000002,328.8805205000008,329.39783910000006,None,right,1,0.2825984999999491,329.39783910000006,None,None,328.1964145000002,329.3811357000004,0.5114548999999897,0.5949381000000358,1.7130667999999787,1.796738500000174,,,,,,prithik_1,001,2020_Feb_05_1222,posner,3.1.5,59.89645101548982,
-0.5,0,1,left,1,3,1,0,1,0,3,3,27,2,,,,,,,,,329.6992943000005,330.1989858000006,330.9168814000004,None,330.21582820000003,330.8997500000005,331.41765699999996,None,left,1,0.2627542000000176,331.41765699999996,None,None,330.21582820000003,331.40057120000074,0.5114855000001626,0.5949055999999473,1.7130507000001671,1.796562599999561,,,,,,prithik_1,001,2020_Feb_05_1222,posner,3.1.5,59.89645101548982,
0.5,180,1,right,2,4,1,0,1,0,3,4,28,7,,,,,,,,,331.7017549000002,332.20174020000013,332.9193064000001,None,332.21862800000054,332.9027857000001,333.42008870000063,None,right,1,0.2603245000000243,333.42008870000063,None,None,332.21862800000054,333.40344070000083,0.5114354000006642,0.594895500000348,1.7133663000004162,1.7966875000001892,,,,,,prithik_1,001,2020_Feb_05_1222,posner,3.1.5,59.89645101548982,
-0.5,0,1,left,1,3,1,0,1,0,3,5,29,1,,,,,,,,,333.7049065000001,334.2046818000008,334.92231450000054,None,334.2210644000006,334.90561700000035,335.42321100000026,None,left,1,0.24115469999924244,335.42321100000026,None,None,334.2210644000006,335.4062406000003,0.5115034000000378,0.5946560000002137,1.7130479000006744,1.7962599000002228,,,,,,prithik_1,001,2020_Feb_05_1222,posner,3.1.5,59.89645101548982,
0.5,180,1,right,2,4,1,0,1,0,3,6,30,6,,,,,,,,,335.6899944000006,336.19049580000046,336.90853680000055,None,336.2072816,336.8915151000001,337.4090403,None,right,1,0.24736030000076425,337.4090403,None,None,336.2072816,337.39192490000005,0.512209200000143,0.595799700000498,1.7136137000006784,1.7974245000004885,,,,,,prithik_1,001,2020_Feb_05_1222,posner,3.1.5,59.89645101548982,
0.5,180,1,right,2,4,1,0,1,0,3,7,31,5,,,,,,,,,337.6768157000006,338.17666890000055,338.8943214000001,None,338.19342140000026,338.8776256000001,339.3949117000002,None,right,1,0.31751940000049217,339.3949117000002,None,None,338.19342140000026,339.37836870000046,0.5114611999997578,0.5947968000000401,1.7131380000000718,1.796644600000036,,,,,,prithik_1,001,2020_Feb_05_1222,posner,3.1.5,59.89645101548982,
0.5,180,1,right,2,4,1,0,1,0,4,0,32,6,,,,,,,,,339.7295184000004,340.22933379999995,340.9472676000005,None,340.24613840000075,340.9304796000006,341.4481101000001,None,right,1,0.3042782000002262,341.4481101000001,None,None,340.24613840000075,341.431055,0.5116102000001774,0.595158199999787,1.7133159000004525,1.7968129999999292,,,,,,prithik_1,001,2020_Feb_05_1222,posner,3.1.5,59.89645101548982,
0.5,0,0,right,1,4,1,0,1,0,4,1,33,3,,,,,,,,,341.7821679000008,342.28231940000023,343.0000108000004,None,342.2991756000001,342.9834051000007,343.5005955000006,None,right,1,0.2997453999996651,343.5005955000006,None,None,342.2991756000001,343.48386329999994,0.5113764000006995,0.594784100000652,1.7128960000000006,1.79643280000073,,,,,,prithik_1,001,2020_Feb_05_1222,posner,3.1.5,59.89645101548982,
0.5,180,1,right,2,4,1,0,1,0,4,2,34,5,,,,,,,,,343.8182925000001,344.31850740000027,345.0361498000002,None,344.33505980000064,345.01937,345.53669400000035,None,right,1,0.29583720000027824,345.53669400000035,None,None,344.33505980000064,345.5198524000007,0.5117478000001938,0.5950793000001795,1.7130697000002328,1.7967714000005799,,,,,,prithik_1,001,2020_Feb_05_1222,posner,3.1.5,59.89645101548982,
-0.5,0,1,left,1,3,1,0,1,0,4,3,35,0,,,,,,,,,345.85526650000065,346.3547969000001,347.0721783000008,None,346.3710664,347.05559130000074,347.57294940000065,None,left,1,0.26734059999944293,347.57294940000065,None,None,346.3710664,347.5563004000005,0.511444499999925,0.594657499999812,1.7129297999999835,1.7963056999997207,,,,,,prithik_1,001,2020_Feb_05_1222,posner,3.1.5,59.89645101548982,
-0.5,180,0,left,2,3,1,0,1,0,4,4,36,4,,,,,,,,,347.85724160000063,348.35751020000043,349.07495070000004,None,348.3740377000004,349.0585256000004,349.5757493000001,None,left,1,0.2965759999997317,349.5757493000001,None,None,348.3740377000004,349.5589142000008,0.511831899999379,0.5950027999997474,1.7132232999992993,1.7965782999999647,,,,,,prithik_1,001,2020_Feb_05_1222,posner,3.1.5,59.89645101548982,
-0.5,0,1,left,1,3,1,0,1,0,4,5,37,1,,,,,,,,,349.8937255000001,350.3934895000002,351.11139470000035,None,350.41007100000024,351.09427510000023,351.61181810000016,None,left,1,0.2684752999994089,351.61181810000016,None,None,350.41007100000024,351.5951462000003,0.5114456999999675,0.5949843999997029,1.71307699999943,1.7964326000001165,,,,,,prithik_1,001,2020_Feb_05_1222,posner,3.1.5,59.89645101548982,
0.5,180,1,right,2,4,1,0,1,0,4,6,38,7,,,,,,,,,351.89647550000063,352.39614860000074,353.11384780000026,None,352.41321340000013,353.09724260000075,353.61473320000005,None,right,1,0.24964519999957702,353.61473320000005,None,None,352.41321340000013,353.59793010000067,0.5112242999994123,0.5945894999995289,1.7129895999996734,1.7963376999996399,,,,,,prithik_1,001,2020_Feb_05_1222,posner,3.1.5,59.89645101548982,
-0.5,0,1,left,1,3,1,0,1,0,4,7,39,2,,,,,,,,,353.8827403000005,354.38201930000014,355.0997962000001,None,354.3990125,355.0831754000001,355.60048090000055,None,left,1,0.2877317000002222,355.60048090000055,None,None,354.3990125,355.5840130000006,0.5112429999999222,0.5949620000001232,1.7132135000001654,1.796604500000285,,,,,,prithik_1,001,2020_Feb_05_1222,posner,3.1.5,59.89645101548982,
0.5,180,1,right,2,4,1,0,1,0,5,0,40,6,,,,,,,,,355.91838129999996,356.41852540000036,357.13596790000065,None,356.4352746000004,357.11925880000035,357.6368839000006,None,left,0,0.2674317000000883,357.6368839000006,None,None,356.4352746000004,357.6199643,0.5116885000006732,0.5949886000007609,1.7131118000006609,1.7968391000003976,,,,,,prithik_1,001,2020_Feb_05_1222,posner,3.1.5,59.89645101548982,
-0.5,0,1,left,1,3,1,0,1,0,5,1,41,2,,,,,,,,,357.9214589000003,358.4209843000008,359.1388611000002,None,358.43783239999993,359.1220778000006,359.6396328000001,None,left,1,0.20052360000045155,359.6396328000001,None,None,358.43783239999993,359.6227649000002,0.511444599999777,0.5954164000004312,1.7132135000001654,1.7967797999999675,,,,,,prithik_1,001,2020_Feb_05_1222,posner,3.1.5,59.89645101548982,
0.5,180,1,right,2,4,1,0,1,0,5,2,42,7,,,,,,,,,359.85716050000065,360.35713230000056,361.0747955000006,None,360.3738671000001,361.0582422000007,361.57543239999995,None,right,1,0.27298070000051666,361.57543239999995,None,None,360.3738671000001,361.5586505000001,0.511550599999282,0.594748299999992,1.7130326999995305,1.7964687999992748,,,,,,prithik_1,001,2020_Feb_05_1222,posner,3.1.5,59.89645101548982,
-0.5,180,0,left,2,3,1,0,1,0,5,3,43,4,,,,,,,,,361.87661819999994,362.3766531000001,363.0942874000002,None,362.39333200000056,363.07760940000026,363.5951006000005,None,right,0,0.28505330000007234,363.5951006000005,None,None,362.39333200000056,363.57827910000015,0.5113756000000649,0.5945294000002832,1.7129930999999488,1.7963835000000472,,,,,,prithik_1,001,2020_Feb_05_1222,posner,3.1.5,59.89645101548982,
-0.5,0,1,left,1,3,1,0,1,0,5,4,44,1,,,,,,,,,363.89606900000035,364.39609440000004,365.113754,None,364.41282880000017,365.0969775000003,365.6143118,None,left,1,0.3140473000003112,365.6143118,None,None,364.41282880000017,365.5978950000008,0.5115828000007241,0.5948427000002994,1.7133698000006916,1.7965438000001086,,,,,,prithik_1,001,2020_Feb_05_1222,posner,3.1.5,59.89645101548982,
0.5,0,0,right,1,4,1,0,1,0,5,5,45,3,,,,,,,,,365.9501015000005,366.4489030000004,367.1666533000007,None,366.46568150000076,367.15001830000074,367.66733620000014,None,right,1,0.3088890999997602,367.66733620000014,None,None,366.46568150000076,367.6504984000003,0.5110254000001078,0.5944116000000577,1.7125992999999653,1.7963952000000063,,,,,,prithik_1,001,2020_Feb_05_1222,posner,3.1.5,59.89645101548982,
-0.5,0,1,left,1,3,1,0,1,0,5,6,46,0,,,,,,,,,368.00199520000024,368.50178720000076,369.21931010000026,None,368.51835570000003,369.20277820000047,369.71989590000067,None,left,1,0.3444556000004013,369.71989590000067,None,None,368.51835570000003,369.7035633000005,0.5117014999996172,0.5950781000001371,1.7134712999995827,1.796553700000004,,,,,,prithik_1,001,2020_Feb_05_1222,posner,3.1.5,59.89645101548982,
0.5,180,1,right,2,4,1,0,1,0,5,7,47,5,,,,,,,,,370.08804600000076,370.58793330000026,371.30571409999993,None,370.60465470000054,371.28908709999996,371.8063705000004,None,right,1,0.27393280000069353,371.8063705000004,None,None,370.60465470000054,371.7894261000001,0.5115870999998151,0.5949434000003748,1.7131054999999833,1.796596099999988,,,,,,prithik_1,001,2020_Feb_05_1222,posner,3.1.5,59.89645101548982,
-0.5,0,1,left,1,3,1,0,1,0,6,0,48,1,,,,,,,,,372.1072298000008,372.6075247000008,373.32499330000064,None,372.6241606000003,373.3084088000005,373.8256813000007,None,left,1,0.2384911999997712,373.8256813000007,None,None,372.6241606000003,373.8089613000002,0.5119260000001304,0.5951144999999087,1.7133465000006254,1.7967170000001715,,,,,,prithik_1,001,2020_Feb_05_1222,posner,3.1.5,59.89645101548982,
0.5,180,1,right,2,4,1,0,1,0,6,1,49,6,,,,,,,,,374.0934984000005,374.59351510000033,375.31098330000077,None,374.61003040000014,375.2944382000005,375.8117334000008,376.29579600000034,right,1,0.49241799999981595,375.8117334000008,None,None,374.61003040000014,375.7951038000001,0.51154840000072,0.5947913999998491,1.713118200000281,1.7964412000001175,,,,,,prithik_1,001,2020_Feb_05_1222,posner,3.1.5,59.89645101548982,
0.5,0,0,right,1,4,1,0,1,0,6,2,50,3,,,,,,,,,376.32930280000073,376.8296730000002,377.5478612000006,None,376.8466633000007,377.53075490000083,378.04817490000005,378.53200300000026,None,0,,378.04817490000005,None,None,376.8466633000007,378.03139890000057,0.5122309999997015,0.5960975999996663,1.7139345999994475,1.7973566999999093,,,,,,prithik_1,001,2020_Feb_05_1222,posner,3.1.5,59.89645101548982,
0.5,180,1,right,2,4,1,0,1,0,6,3,51,7,,,,,,,,,379.03267890000006,379.5334810000004,380.2512121,379.03267890000006,379.55000240000027,380.23461100000077,380.7518396000005,None,right,1,0.3283227000001716,380.7518396000005,None,None,379.55000240000027,380.7351664000007,0.5135739999996076,0.5970600000000559,1.7152358000003005,1.7986437999998088,,,,,,prithik_1,001,2020_Feb_05_1222,posner,3.1.5,59.89645101548982,
-0.5,0,1,left,1,3,1,0,1,0,6,4,52,2,,,,,,,,,381.10335440000017,381.60298930000044,382.32054400000015,None,381.61951110000064,382.3040292000005,382.8214358000005,None,left,1,0.32268130000011297,382.8214358000005,None,None,381.61951110000064,382.8047557,0.5114352000000508,0.5950038999999379,1.7131669999998849,1.7964990000000398,,,,,,prithik_1,001,2020_Feb_05_1222,posner,3.1.5,59.89645101548982,
-0.5,0,1,left,1,3,1,0,1,0,6,5,53,0,,,,,,,,,383.1724529000003,383.6725905000003,384.3901796,None,383.6895521000006,384.37358250000034,384.8906695000005,None,left,1,0.437446999999338,384.8906695000005,None,None,383.6895521000006,384.87425690000055,0.511643499999991,0.5951125999999931,1.7132909000001746,1.7967537000004086,,,,,,prithik_1,001,2020_Feb_05_1222,posner,3.1.5,59.89645101548982,
-0.5,180,0,left,2,3,1,0,1,0,6,6,54,4,,,,,,,,,385.3586359000001,385.8591400000005,386.57645290000073,None,385.8756304000008,386.5598905000006,387.0773085999999,None,left,1,0.4112791000006837,387.0773085999999,None,None,385.8756304000008,387.06071520000023,0.5115678000001935,0.5946436000003814,1.71312670000043,1.7965061000004425,,,,,,prithik_1,001,2020_Feb_05_1222,posner,3.1.5,59.89645101548982,
0.5,180,1,right,2,4,1,0,1,0,6,7,55,5,,,,,,,,,387.5121209000008,388.0119039000001,388.72926780000034,None,388.02845030000026,388.7127751000007,389.23003980000067,None,right,1,0.4501263000001927,389.23003980000067,None,None,388.02845030000026,389.21348130000024,0.5112907999991876,0.5946684999998979,1.712851899999805,1.7962996999995084,,,,,,prithik_1,001,2020_Feb_05_1222,posner,3.1.5,59.89645101548982,
0.5,180,1,right,2,4,1,0,1,0,7,0,56,6,,,,,,,,,389.69827330000044,390.1982007000006,390.9159427000004,None,390.2151143000001,390.89953330000026,391.41679270000077,None,right,1,0.40726879999965604,391.41679270000077,None,None,390.2151143000001,391.3996138000002,0.5115758000001733,0.5949129000000539,1.7129781000003277,1.796769000000495,,,,,,prithik_1,001,2020_Feb_05_1222,posner,3.1.5,59.89645101548982,
-0.5,0,1,left,1,3,1,0,1,0,7,1,57,1,,,,,,,,,391.8506328000003,392.35115420000056,393.0689215000002,None,392.36780980000003,393.0521725000008,393.56937950000065,None,left,1,0.27887160000045697,393.56937950000065,None,None,392.36780980000003,393.55261100000007,0.5123729999995703,0.5959014000000025,1.713804899999559,1.7974770999999237,,,,,,prithik_1,001,2020_Feb_05_1222,posner,3.1.5,59.89645101548982,
-0.5,180,0,left,2,3,1,0,1,0,7,2,58,4,,,,,,,,,393.87007450000056,394.3705194000004,395.08832170000005,None,394.3873635,395.07157910000024,395.58883890000016,None,left,1,0.3471879999997327,395.58883890000016,None,None,394.3873635,395.57218809999995,0.5119983999993565,0.5955874000001131,1.713644899999963,1.7972925999993095,,,,,,prithik_1,001,2020_Feb_05_1222,posner,3.1.5,59.89645101548982,
0.5,0,0,right,1,4,1,0,1,0,7,3,59,3,,,,,,,,,395.9570087000002,396.45672060000015,397.1744817000008,None,396.4734442000008,397.15795980000075,397.6750535000001,None,right,1,0.3890377999996417,397.6750535000001,None,None,396.4734442000008,397.6585190000005,0.5111851999999999,0.5946718999994118,1.712971099999777,1.796113699999296,,,,,,prithik_1,001,2020_Feb_05_1222,posner,3.1.5,59.89645101548982,
0.5,180,1,right,2,4,1,0,1,0,7,4,60,7,,,,,,,,,398.0928509000005,398.5933193999999,399.3106602000007,None,398.60958090000076,399.29415450000033,399.8113447000005,None,right,1,0.35687849999976606,399.8113447000005,None,None,398.60958090000076,399.7947105000003,0.5118392000003951,0.5950767000003907,1.7132186000008005,1.7965083000008235,,,,,,prithik_1,001,2020_Feb_05_1222,posner,3.1.5,59.89645101548982,
-0.5,0,1,left,1,3,1,0,1,0,7,5,61,2,,,,,,,,,400.1959590000006,400.6958910000003,401.41381900000033,None,400.7127040000005,401.39694260000033,401.9142814000006,None,left,1,0.29376549999960844,401.9142814000006,None,None,400.7127040000005,401.8974919000002,0.5116134999998394,0.5951652999992803,1.713190599999507,1.7968785999992178,,,,,,prithik_1,001,2020_Feb_05_1222,posner,3.1.5,59.89645101548982,
0.5,180,1,right,2,4,1,0,1,0,7,6,62,5,,,,,,,,,402.2322728000008,402.7320114000004,403.4497951000003,None,402.7487548000008,403.43310290000045,403.95034880000003,404.43454530000054,right,1,0.4897803000003478,403.95034880000003,None,None,402.7487548000008,403.93387729999995,0.5114729999995689,0.5948582999999417,1.713318099999924,1.7967466999998578,,,,,,prithik_1,001,2020_Feb_05_1222,posner,3.1.5,59.89645101548982,
-0.5,0,1,left,1,3,1,0,1,0,7,7,63,0,,,,,,,,,404.46864619999997,404.9684720000005,405.68614140000045,None,404.9852079000002,405.66938240000036,406.18702850000045,406.67076870000074,left,1,0.5169355999996696,406.18702850000045,None,None,404.9852079000002,406.1702524000002,0.511643599999843,0.594973299999765,1.7134028000000399,1.7966366000000562,,,,,,prithik_1,001,2020_Feb_05_1222,posner,3.1.5,59.89645101548982,
0.5,0,0,right,1,4,1,0,1,0,8,0,64,3,,,,,,,,,406.7220945000008,407.2214410000006,407.9392359000003,None,407.23823260000063,407.9223769,408.43988380000064,None,right,1,0.3920901999999842,408.43988380000064,None,None,407.23823260000063,408.4233118000002,0.5112257999999201,0.5947455000004993,1.7130723999998736,1.7962898000005225,,,,,,prithik_1,001,2020_Feb_05_1222,posner,3.1.5,59.89645101548982,
-0.5,0,1,left,1,3,1,0,1,0,8,1,65,2,,,,,,,,,408.8581057000001,409.35804989999997,410.0755071000003,None,409.37446550000004,410.0588011,410.5761863000007,None,left,1,0.2558770000005097,410.5761863000007,None,None,409.37446550000004,410.5595665999999,0.5118699999993623,0.5949867999997878,1.7133702999999514,1.7969552999993539,,,,,,prithik_1,001,2020_Feb_05_1222,posner,3.1.5,59.89645101548982,
-0.5,180,0,left,2,3,1,0,1,0,8,2,66,4,,,,,,,,,410.8600204000004,411.3608402,412.0781884000007,None,411.37731020000047,412.0614419000003,412.5790951000008,None,left,1,0.3008890999999494,412.5790951000008,None,None,411.37731020000047,412.5622243000007,0.5123698999996122,0.5956773999996585,1.713735600000291,1.7970980000000054,,,,,,prithik_1,001,2020_Feb_05_1222,posner,3.1.5,59.89645101548982,
-0.5,0,1,left,1,3,1,0,1,0,8,3,67,1,,,,,,,,,412.89664470000025,413.3966476000005,414.11436070000036,None,413.41363420000016,414.0977462000001,414.6150264000007,None,left,1,0.3689455000003363,414.6150264000007,None,None,413.41363420000016,414.5984266000005,0.5116300999998202,0.5951048000006267,1.713386299999911,1.7967993000002025,,,,,,prithik_1,001,2020_Feb_05_1222,posner,3.1.5,59.89645101548982,
0.5,180,1,right,2,4,1,0,1,0,8,4,68,7,,,,,,,,,414.9997049000003,415.49951520000013,416.2174608000005,None,415.51618810000036,416.20041990000027,416.7180233000008,None,right,1,0.3620490000002974,416.7180233000008,None,None,415.51618810000036,416.7011706000003,0.5115395000002536,0.5949995000000854,1.7131789000004574,1.7968152000003101,,,,,,prithik_1,001,2020_Feb_05_1222,posner,3.1.5,59.89645101548982,
-0.5,0,1,left,1,3,1,0,1,0,8,5,69,0,,,,,,,,,417.1028085000007,417.6025122000001,418.3200747000001,None,417.61913410000034,418.303484,418.8208654,None,left,1,0.2350205000002461,418.8208654,None,None,417.61913410000034,418.8042989000005,0.5113627999999153,0.5949159999991025,1.7131265999996685,1.7965735999996468,,,,,,prithik_1,001,2020_Feb_05_1222,posner,3.1.5,59.89645101548982,
0.5,180,1,right,2,4,1,0,1,0,8,6,70,5,,,,,,,,,419.07202680000046,419.5718200000001,420.2893352000001,None,419.5885001000006,420.2728145000001,420.79036710000037,None,right,1,0.24961809999967954,420.79036710000037,None,None,419.5885001000006,420.77351200000066,0.5115330999997241,0.5951010999997379,1.713201200000185,1.7967201000001296,,,,,,prithik_1,001,2020_Feb_05_1222,posner,3.1.5,59.89645101548982,
0.5,180,1,right,2,4,1,0,1,0,8,7,71,6,,,,,,,,,421.0581004000005,421.55816270000014,422.2757321000008,None,421.5746968000003,422.2589069000005,422.77642470000046,None,right,1,0.33553779999965627,422.77642470000046,None,None,421.5746968000003,422.7597637000008,0.5118871999993644,0.5950795999997354,1.7134756999994352,1.7969543999997768,,,,,,prithik_1,001,2020_Feb_05_1222,posner,3.1.5,59.89645101548982,
0.5,180,1,right,2,4,1,0,1,0,9,0,72,5,,,,,,,,,423.14426679999997,423.64418340000066,424.3619066000001,None,423.66079570000056,424.34535460000006,424.8624525000005,425.3466434000002,right,1,0.4815069999995103,424.8624525000005,None,None,423.66079570000056,424.84599160000016,0.5114266000000498,0.5950221000002784,1.7132191999999122,1.7963542999996207,,,,,,prithik_1,001,2020_Feb_05_1222,posner,3.1.5,59.89645101548982,
-0.5,0,1,left,1,3,1,0,1,0,9,1,73,2,,,,,,,,,425.3638983999999,425.86393510000016,426.58137220000026,None,425.8803764000004,426.5646955000002,427.0821878000006,None,left,1,0.3816413000004104,427.0821878000006,None,None,425.8803764000004,427.06548960000055,0.5115869000001112,0.5953216999996584,1.7131283999997322,1.796835000000101,,,,,,prithik_1,001,2020_Feb_05_1222,posner,3.1.5,59.89645101548982,
-0.5,0,1,left,1,3,1,0,1,0,9,2,74,0,,,,,,,,,427.48348070000065,427.9835442000003,428.7009332000007,None,428.00005820000024,428.68447749999996,429.2016020000001,None,right,0,0.17442310000024008,429.2016020000001,None,None,428.00005820000024,429.1850895000007,0.511823199999526,0.5950467999991815,1.7133542999999918,1.7969662999994398,,,,,,prithik_1,001,2020_Feb_05_1222,posner,3.1.5,59.89645101548982,
0.5,180,1,right,2,4,1,0,1,0,9,3,75,7,,,,,,,,,429.4022350000005,429.90277100000003,430.62023040000076,None,429.9193907000008,430.6037316000002,431.12115900000026,None,right,1,0.3108479999991687,431.12115900000026,None,None,429.9193907000008,431.1045184000004,0.5125764000003983,0.5956790999998702,1.7140267000004314,1.7973190000002432,,,,,,prithik_1,001,2020_Feb_05_1222,posner,3.1.5,59.89645101548982,
-0.5,180,0,left,2,3,1,0,1,0,9,4,76,4,,,,,,,,,431.45584959999996,431.95548620000045,432.6732496000004,None,431.97214710000026,432.6565790000004,433.17378200000076,None,left,1,0.28211820000069565,433.17378200000076,None,None,431.97214710000026,433.1574081000008,0.5113164000003962,0.5946710999996867,1.7132136999998693,1.796393900000112,,,,,,prithik_1,001,2020_Feb_05_1222,posner,3.1.5,59.89645101548982,
0.5,180,1,right,2,4,1,0,1,0,9,5,77,6,,,,,,,,,433.4752133000002,433.97494650000044,434.69250980000015,None,433.99159990000044,434.67594030000055,435.1934039000007,None,right,1,0.46240750000015396,435.1934039000007,None,None,433.99159990000044,435.1766494000003,0.5112673000003269,0.594984100000147,1.7129430000004504,1.7962741000001188,,,,,,prithik_1,001,2020_Feb_05_1222,posner,3.1.5,59.89645101548982,
0.5,0,0,right,1,4,1,0,1,0,9,6,78,3,,,,,,,,,435.67832850000013,436.17821000000004,436.8957252,None,436.1946297000004,436.8788480000003,437.3963504000003,435.67832850000013,right,1,0.43542859999979555,437.3963504000003,None,None,436.1946297000004,437.3795957000002,0.51175719999992,0.5950199999997494,1.7131313999998383,1.7968162999995911,,,,,,prithik_1,001,2020_Feb_05_1222,posner,3.1.5,59.89645101548982,
-0.5,0,1,left,1,3,1,0,1,0,9,7,79,1,,,,,,,,,437.847812,438.34778129999995,439.06533170000057,None,438.3644671000002,439.04890780000005,439.5660622000005,440.04986030000055,left,1,0.6578187000004618,439.5660622000005,None,None,438.3644671000002,439.5493329000001,0.5117688000000271,0.5950203000002148,1.7133023000005778,1.796681300000273,,,,,,prithik_1,001,2020_Feb_05_1222,posner,3.1.5,59.89645101548982,
-0.5,0,1,left,1,3,1,0,1,0,10,0,80,1,,,,,,,,,440.25157130000025,440.75125730000036,441.46860670000024,None,440.76769409999997,441.4518953000006,441.96922670000004,None,left,1,0.398675400000684,441.96922670000004,None,None,440.76769409999997,441.95269670000016,0.5117927000001146,0.5950355999993917,1.7132090999994034,1.7966221999995469,,,,,,prithik_1,001,2020_Feb_05_1222,posner,3.1.5,59.89645101548982,
0.5,0,0,right,1,4,1,0,1,0,10,1,81,3,,,,,,,,,442.3872887000007,442.88722600000074,443.6049320000002,None,442.9041943000002,443.588213,444.1057928,None,right,1,0.3740211999993335,444.1057928,None,None,442.9041943000002,444.0889812000005,0.5117201000002751,0.5950541000001976,1.713448800000151,1.7966513000001214,,,,,,prithik_1,001,2020_Feb_05_1222,posner,3.1.5,59.89645101548982,
-0.5,0,1,left,1,3,1,0,1,0,10,2,82,2,,,,,,,,,444.5068418999999,445.00676870000007,445.7244287000003,None,445.02358340000046,445.70800320000035,446.2253442000001,446.7091272000007,left,1,0.4704216999998607,446.2253442000001,None,None,445.02358340000046,446.2085493000004,0.5117229999996198,0.5951576999996178,1.713488899999902,1.7968999999993684,,,,,,prithik_1,001,2020_Feb_05_1222,posner,3.1.5,59.89645101548982,
0.5,180,1,right,2,4,1,0,1,0,10,3,83,7,,,,,,,,,446.7263051,447.22663040000043,447.9442798,None,447.24337560000004,447.92767189999995,448.4449893000001,None,right,1,0.3387960000000021,448.4449893000001,None,None,447.24337560000004,448.4282361000005,0.5117122999999992,0.5950751000000309,1.7132996999998795,1.7965749000004507,,,,,,prithik_1,001,2020_Feb_05_1222,posner,3.1.5,59.89645101548982,
-0.5,180,0,left,2,3,1,0,1,0,10,4,84,4,,,,,,,,,448.8130200000005,449.3130047000004,450.03032750000057,None,449.3293069000001,450.0137216000003,450.5309107000003,None,left,1,0.3889865999999529,450.5309107000003,None,None,449.3293069000001,450.51439220000066,0.5116335000002437,0.5947266000002855,1.7130091999997603,1.796534199999769,,,,,,prithik_1,001,2020_Feb_05_1222,posner,3.1.5,59.89645101548982,
0.5,180,1,right,2,4,1,0,1,0,10,5,85,5,,,,,,,,,450.9491566000006,451.44911970000067,452.16669679999995,None,451.4656203000004,452.14996229999997,452.66749040000013,None,right,1,0.3162857000006625,452.66749040000013,None,None,451.4656203000004,452.65052840000044,0.5116394999995464,0.595066300000326,1.7130329999999958,1.7967940999997154,,,,,,prithik_1,001,2020_Feb_05_1222,posner,3.1.5,59.89645101548982,
-0.5,0,1,left,1,3,1,0,1,0,10,6,86,0,,,,,,,,,453.002082,453.50183840000045,454.21947550000004,None,453.5186478000005,454.20279520000076,454.72017270000015,None,left,1,0.4635113000003912,454.72017270000015,None,None,453.5186478000005,454.7034760000006,0.5116118000005372,0.5949749999999767,1.7132253999998284,1.7966771999999764,,,,,,prithik_1,001,2020_Feb_05_1222,posner,3.1.5,59.89645101548982,
0.5,180,1,right,2,4,1,0,1,0,10,7,87,6,,,,,,,,,455.2050650000001,455.7048327000002,456.42256369999996,None,455.72147310000037,456.40568430000076,456.9231797000002,455.2050650000001,right,1,0.29257570000027044,456.9231797000002,None,None,455.72147310000037,456.90658669999993,0.511230500000238,0.5944986000004064,1.712967500000559,1.7962194000001546,,,,,,prithik_1,001,2020_Feb_05_1222,posner,3.1.5,59.89645101548982,
,,,,,,1,0,1,0,,,,,,,,,,,,,,,,,,,,,,,,,,,,,,,,,,457.2402473000002,None,1.7100000150094274e-05,0.9966397999996843,prithik_1,001,2020_Feb_05_1222,posner,3.1.5,59.89645101548982,
0.5,180,1,right,2,4,2,0,2,0,0,0,0,5,1.1099999937869143e-05,0.09836779999932332,518.2576587000003,None,1.6599999980826396e-05,0.0976528999999573,520.3604032000003,None,520.6368980000007,521.1447818000006,521.8457863000003,None,521.1447818000006,521.8457863000003,522.3464999000007,None,right,1,0.44515659999979107,522.3464999000007,None,right,521.1447818000006,522.3464999000007,0.5001111999999921,0.600453799999741,1.7016162999998414,1.801695699999982,0.510596600000099,,,,,prithik_1,001,2020_Feb_05_1222,posner,3.1.5,59.89645101548982,
-0.5,180,0,left,2,3,2,0,2,0,0,1,1,4,,,,,,,,,522.8155283000006,523.3144705000004,524.0321527000006,None,523.3310493000008,524.0154023000005,524.5329015000007,None,left,1,0.28258740000001126,524.5329015000007,None,None,523.3310493000008,524.5160917000003,0.5107944999999745,0.594190200000412,1.7124013000002378,1.7957669000006717,,,,,,prithik_1,001,2020_Feb_05_1222,posner,3.1.5,59.89645101548982,
0.5,180,1,right,2,4,2,0,2,0,0,2,2,6,,,,,,,,,524.8341111,525.3339547000005,526.0515077,None,525.3506254000004,526.0350314000007,526.5521666000004,None,right,1,0.25539519999983895,526.5521666000004,None,None,525.3506254000004,526.5354946000007,0.511385099999643,0.5951515999995536,1.7129055999994307,1.7963055000000168,,,,,,prithik_1,001,2020_Feb_05_1222,posner,3.1.5,59.89645101548982,
0.5,180,1,right,2,4,2,0,2,0,0,3,3,7,,,,,,,,,526.8364354000005,527.3368635000006,528.0543752000003,None,527.3535859000003,528.0376906000001,528.5550390000008,None,right,1,0.29257979999965755,528.5550390000008,None,None,527.3535859000003,528.5381747000001,0.5119377000000895,0.5950747000006231,1.7132344000001467,1.7967860000007931,,,,,,prithik_1,001,2020_Feb_05_1222,posner,3.1.5,59.89645101548982,
-0.5,0,1,left,1,3,2,0,2,0,0,4,4,0,,,,,,,,,528.8724484000004,529.3729662000005,530.0904312000002,None,529.3894544000004,530.0736829000007,530.5910835000004,None,left,1,0.21636130000024423,530.5910835000004,None,None,529.3894544000004,530.5745018000007,0.5124171999996179,0.5956147999995665,1.7139368999996805,1.7973016999994798,,,,,,prithik_1,001,2020_Feb_05_1222,posner,3.1.5,59.89645101548982,
-0.5,0,1,left,1,3,2,0,2,0,0,5,5,2,,,,,,,,,530.8258378,531.3254052000002,532.0431566000007,None,531.3423246000002,532.0265733000006,532.5439436000006,None,left,1,0.31138649999957124,532.5439436000006,None,None,531.3423246000002,532.5273422,0.5111343999997189,0.594478899999558,1.713047899999765,1.796256099999482,,,,,,prithik_1,001,2020_Feb_05_1222,posner,3.1.5,59.89645101548982,
0.5,0,0,right,1,4,2,0,2,0,0,6,6,3,,,,,,,,,532.8782926000003,533.3781801000005,534.0959539000005,None,533.3949457000008,534.0791887000005,534.5967420000006,None,right,1,0.2985771999992721,534.5967420000006,None,None,533.3949457000008,534.5799535000006,0.5114155999999639,0.5953116999999111,1.7131773999999496,1.7965910000002623,,,,,,prithik_1,001,2020_Feb_05_1222,posner,3.1.5,59.89645101548982,
-0.5,0,1,left,1,3,2,0,2,0,0,7,7,1,,,,,,,,,534.9145722000003,535.4144441000008,536.1320585000003,None,535.4309939000004,536.1155147,536.6327086000001,None,left,1,0.24662979999993695,536.6327086000001,None,None,535.4309939000004,536.6160692000003,0.5114494999997987,0.5950788000000102,1.713044600000103,1.7964356000002226,,,,,,prithik_1,001,2020_Feb_05_1222,posner,3.1.5,59.89645101548982,
-0.5,0,1,left,1,3,2,0,2,0,1,0,8,0,,,,,,,,,536.9006511000007,537.4003250000005,538.1180372000008,None,537.4173452000005,538.1013091000004,538.6186541000006,None,left,1,0.33272979999946983,538.6186541000006,None,None,537.4173452000005,538.6022784000006,0.5111216000004788,0.5947062000004735,1.713056300000062,1.7964688000001843,,,,,,prithik_1,001,2020_Feb_05_1222,posner,3.1.5,59.89645101548982,
0.5,180,1,right,2,4,2,0,2,0,1,1,9,7,,,,,,,,,538.9700014,539.4700171000004,540.1876084000005,None,539.4868512000003,540.1708124000006,540.6881449000002,None,right,1,0.2552212000000509,540.6881449000002,None,None,539.4868512000003,540.6715053000007,0.5115999999998166,0.5948294999998325,1.7130675999997038,1.7965549999998984,,,,,,prithik_1,001,2020_Feb_05_1222,posner,3.1.5,59.89645101548982,
-0.5,180,0,left,2,3,2,0,2,0,1,2,10,4,,,,,,,,,540.9730431000007,541.4726979000006,542.1903471000005,None,541.4891899000004,542.1741798000003,542.6911684000006,None,left,1,0.252125399999386,542.6911684000006,None,None,541.4891899000004,542.6744594000002,0.5114891999992324,0.5950647999998182,1.713229599999977,1.7968053999993572,,,,,,prithik_1,001,2020_Feb_05_1222,posner,3.1.5,59.89645101548982,
-0.5,0,1,left,1,3,2,0,2,0,1,3,11,1,,,,,,,,,542.9589606,543.4588404000006,544.1764654000008,None,543.4754991,544.1596617000005,544.6770846,None,left,1,0.3461882000001424,544.6770846,None,None,543.4754991,544.6604469000004,0.5113424000001032,0.595086899999842,1.7129297999999835,1.7964359999996304,,,,,,prithik_1,001,2020_Feb_05_1222,posner,3.1.5,59.89645101548982,
0.5,0,0,right,1,4,2,0,2,0,1,4,12,3,,,,,,,,,545.0451669000004,545.5451274000006,546.2628060000006,None,545.5617701000001,546.2458858,546.7632117000003,None,right,1,0.2760892000005697,546.7632117000003,None,None,545.5617701000001,546.7467225,0.5116749000007985,0.5950812000000951,1.7132494000006773,1.7965937000008125,,,,,,prithik_1,001,2020_Feb_05_1222,posner,3.1.5,59.89645101548982,
-0.5,0,1,left,1,3,2,0,2,0,1,5,13,2,,,,,,,,,547.0645898000002,547.5646229000004,548.2820289000001,None,547.5810700000002,548.2655476,548.7829162000007,None,left,1,0.2564530999998169,548.7829162000007,None,None,547.5810700000002,548.7661234000007,0.5117328999995152,0.5950317999995605,1.7132203999999547,1.7965317999996842,,,,,,prithik_1,001,2020_Feb_05_1222,posner,3.1.5,59.89645101548982,
0.5,180,1,right,2,4,2,0,2,0,1,6,14,5,,,,,,,,,549.0670323000004,549.5671479000002,550.2848597000002,None,549.5840790000002,550.2682206,550.7855183000001,None,right,1,0.30172829999992246,550.7855183000001,None,None,549.5840790000002,550.7687019000005,0.5117978999996922,0.595257799999672,1.7133316999997987,1.7969793000002028,,,,,,prithik_1,001,2020_Feb_05_1222,posner,3.1.5,59.89645101548982,
0.5,180,1,right,2,4,2,0,2,0,1,7,15,6,,,,,,,,,551.1032452,551.6035029000004,552.3209215000006,None,551.6199107000002,552.3043366000002,552.8215583000001,None,right,1,0.3376947000006112,552.8215583000001,None,None,551.6199107000002,552.8050524,0.5124027000001661,0.5956551999997828,1.713935599999786,1.797117099999923,,,,,,prithik_1,001,2020_Feb_05_1222,posner,3.1.5,59.89645101548982,
0.5,0,0,right,1,4,2,0,2,0,2,0,16,3,,,,,,,,,553.1891462000003,553.6894497000003,554.4072943000001,None,553.7063259000006,554.390402,554.9078174000006,None,right,1,0.3635992999998052,554.9078174000006,None,None,553.7063259000006,554.8910164000008,0.5116794000005029,0.5951960000002146,1.7132308999998713,1.7969253999999637,,,,,,prithik_1,001,2020_Feb_05_1222,posner,3.1.5,59.89645101548982,
0.5,180,1,right,2,4,2,0,2,0,2,1,17,6,,,,,,,,,555.3065317,555.7923989000001,556.5101639000004,None,555.8092375000006,556.4935714000003,557.0107816,None,right,1,0.36445240000011836,557.0107816,None,None,555.8092375000006,556.9940629000002,0.5102151999999478,0.5937278000001243,1.7118661000004067,1.795270900000105,,,,,,prithik_1,001,2020_Feb_05_1222,posner,3.1.5,59.89645101548982,
0.5,180,1,right,2,4,2,0,2,0,2,2,18,7,,,,,,,,,557.3953231000005,557.8953596000001,558.6130317000006,None,557.9120649000006,558.5963747000005,559.1137826000004,None,right,1,0.3013671999997314,559.1137826000004,None,None,557.9120649000006,559.0969891000004,0.5114755000004152,0.5947666000001846,1.71308130000034,1.7964771000006294,,,,,,prithik_1,001,2020_Feb_05_1222,posner,3.1.5,59.89645101548982,
-0.5,0,1,left,1,3,2,0,2,0,2,3,19,1,,,,,,,,,559.4319344000005,559.931474,560.6490730000005,None,559.9480407000001,560.6324594000007,561.1497965000008,None,left,1,0.29784449999988283,561.1497965000008,None,None,559.9480407000001,561.1331629000006,0.5113739000007627,0.5948580000003858,1.713038900000356,1.7963268000003154,,,,,,prithik_1,001,2020_Feb_05_1222,posner,3.1.5,59.89645101548982,
0.5,180,1,right,2,4,2,0,2,0,2,4,20,5,,,,,,,,,561.4677365000007,561.9677296,562.6852408000004,None,561.9844235,562.6686,563.1858908000004,None,right,1,0.24524689999998373,563.1858908000004,None,None,561.9844235,563.1691391000004,0.5116838000003554,0.5950048000004244,1.7130796000001283,1.7969435000004523,,,,,,prithik_1,001,2020_Feb_05_1222,posner,3.1.5,59.89645101548982,
-0.5,0,1,left,1,3,2,0,2,0,2,5,21,2,,,,,,,,,563.4541650000001,563.9536226,564.6711652000004,None,563.9701985000002,564.6546174000005,565.1721061000007,None,left,1,0.2750319999995554,565.1721061000007,None,None,563.9701985000002,565.1552325000002,0.51119910000034,0.5946039999998902,1.7127920000002632,1.796104000000014,,,,,,prithik_1,001,2020_Feb_05_1222,posner,3.1.5,59.89645101548982,
-0.5,180,0,left,2,3,2,0,2,0,2,6,22,4,,,,,,,,,565.4731603,565.9731757,566.6905383000003,None,565.9896961000004,566.6740869000005,567.1913248000001,None,left,1,0.3118985999999495,567.1913248000001,None,None,565.9896961000004,567.1746831,0.5118668999994043,0.5952729000000545,1.7133530999999493,1.7969137999998566,,,,,,prithik_1,001,2020_Feb_05_1222,posner,3.1.5,59.89645101548982,
-0.5,0,1,left,1,3,2,0,2,0,2,7,23,0,,,,,,,,,567.5260804,568.0258117000003,568.7435339000003,None,568.0426637,568.7269056000005,569.2443237000007,None,left,1,0.3627458000000843,569.2443237000007,None,None,568.0426637,569.2277771000008,0.5114946000003329,0.5948515000000043,1.7134378999999171,1.7966341000001194,,,,,,prithik_1,001,2020_Feb_05_1222,posner,3.1.5,59.89645101548982,
0.5,180,1,right,2,4,2,0,2,0,3,0,24,5,,,,,,,,,569.6287759000006,570.1290428000002,570.8465285000002,None,570.1456335000003,570.8297410000005,571.3470936000003,None,right,1,0.260073100000227,571.3470936000003,None,None,570.1456335000003,571.3304111000007,0.5118286999995689,0.5949393999999302,1.7131812999996328,1.7967437999996037,,,,,,prithik_1,001,2020_Feb_05_1222,posner,3.1.5,59.89645101548982,
0.5,180,1,right,2,4,2,0,2,0,3,1,25,7,,,,,,,,,571.6312563000001,572.1315999000008,572.8490715000007,None,572.1481282000004,572.8324421000007,573.3498836000008,None,left,0,0.2973295000001599,573.3498836000008,None,None,572.1481282000004,573.3330463000002,0.5117573999996239,0.5950598999997965,1.7131866999998238,1.796980000000076,,,,,,prithik_1,001,2020_Feb_05_1222,posner,3.1.5,59.89645101548982,
0.5,180,1,right,2,4,2,0,2,0,3,2,26,6,,,,,,,,,573.6681660000004,574.1675162000001,574.8854641000007,None,574.1843252000008,574.8684680000006,575.3858730000002,None,right,1,0.30126450000079785,575.3858730000002,None,None,574.1843252000008,575.3690788000004,0.5110795999999027,0.5946771999997509,1.712620600000264,1.796520099999725,,,,,,prithik_1,001,2020_Feb_05_1222,posner,3.1.5,59.89645101548982,
0.5,0,0,right,1,4,2,0,2,0,3,3,27,3,,,,,,,,,575.7039503000005,576.2039298,576.9213649000003,None,576.2203826000004,576.9048402000008,577.4219842000002,None,right,1,0.32102390000000014,577.4219842000002,None,None,576.2203826000004,577.4056365000006,0.511472600000161,0.5947684000002482,1.713161499999842,1.796266100000139,,,,,,prithik_1,001,2020_Feb_05_1222,posner,3.1.5,59.89645101548982,
-0.5,0,1,left,1,3,2,0,2,0,3,4,28,0,,,,,,,,,577.7732153000006,578.2734428000003,578.9908994000007,None,578.2899620000007,578.9742398000008,579.4914429,None,left,1,0.2756419999996069,579.4914429,None,None,578.2899620000007,579.4749950000005,0.5118568000007144,0.5953352000005907,1.7134069000003365,1.7967601000000286,,,,,,prithik_1,001,2020_Feb_05_1222,posner,3.1.5,59.89645101548982,
-0.5,0,1,left,1,3,2,0,2,0,3,5,29,2,,,,,,,,,579.7930618,580.2926309000004,581.0102841000007,None,580.3094044,580.9938345,581.5109818000001,None,left,1,0.3284619999994902,581.5109818000001,None,None,580.3094044,581.4945169000002,0.5113805999999386,0.5949376999997185,1.7132486999998946,1.7965213999996195,,,,,,prithik_1,001,2020_Feb_05_1222,posner,3.1.5,59.89645101548982,
-0.5,180,0,left,2,3,2,0,2,0,3,6,30,4,,,,,,,,,581.8626405000005,582.3623163000002,583.0798609000003,None,582.3787618000006,583.0634395000006,583.5805203,None,left,1,0.29856050000034884,583.5805203,None,None,582.3787618000006,583.5639831000008,0.5114364000000933,0.594935400000395,1.713081400000192,1.7966070000002219,,,,,,prithik_1,001,2020_Feb_05_1222,posner,3.1.5,59.89645101548982,
-0.5,0,1,left,1,3,2,0,2,0,3,7,31,1,,,,,,,,,583.8983704000002,584.3981678,585.1161987000005,None,584.4153030000007,585.0992564000007,585.6168654000003,None,left,1,0.3902489999991303,585.6168654000003,None,None,584.4153030000007,585.6000189000006,0.5114297000000079,0.5951874000002135,1.713260800000171,1.7967934999996942,,,,,,prithik_1,001,2020_Feb_05_1222,posner,3.1.5,59.89645101548982,
-0.5,0,1,left,1,3,2,0,2,0,4,0,32,2,,,,,,,,,586.0346176000003,586.5345037000006,587.2522969000001,None,586.5513558000002,587.2356450000007,587.7531046000004,None,left,1,0.34195180000006076,587.7531046000004,None,None,586.5513558000002,587.7363158000007,0.5112613000001147,0.5948340999993889,1.7130590999995547,1.7963643000002776,,,,,,prithik_1,001,2020_Feb_05_1222,posner,3.1.5,59.89645101548982,
0.5,180,1,right,2,4,2,0,2,0,4,1,33,5,,,,,,,,,588.1212933000006,588.6206605000007,589.3382676000001,None,588.6375556000003,589.3218269000008,589.8390195000002,None,right,1,0.31207610000001296,589.8390195000002,None,None,588.6375556000003,589.8224892000007,0.5111439000002065,0.5949258999999074,1.7129547000004095,1.7965688000003865,,,,,,prithik_1,001,2020_Feb_05_1222,posner,3.1.5,59.89645101548982,
0.5,180,1,right,2,4,2,0,2,0,4,2,34,6,,,,,,,,,590.1740746000005,590.6737122000004,591.3913730000004,None,590.6902375,591.3747808000007,591.8922480000001,None,right,1,0.46681730000000243,591.8922480000001,None,None,590.6902375,591.8754435999999,0.5111956000000646,0.5945741999994425,1.7129077999998117,1.7962689999994836,,,,,,prithik_1,001,2020_Feb_05_1222,posner,3.1.5,59.89645101548982,
0.5,0,0,right,1,4,2,0,2,0,4,3,35,3,,,,,,,,,592.3778426000008,592.8770141000005,593.5942840000007,None,592.8934749,593.5777457000004,594.0950184000003,592.3778426000008,right,1,0.2959496000003128,594.0950184000003,None,None,592.8934749,594.0782495000003,0.5112581000003047,0.5942947000003187,1.712485199999719,1.7962360999999873,,,,,,prithik_1,001,2020_Feb_05_1222,posner,3.1.5,59.89645101548982,
-0.5,180,0,left,2,3,2,0,2,0,4,4,36,4,,,,,,,,,594.4132748000002,594.9129828000005,595.6304332,None,594.9293702000004,595.6137553000008,596.1311362000006,None,left,1,0.29989710000063496,596.1311362000006,None,None,594.9293702000004,596.1146165,0.5117108999993434,0.5952337999997326,1.713319199999205,1.7965958999993745,,,,,,prithik_1,001,2020_Feb_05_1222,posner,3.1.5,59.89645101548982,
0.5,180,1,right,2,4,2,0,2,0,4,5,37,7,,,,,,,,,596.4490938000008,596.949063,597.6666494000001,None,596.9658397000003,597.6499557000006,598.1674867000002,None,right,1,0.23969279999982973,598.1674867000002,None,None,596.9658397000003,598.1507717000004,0.5117053999993004,0.5950661999995646,1.713392799999383,1.7968855999997686,,,,,,prithik_1,001,2020_Feb_05_1222,posner,3.1.5,59.89645101548982,
-0.5,0,1,left,1,3,2,0,2,0,4,6,38,1,,,,,,,,,598.4351952000006,598.9350360000008,599.6528588000001,None,598.9519832000005,599.6360863,600.1535282000004,None,left,1,0.2933959000001778,600.1535282000004,None,None,598.9519832000005,600.1367238000003,0.5113957000003211,0.5946973000000071,1.7130575999999564,1.7964936999997008,,,,,,prithik_1,001,2020_Feb_05_1222,posner,3.1.5,59.89645101548982,
-0.5,0,1,left,1,3,2,0,2,0,4,7,39,0,,,,,,,,,600.4711713000006,600.9710750000004,601.6888398000001,None,600.9879554000008,601.6721712000008,602.1894069,None,left,1,0.321628800000326,602.1894069,None,None,600.9879554000008,602.1727704000004,0.5115737000005538,0.5951620000005278,1.7132449999999153,1.7968324000003122,,,,,,prithik_1,001,2020_Feb_05_1222,posner,3.1.5,59.89645101548982,
0.5,180,1,right,2,4,2,0,2,0,5,0,40,7,,,,,,,,,602.5406753000007,603.0406492000002,603.7581524000007,None,603.0575731000008,603.7415652,604.2590491000001,None,right,1,0.24436060000061843,604.2590491000001,None,None,603.0575731000008,604.2424285000006,0.5114772999995694,0.5948388999995586,1.713232899999639,1.796772400000009,,,,,,prithik_1,001,2020_Feb_05_1222,posner,3.1.5,59.89645101548982,
-0.5,0,1,left,1,3,2,0,2,0,5,1,41,0,,,,,,,,,604.5271681000004,605.0268979000002,605.7444584000004,None,605.0434414000001,605.7278937000001,606.2450216000007,None,left,1,0.25788639999973384,606.2450216000007,None,None,605.0434414000001,606.2283723,0.5113553000001048,0.5945734000006269,1.712813900000583,1.79663790000086,,,,,,prithik_1,001,2020_Feb_05_1222,posner,3.1.5,59.89645101548982,
-0.5,0,1,left,1,3,2,0,2,0,5,2,42,1,,,,,,,,,606.5290992,607.0295168000002,607.7472740000003,None,607.0462113000003,607.7303959999999,608.2480232000007,None,left,1,0.3108567999997831,608.2480232000007,None,None,607.0462113000003,608.2309832000001,0.5121968000003108,0.5956309000002875,1.7136429000001954,1.7973429000003307,,,,,,prithik_1,001,2020_Feb_05_1222,posner,3.1.5,59.89645101548982,
0.5,180,1,right,2,4,2,0,2,0,5,3,43,6,,,,,,,,,608.5816532000008,609.0824594000005,609.7998137000004,None,609.0988568000002,609.7832714000006,610.3004739000007,None,right,1,0.2825182999995377,610.3004739000007,None,None,609.0988568000002,610.2839105000003,0.5117697999994562,0.5950865999993766,1.7132071999994878,1.7967076999993878,,,,,,prithik_1,001,2020_Feb_05_1222,posner,3.1.5,59.89645101548982,
-0.5,180,0,left,2,3,2,0,2,0,5,4,44,4,,,,,,,,,610.6021479999999,611.1017196000003,611.8192973000005,None,611.1183963000003,611.8028361000006,612.3200688000006,None,left,1,0.21490569999969011,612.3200688000006,None,None,611.1183963000003,612.3034448000008,0.5116062999995847,0.5949267999994845,1.7130317000001014,1.7967298999992636,,,,,,prithik_1,001,2020_Feb_05_1222,posner,3.1.5,59.89645101548982,
-0.5,0,1,left,1,3,2,0,2,0,5,5,45,2,,,,,,,,,612.5544357000008,613.0543880000005,613.7722028000007,None,613.0711623000007,613.7554703000005,614.2729002000005,None,left,1,0.294201300000168,614.2729002000005,None,None,613.0711623000007,614.2559683,0.5114081000001534,0.5948767999998381,1.7129641000001357,1.796562399999857,,,,,,prithik_1,001,2020_Feb_05_1222,posner,3.1.5,59.89645101548982,
0.5,180,1,right,2,4,2,0,2,0,5,6,46,5,,,,,,,,,614.5912191000007,615.0903290000006,615.8083492000005,None,615.1073983000006,615.7916961999999,616.3089281000002,None,right,1,0.2740772000006473,616.3089281000002,None,None,615.1073983000006,616.2923859000002,0.5109781000001021,0.594591400000354,1.7130176000000574,1.7963862000005975,,,,,,prithik_1,001,2020_Feb_05_1222,posner,3.1.5,59.89645101548982,
0.5,0,0,right,1,4,2,0,2,0,5,7,47,3,,,,,,,,,616.6095439000001,617.1099631000006,617.8277696000005,None,617.1266385000008,617.8109847000005,618.3282493000006,None,right,1,0.3827368000002025,618.3282493000006,None,None,617.1266385000008,618.3118718000005,0.5122683999998117,0.5955885999992461,1.7141548999998122,1.7972960999995848,,,,,,prithik_1,001,2020_Feb_05_1222,posner,3.1.5,59.89645101548982,
0.5,180,1,right,2,4,2,0,2,0,6,0,48,6,,,,,,,,,618.7298034000005,619.2296261000001,619.9473735000001,None,619.2464792000001,619.9306705000008,620.4481159000006,None,right,1,0.29467969999950583,620.4481159000006,None,None,619.2464792000001,620.4312734000005,0.5114399000003687,0.5949362000001202,1.7130750999995144,1.7965299999996205,,,,,,prithik_1,001,2020_Feb_05_1222,posner,3.1.5,59.89645101548982,
-0.5,0,1,left,1,3,2,0,2,0,6,1,49,1,,,,,,,,,620.7659815000006,621.2657735000003,621.9836500000001,None,621.2823861000006,621.9668845000006,622.4841450000004,None,left,1,0.24273150000044552,622.4841450000004,None,None,621.2823861000006,622.4675005000008,0.5114243999996688,0.5948718999998164,1.7131343999999444,1.7966256999998222,,,,,,prithik_1,001,2020_Feb_05_1222,posner,3.1.5,59.89645101548982,
0.5,180,1,right,2,4,2,0,2,0,6,2,50,7,,,,,,,,,622.7517613,623.2519046000007,623.9692126,None,623.2683035,623.9527832000003,624.4701503000006,None,right,1,0.2647495000001072,624.4701503000006,None,None,623.2683035,624.4534573999999,0.5118608000002496,0.5952624999999898,1.7133958000003986,1.7968220000002475,,,,,,prithik_1,001,2020_Feb_05_1222,posner,3.1.5,59.89645101548982,
-0.5,0,1,left,1,3,2,0,2,0,6,3,51,0,,,,,,,,,624.7546956000006,625.2545465000003,625.9721099000008,None,625.2713018000004,625.9554873000006,626.4729313000007,None,left,1,0.27823330000046553,626.4729313000007,None,None,625.2713018000004,626.4562458,0.5112242000004699,0.5945835000002262,1.7129089999998541,1.7960899999998219,,,,,,prithik_1,001,2020_Feb_05_1222,posner,3.1.5,59.89645101548982,
0.5,180,1,right,2,4,2,0,2,0,6,4,52,5,,,,,,,,,626.7742178000008,627.2740301000003,627.9916118000001,None,627.2906297,627.9749475000008,628.4923757000006,None,right,1,0.24248160000024654,628.4923757000006,None,None,627.2906297,628.4757195000002,0.5113097000003108,0.5948404000000664,1.7129807000001165,1.7962633000006463,,,,,,prithik_1,001,2020_Feb_05_1222,posner,3.1.5,59.89645101548982,
-0.5,0,1,left,1,3,2,0,2,0,6,5,53,2,,,,,,,,,628.7598310000003,629.2600189000004,629.9778510000006,None,629.2769431000006,629.9608981000001,630.4782658000004,None,left,1,0.27261670000007143,630.4782658000004,None,None,629.2769431000006,630.4618421000005,0.5116226000000097,0.5951569999997446,1.7134219999998095,1.7967153999998118,,,,,,prithik_1,001,2020_Feb_05_1222,posner,3.1.5,59.89645101548982,
0.5,0,0,right,1,4,2,0,2,0,6,6,54,3,,,,,,,,,630.7789012000003,631.2793576000004,631.9972440000001,None,631.2962698000001,631.9802400000008,632.4976528000007,None,right,1,0.3251801999995223,632.4976528000007,None,None,631.2962698000001,632.4810216000005,0.5122523999998521,0.5958486999998058,1.713906400000269,1.7976142999996227,,,,,,prithik_1,001,2020_Feb_05_1222,posner,3.1.5,59.89645101548982,
-0.5,180,0,left,2,3,2,0,2,0,6,7,55,4,,,,,,,,,632.8489690000006,633.3489163000004,634.0666708000008,None,633.3657706000004,634.0501322,634.5674218000004,None,left,1,0.2235324999992372,634.5674218000004,None,None,633.3657706000004,634.5506449000004,0.5118193999996947,0.5954050000000279,1.713525999999547,1.7969967999997607,,,,,,prithik_1,001,2020_Feb_05_1222,posner,3.1.5,59.89645101548982,
-0.5,0,1,left,1,3,2,0,2,0,7,0,56,1,,,,,,,,,634.8185274000007,635.3183383000005,636.0360550000005,None,635.3351619000005,636.0192218000002,636.5367832000002,None,left,1,0.3179516000000149,636.5367832000002,None,None,635.3351619000005,636.5198449,0.5115989000005357,0.5951574000000619,1.7130919000001086,1.7969178000003012,,,,,,prithik_1,001,2020_Feb_05_1222,posner,3.1.5,59.89645101548982,
-0.5,0,1,left,1,3,2,0,2,0,7,1,57,2,,,,,,,,,636.8710785000003,637.3713359000003,638.0887139000006,None,637.3880063000006,638.0722848000005,638.5893493000003,None,left,1,0.3134844999995039,638.5893493000003,None,None,637.3880063000006,638.5728357000007,0.5121472999999241,0.5954525999995894,1.7136179999997694,1.7971560999994836,,,,,,prithik_1,001,2020_Feb_05_1222,posner,3.1.5,59.89645101548982,
0.5,180,1,right,2,4,2,0,2,0,7,2,58,6,,,,,,,,,638.9237468000001,639.4240287000002,640.1416789000004,None,639.4406607000001,640.1250233000001,640.6424529000005,None,right,1,0.33248100000037084,640.6424529000005,None,None,639.4406607000001,640.6256998000008,0.5119005000005927,0.5953923000006398,1.7135501000002478,1.7969347000007474,,,,,,prithik_1,001,2020_Feb_05_1222,posner,3.1.5,59.89645101548982,
-0.5,0,1,left,1,3,2,0,2,0,7,3,59,0,,,,,,,,,640.9938631000005,641.4935834000007,642.2114582000004,None,641.5101109000007,642.1946363000006,642.7120232000007,None,left,1,0.30285409999942203,642.7120232000007,None,None,641.5101109000007,642.6950677000004,0.5113756999999168,0.5946745999999621,1.7128437999999733,1.7963975999991817,,,,,,prithik_1,001,2020_Feb_05_1222,posner,3.1.5,59.89645101548982,
0.5,0,0,right,1,4,2,0,2,0,7,4,60,3,,,,,,,,,643.0459610000007,643.5465698000007,644.2640711000004,None,643.5632805000005,644.2471494000001,644.7647124000005,None,right,1,0.2981311999992613,644.7647124000005,None,None,643.5632805000005,644.7479441000005,0.512038300000313,0.5951212999998461,1.713394899999912,1.797170100000585,,,,,,prithik_1,001,2020_Feb_05_1222,posner,3.1.5,59.89645101548982,
0.5,180,1,right,2,4,2,0,2,0,7,5,61,7,,,,,,,,,645.0826852,645.5825391000008,646.2999247000007,None,645.5990860000002,646.2833739000007,646.8007733000004,None,right,1,0.32598849999976665,646.8007733000004,None,None,645.5990860000002,646.7840391,0.5115289999994275,0.5948480999995809,1.7130159999996977,1.7965056000002733,,,,,,prithik_1,001,2020_Feb_05_1222,posner,3.1.5,59.89645101548982,
0.5,180,1,right,2,4,2,0,2,0,7,6,62,5,,,,,,,,,647.1521629000008,647.6520218000005,648.3696022000004,None,647.6685573000004,648.3528713000005,648.8703464,None,right,1,0.26442670000051294,648.8703464,None,None,647.6685573000004,648.8537425000004,0.5115868999992017,0.5950211999997919,1.7132833999994546,1.7965950999996494,,,,,,prithik_1,001,2020_Feb_05_1222,posner,3.1.5,59.89645101548982,
-0.5,180,0,left,2,3,2,0,2,0,7,7,63,4,,,,,,,,,649.1551598000005,649.6548263000004,650.3724192,None,649.671531,650.3557418,650.8730965000004,None,left,1,0.27757350000047154,650.8730965000004,None,None,649.671531,650.8566820000005,0.5114855000001626,0.5948734000003242,1.7133198999999877,1.7964277000000948,,,,,,prithik_1,001,2020_Feb_05_1222,posner,3.1.5,59.89645101548982,
-0.5,0,1,left,1,3,2,0,2,0,8,0,64,2,,,,,,,,,651.1745426000007,651.6741732,652.3919920000008,None,651.6907461000001,652.3751814000007,652.8926452000005,None,left,1,0.32209080000029644,652.8926452000005,None,None,651.6907461000001,652.8759234000008,0.5112160000007862,0.5946806000001743,1.7129813000001377,1.796200000000681,,,,,,prithik_1,001,2020_Feb_05_1222,posner,3.1.5,59.89645101548982,
0.5,180,1,right,2,4,2,0,2,0,8,1,65,6,,,,,,,,,653.2437677000007,653.7436586000003,654.4614766000004,None,653.7602386000008,654.4446389000004,654.9621338000006,None,right,1,0.32452459999967687,654.9621338000006,None,None,653.7602386000008,654.9453543,0.5113792000001922,0.594878100000642,1.7130581999999777,1.7964637000004586,,,,,,prithik_1,001,2020_Feb_05_1222,posner,3.1.5,59.89645101548982,
0.5,0,0,right,1,4,2,0,2,0,8,2,66,3,,,,,,,,,655.3134263000002,655.8133499000005,656.5308945000006,None,655.8298993000008,656.5141268000007,657.0316038000001,None,right,1,0.35103330000038113,657.0316038000001,None,None,655.8298993000008,657.0149042000003,0.5114742999994633,0.5949763999997231,1.7130144999991899,1.796335299999555,,,,,,prithik_1,001,2020_Feb_05_1222,posner,3.1.5,59.89645101548982,
-0.5,180,0,left,2,3,2,0,2,0,8,3,67,4,,,,,,,,,657.3987652000005,657.8992851000003,658.6171730000005,None,657.9165559000003,658.6003723000003,659.1179051000008,659.6017272000008,left,1,0.7446863000004669,659.1179051000008,None,None,657.9165559000003,659.1010546000007,0.5121300000000701,0.595752000000175,1.7138758999999482,1.797381399999722,,,,,,prithik_1,001,2020_Feb_05_1222,posner,3.1.5,59.89645101548982,
0.5,180,1,right,2,4,2,0,2,0,8,4,68,5,,,,,,,,,659.8862765000003,660.3864101000008,661.1039116000002,None,660.40294,661.0873053000005,661.6046175000001,None,right,1,0.32211439999991853,661.6046175000001,None,None,660.40294,661.5877200000004,0.5118320999999924,0.594722300000285,1.7131280000003244,1.7966885000005277,,,,,,prithik_1,001,2020_Feb_05_1222,posner,3.1.5,59.89645101548982,
-0.5,0,1,left,1,3,2,0,2,0,8,5,69,0,,,,,,,,,661.9550375000008,662.4556931000006,663.1733517000002,None,662.4722996,663.1567037000004,663.6738235000003,None,left,1,0.4288061999995989,663.6738235000003,None,None,662.4722996,663.6576859000006,0.5124518999991778,0.595699099999365,1.7144070999993346,1.7973181999996086,,,,,,prithik_1,001,2020_Feb_05_1222,posner,3.1.5,59.89645101548982,
-0.5,0,1,left,1,3,2,0,2,0,8,6,70,1,,,,,,,,,664.1252867000003,664.6253715000003,665.3430529000007,None,664.6421522,665.3263846,665.8436047000005,None,left,1,0.2990685000004305,665.8436047000005,None,None,664.6421522,665.8269564000002,0.5114907999995921,0.5947821999998268,1.7130647999993016,1.7966067999996085,,,,,,prithik_1,001,2020_Feb_05_1222,posner,3.1.5,59.89645101548982,
0.5,180,1,right,2,4,2,0,2,0,8,7,71,7,,,,,,,,,666.1615476000006,666.6614230000005,667.3790442,None,666.6780142000007,667.3625915000002,667.8797846000007,None,right,1,0.24688639999931183,667.8797846000007,None,None,666.6780142000007,667.8631358000002,0.5115906999999424,0.5951389000001654,1.7132818000000043,1.797063299999536,,,,,,prithik_1,001,2020_Feb_05_1222,posner,3.1.5,59.89645101548982,
