targetX,cueOri,congr,corrAns,pin_cue,pin_target,block.thisRepN,block.thisTrialN,block.thisN,block.thisIndex,posner_task.thisRepN,posner_task.thisTrialN,posner_task.thisN,posner_task.thisIndex,port_start_block.started,port_start_block.stopped,text_2.started,text_2.stopped,p_port.started,p_port.stopped,text.started,text.stopped,fixation_1.started,fixation_1.stopped,fixation_2.started,fixation_2.stopped,cue.started,cue.stopped,target.started,target.stopped,correct_key_resp.keys,correct_key_resp.corr,correct_key_resp.started,correct_key_resp.stopped,early_resp.keys,early_resp.started,early_resp.stopped,trigger_cue.started,trigger_cue.stopped,trigger_target.started,trigger_target.stopped,correct_key_resp.rt,break_text.started,break_text.stopped,end_port.started,end_port.stopped,participant,session,date,expName,psychopyVersion,frameRate,
-0.5,0,1,left,1,3,0,0,0,0,0,0,0,0,1.7300000308750896e-05,0.09453759999996691,23.515386600000056,None,1.4199999895936344e-05,0.09948720000011235,25.401150000000143,None,25.74029449999989,26.235424899999998,26.953246399999898,None,26.25244879999991,26.93656460000011,27.454024499999832,27.937886600000184,None,0,27.454024499999832,None,None,26.25244879999991,27.437519500000235,0.5043781000003946,0.5879479000000174,1.7064488000000892,1.789382000000387,,,,,,nat_1,001,2020_Jan_31_1418,posner,3.1.5,59.96339834168466,
-0.5,0,1,left,1,3,0,0,0,0,0,1,1,1,,,,,,,,,28.171281999999792,28.67209180000009,29.3896064999999,None,28.688823800000137,29.373240899999928,29.89052529999981,None,left,1,29.89052529999981,None,None,28.688823800000137,29.87389519999988,0.5147295000001577,0.5983158000003641,1.7165102000003571,1.7999338000004172,0.3164622999997846,,,,,nat_1,001,2020_Jan_31_1418,posner,3.1.5,59.96339834168466,
0.5,180,1,right,2,4,0,0,0,0,0,2,2,5,,,,,,,,,30.224859699999797,30.725239700000202,31.442676399999982,None,30.741727600000104,31.42617509999991,31.943425299999944,None,right,1,31.943425299999944,None,None,30.741727600000104,31.926811799999996,0.5116301999996722,0.5946724999998878,1.713191199999983,1.7963119999999435,0.31148099999973056,,,,,nat_1,001,2020_Jan_31_1418,posner,3.1.5,59.96339834168466,
0.5,180,1,right,2,4,0,0,0,0,0,3,3,6,,,,,,,,,32.27799390000018,32.7779043999999,33.49557340000001,None,32.79446569999982,33.47874249999995,33.9962172999999,None,right,1,33.9962172999999,None,None,32.79446569999982,33.979413699999895,0.5113836999998966,0.594637000000148,1.7128806000000623,1.7964897000001656,0.32272939999984374,,,,,nat_1,001,2020_Jan_31_1418,posner,3.1.5,59.96339834168466,
0.5,180,1,right,2,4,0,0,0,0,0,4,4,7,,,,,,,,,34.34713469999997,34.84749640000018,35.56498439999996,None,34.86404700000003,35.548200799999904,36.065867400000116,None,right,1,36.065867400000116,None,None,34.86404700000003,36.04879519999986,0.5118837999998505,0.595122100000026,1.7131717000002027,1.796893799999907,0.36489380000011806,,,,,nat_1,001,2020_Jan_31_1418,posner,3.1.5,59.96339834168466,
-0.5,0,1,left,1,3,0,0,0,0,0,5,5,2,,,,,,,,,36.449648100000104,36.95019730000013,37.667916700000205,None,36.96707719999995,37.65126719999989,38.16852800000015,None,left,1,38.16852800000015,None,None,36.96707719999995,38.152192900000045,0.5121858000002248,0.5956206999999267,1.714154199999939,1.7974076000000423,0.31041700000014316,,,,,nat_1,001,2020_Jan_31_1418,posner,3.1.5,59.96339834168466,
0.5,0,0,right,1,4,0,0,0,0,0,6,6,3,,,,,,,,,38.5032240999999,39.003064600000016,39.720620300000064,None,39.019657299999835,39.70403810000016,40.2212899000001,None,right,1,40.2212899000001,None,None,39.019657299999835,40.20473540000012,0.5116259999999784,0.5952395999997862,1.7132723999998234,1.7966153999996095,0.3695714999998927,,,,,nat_1,001,2020_Jan_31_1418,posner,3.1.5,59.96339834168466,
-0.5,180,0,left,2,3,0,0,0,0,0,7,7,4,,,,,,,,,40.62276840000004,41.12256410000009,41.840375100000074,None,41.13919100000021,41.82365359999994,42.34084470000016,None,left,1,42.34084470000016,None,None,41.13919100000021,42.32447400000001,0.5115292000000409,0.5951580000000831,1.7134187999999995,1.7966292000000976,0.3618891999999505,,,,,nat_1,001,2020_Jan_31_1418,posner,3.1.5,59.96339834168466,
-0.5,0,1,left,1,3,0,0,0,0,1,0,8,2,,,,,,,,,42.72514940000019,43.2256668,43.943052799999805,None,43.242184499999894,43.92643649999991,44.44407890000002,None,left,1,44.44407890000002,None,None,43.242184499999894,44.427199499999915,0.5122873000000254,0.595507600000019,1.7138033999999607,1.7970506999999998,0.2906548999999359,,,,,nat_1,001,2020_Jan_31_1418,posner,3.1.5,59.96339834168466,
0.5,0,0,right,1,4,0,0,0,0,1,1,9,3,,,,,,,,,44.76155870000002,45.26148280000007,45.97933349999994,None,45.27831430000015,45.96269480000001,46.47983169999998,None,right,1,46.47983169999998,None,None,45.27831430000015,46.46324510000022,0.5113984999998138,0.5950063999998747,1.7131283999997322,1.796681499999977,0.3670305999999073,,,,,nat_1,001,2020_Jan_31_1418,posner,3.1.5,59.96339834168466,
0.5,180,1,right,2,4,0,0,0,0,1,2,10,5,,,,,,,,,46.864840300000196,47.36463279999998,48.082251499999984,None,47.38119649999999,48.065514800000074,48.58292859999983,None,right,1,48.58292859999983,None,None,47.38119649999999,48.56630379999979,0.5112283999997089,0.5946521999999277,1.712873099999797,1.796267899999748,0.328138499999568,,,,,nat_1,001,2020_Jan_31_1418,posner,3.1.5,59.96339834168466,
-0.5,0,1,left,1,3,0,0,0,0,1,3,11,0,,,,,,,,,48.9343558999999,49.43429650000007,50.1517417,None,49.450960399999985,50.13514639999994,50.65279390000023,None,left,1,50.65279390000023,None,None,49.450960399999985,50.63573619999988,0.5114652000002025,0.5947144000001572,1.7128875000003063,1.7962409000001571,0.32200960000000123,,,,,nat_1,001,2020_Jan_31_1418,posner,3.1.5,59.96339834168466,
0.5,180,1,right,2,4,0,0,0,0,1,4,12,7,,,,,,,,,51.00390389999984,51.50373609999997,52.22145229999978,None,51.520295199999964,52.204763300000195,52.721959999999854,None,right,1,52.721959999999854,None,None,51.520295199999964,52.705371000000014,0.511474200000066,0.5947854999999436,1.7130926999998337,1.7963538999997581,0.28475909999997384,,,,,nat_1,001,2020_Jan_31_1418,posner,3.1.5,59.96339834168466,
-0.5,180,0,left,2,3,0,0,0,0,1,5,13,4,,,,,,,,,53.023500499999955,53.52317129999983,54.24060120000013,None,53.53949659999989,54.224047600000176,54.7413932999998,None,left,1,54.7413932999998,None,None,53.53949659999989,54.7246911000002,0.5113268999998581,0.5944807000000765,1.7128352999998242,1.7961049000000457,0.31333619999986695,,,,,nat_1,001,2020_Jan_31_1418,posner,3.1.5,59.96339834168466,
-0.5,0,1,left,1,3,0,0,0,0,1,6,14,1,,,,,,,,,55.075518399999964,55.57587280000007,56.29355200000009,None,55.59250750000001,56.276862600000186,56.79420500000015,None,left,1,56.79420500000015,None,None,55.59250750000001,56.77747469999986,0.511572100000194,0.5950246000002153,1.7131579000001693,1.7964773000003333,0.29247910000003685,,,,,nat_1,001,2020_Jan_31_1418,posner,3.1.5,59.96339834168466,
0.5,180,1,right,2,4,0,0,0,0,1,7,15,6,,,,,,,,,57.11202180000009,57.612070799999856,58.32959070000015,None,57.62862210000003,58.31297760000007,58.83013600000004,59.31449109999994,None,0,58.83013600000004,None,None,57.62862210000003,58.81357900000012,0.5115445000001273,0.5949620000001232,1.7130448000002616,1.7966455000000678,,,,,,nat_1,001,2020_Jan_31_1418,posner,3.1.5,59.96339834168466,
-0.5,0,1,left,1,3,0,0,0,0,2,0,16,1,,,,,,,,,59.81495899999982,60.31566380000004,61.03337079999983,59.81495899999982,60.332566099999895,61.01674110000022,61.53407470000002,None,left,1,61.53407470000002,None,None,60.332566099999895,61.517242700000224,0.5136352999998053,0.5969670999998016,1.7151999999996406,1.7987317999995867,0.3206101000000672,,,,,nat_1,001,2020_Jan_31_1418,posner,3.1.5,59.96339834168466,
-0.5,0,1,left,1,3,0,0,0,0,2,1,17,2,,,,,,,,,61.88576830000011,62.38506589999997,63.10292769999978,None,62.40202709999994,63.0861288000001,63.60364010000012,None,left,1,63.60364010000012,None,None,62.40202709999994,63.58686690000013,0.5103883000001588,0.5939402000003611,1.7121658000000934,1.7957526000000144,0.33111959999996543,,,,,nat_1,001,2020_Jan_31_1418,posner,3.1.5,59.96339834168466,
0.5,180,1,right,2,4,0,0,0,0,2,2,18,6,,,,,,,,,63.95552690000022,64.4547907000001,65.17241240000021,None,64.4713998000002,65.1556873999998,65.67314020000003,None,right,1,65.67314020000003,None,None,64.4713998000002,65.65643099999988,0.5109576999998353,0.5941361999998662,1.7125842000000375,1.7959797999997136,0.2774842999997418,,,,,nat_1,001,2020_Jan_31_1418,posner,3.1.5,59.96339834168466,
-0.5,0,1,left,1,3,0,0,0,0,2,3,19,0,,,,,,,,,65.97432710000021,66.47427049999988,67.19196909999982,None,66.49080649999996,67.1750305999999,67.69257430000016,None,left,1,67.69257430000016,None,None,66.49080649999996,67.67589929999986,0.5114550000002964,0.5947479999999814,1.7130630999999994,1.796383600000354,0.29018660000019736,,,,,nat_1,001,2020_Jan_31_1418,posner,3.1.5,59.96339834168466,
0.5,0,0,right,1,4,0,0,0,0,2,4,20,3,,,,,,,,,68.01013349999994,68.51007630000004,69.22796999999991,None,68.52701949999982,69.21109320000005,69.72874749999983,None,right,1,69.72874749999983,None,None,68.52701949999982,69.71194449999984,0.5113262999998369,0.5950388000001112,1.7131749999998647,1.7966781999998602,0.334239400000115,,,,,nat_1,001,2020_Jan_31_1418,posner,3.1.5,59.96339834168466,
-0.5,180,0,left,2,3,0,0,0,0,2,5,21,4,,,,,,,,,70.07968900000014,70.57957429999988,71.2974365,None,70.59649930000023,71.28069770000002,71.79807840000012,None,left,1,71.79807840000012,None,None,70.59649930000023,71.78149540000004,0.5114395000000513,0.5952768000001925,1.7133672999998453,1.7966965000000528,0.3604549000001498,,,,,nat_1,001,2020_Jan_31_1418,posner,3.1.5,59.96339834168466,
0.5,180,1,right,2,4,0,0,0,0,2,6,22,5,,,,,,,,,72.18286910000006,72.6829260999998,73.40014269999983,None,72.69923030000018,73.38378130000001,73.90088710000009,None,right,1,73.90088710000009,None,None,72.69923030000018,73.88447649999989,0.5115362999999888,0.5946702000001096,1.7130687999997463,1.7964604999997391,0.32175039999992805,,,,,nat_1,001,2020_Jan_31_1418,posner,3.1.5,59.96339834168466,
0.5,180,1,right,2,4,0,0,0,0,2,7,23,7,,,,,,,,,74.25226539999994,74.75242829999979,75.4697583000002,None,74.76874420000013,75.45325860000003,75.9704327999998,None,right,1,75.9704327999998,None,None,74.76874420000013,75.95400569999993,0.5117302000003292,0.5949593000000277,1.713295200000175,1.796596000000136,0.3003500999998323,,,,,nat_1,001,2020_Jan_31_1418,posner,3.1.5,59.96339834168466,
-0.5,0,1,left,1,3,0,0,0,0,3,0,24,2,,,,,,,,,76.28847459999997,76.78838499999983,77.5061426000002,None,76.80516140000009,77.48911839999982,78.00684589999992,None,left,1,78.00684589999992,None,None,76.80516140000009,77.98987870000019,0.5114278000000922,0.5948781000001873,1.7129041000002871,1.7963535000003503,0.2958174999998846,,,,,nat_1,001,2020_Jan_31_1418,posner,3.1.5,59.96339834168466,
-0.5,0,1,left,1,3,0,0,0,0,3,1,25,0,,,,,,,,,78.3249608000001,78.82456910000019,79.54206890000023,None,78.84102429999984,79.52551619999986,80.0429138999998,None,left,1,80.0429138999998,None,None,78.84102429999984,80.02625380000018,0.5113093999998455,0.5947332000000642,1.712978000000021,1.7961880000002566,0.3238128000002689,,,,,nat_1,001,2020_Jan_31_1418,posner,3.1.5,59.96339834168466,
0.5,180,1,right,2,4,0,0,0,0,3,2,26,5,,,,,,,,,80.39404969999987,80.89405140000008,81.61150690000022,None,80.91052850000005,81.59498190000022,82.11252839999997,None,right,1,82.11252839999997,None,None,80.91052850000005,82.09568549999995,0.5113804999996319,0.5946355999999469,1.7130026999998336,1.7963327999996181,0.30206800000041767,,,,,nat_1,001,2020_Jan_31_1418,posner,3.1.5,59.96339834168466,
0.5,180,1,right,2,4,0,0,0,0,3,3,27,6,,,,,,,,,82.43026999999984,82.9300346,83.64788940000017,None,82.94692609999993,83.63090120000015,84.14860570000019,None,right,1,84.14860570000019,None,None,82.94692609999993,84.13181840000016,0.5113945000002786,0.5950283000001946,1.7131650000001173,1.7963838000000578,0.25008070000012594,,,,,nat_1,001,2020_Jan_31_1418,posner,3.1.5,59.96339834168466,
0.5,0,0,right,1,4,0,0,0,0,3,4,28,3,,,,,,,,,84.41573879999987,84.9163480000002,85.63368679999985,None,84.9329902999998,85.61730649999981,86.13485029999993,None,right,1,86.13485029999993,None,None,84.9329902999998,86.11762820000013,0.5121315999999752,0.5953366000003371,1.7134048000002622,1.7970767000001615,0.34366339999996853,,,,,nat_1,001,2020_Jan_31_1418,posner,3.1.5,59.96339834168466,
-0.5,180,0,left,2,3,0,0,0,0,3,5,29,4,,,,,,,,,86.5027482999999,87.00248310000006,87.71985610000002,None,87.01880080000001,87.70362530000011,88.22060499999998,None,left,1,88.22060499999998,None,None,87.01880080000001,88.20407819999991,0.5115384000000631,0.5948053000001892,1.713126000000102,1.7966053000000102,0.35389729999997144,,,,,nat_1,001,2020_Jan_31_1418,posner,3.1.5,59.96339834168466,
0.5,180,1,right,2,4,0,0,0,0,3,6,30,7,,,,,,,,,88.60479140000007,89.10526470000013,89.82286169999998,None,89.12211919999982,89.80638829999998,90.3235193999999,None,right,1,90.3235193999999,None,None,89.12211919999982,90.30720629999996,0.5116254999998091,0.5948668000000907,1.713539899999887,1.796644500000184,0.34710720000020956,,,,,nat_1,001,2020_Jan_31_1418,posner,3.1.5,59.96339834168466,
-0.5,0,1,left,1,3,0,0,0,0,3,7,31,1,,,,,,,,,90.69163019999996,91.19146039999987,91.90912359999993,None,91.20796950000022,91.89248720000023,92.4096797000002,None,left,1,92.4096797000002,None,None,91.20796950000022,92.39314580000018,0.5113440000000082,0.5951078999996753,1.7130009999996219,1.796447199999875,0.27682580000009693,,,,,nat_1,001,2020_Jan_31_1418,posner,3.1.5,59.96339834168466,
-0.5,0,1,left,1,3,0,0,0,0,4,0,32,1,,,,,,,,,92.7108146999999,93.21072379999987,93.9284845000002,None,93.22748020000017,93.91196769999988,94.42914070000006,None,left,1,94.42914070000006,None,None,93.22748020000017,94.41266140000016,0.5112099000002672,0.5948226999998951,1.7131279000000177,1.7965549000000465,0.30546540000023015,,,,,nat_1,001,2020_Jan_31_1418,posner,3.1.5,59.96339834168466,
-0.5,0,1,left,1,3,0,0,0,0,4,1,33,2,,,,,,,,,94.76371710000012,95.26384009999992,95.98133009999992,None,95.2803543,95.9645558000002,96.48233750000009,None,left,1,96.48233750000009,None,None,95.2803543,96.46575359999997,0.511499200000344,0.5947883000003458,1.7133914000000914,1.7965203000003385,0.3163030999999137,,,,,nat_1,001,2020_Jan_31_1418,posner,3.1.5,59.96339834168466,
0.5,180,1,right,2,4,0,0,0,0,4,2,34,5,,,,,,,,,96.81651360000023,97.31674930000008,98.0342556999999,None,97.33312710000018,98.01735270000017,98.5349798000002,None,right,1,98.5349798000002,None,None,97.33312710000018,98.51808470000014,0.5117771000000175,0.5950339999999414,1.7130802000001495,1.7968630999998823,0.35952299999962634,,,,,nat_1,001,2020_Jan_31_1418,posner,3.1.5,59.96339834168466,
0.5,180,1,right,2,4,0,0,0,0,4,3,35,7,,,,,,,,,98.91913059999979,99.41929740000023,100.13694429999987,None,99.43646889999991,100.1203403999998,100.63772340000014,None,right,1,100.63772340000014,None,None,99.43646889999991,100.62094909999996,0.5116331999997783,0.5952714000000014,1.713264800000161,1.796848299999965,0.3367863000003126,,,,,nat_1,001,2020_Jan_31_1418,posner,3.1.5,59.96339834168466,
-0.5,0,1,left,1,3,0,0,0,0,4,4,36,0,,,,,,,,,101.00524499999983,101.50573970000005,102.22329649999983,None,101.5224874999999,102.20674400000007,102.72403639999993,None,left,1,102.72403639999993,None,None,101.5224874999999,102.70731089999981,0.511706299999787,0.5948917999999139,1.7132652999998754,1.7967843000001267,0.3144118999998682,,,,,nat_1,001,2020_Jan_31_1418,posner,3.1.5,59.96339834168466,
0.5,180,1,right,2,4,0,0,0,0,4,5,37,6,,,,,,,,,103.05838810000023,103.55832969999983,104.27607500000022,None,103.57511569999997,104.25937560000011,104.7769443000002,None,right,1,104.7769443000002,None,None,103.57511569999997,104.76001279999991,0.5116233999997348,0.5952065999999832,1.7132916000000478,1.7969681999998102,0.37362880000000587,,,,,nat_1,001,2020_Jan_31_1418,posner,3.1.5,59.96339834168466,
-0.5,180,0,left,2,3,0,0,0,0,4,6,38,4,,,,,,,,,105.17807439999979,105.67786389999992,106.39563970000017,None,105.69480629999998,106.37896760000012,106.8963490000001,None,left,1,106.8963490000001,None,None,105.69480629999998,106.87964220000003,0.5113051000002997,0.5948029000001043,1.7130674,1.796641500000078,0.3662272000001394,,,,,nat_1,001,2020_Jan_31_1418,posner,3.1.5,59.96339834168466,
0.5,0,0,right,1,4,0,0,0,0,4,7,39,3,,,,,,,,,107.28096619999997,107.78087610000011,108.49853110000004,None,107.79747159999988,108.48190410000007,108.99913839999999,None,right,1,108.99913839999999,None,None,107.79747159999988,108.98253710000017,0.5112294000000475,0.5946380999998837,1.7128327999998874,1.7963048000001436,0.31185020000020813,,,,,nat_1,001,2020_Jan_31_1418,posner,3.1.5,59.96339834168466,
-0.5,0,1,left,1,3,0,0,0,0,5,0,40,1,,,,,,,,,109.33420130000013,109.83389699999998,110.55153500000006,None,109.8505223000002,110.53475660000004,111.05227250000007,None,left,1,111.05227250000007,None,None,109.8505223000002,111.03557890000002,0.5111182000000554,0.5945090999998683,1.7127785999996377,1.795886800000062,0.33824879999974655,,,,,nat_1,001,2020_Jan_31_1418,posner,3.1.5,59.96339834168466,
-0.5,180,0,left,2,3,0,0,0,0,5,1,41,4,,,,,,,,,111.42005449999988,111.91974170000003,112.63670339999999,None,111.93708830000014,112.62006350000001,113.13823629999979,None,left,1,113.13823629999979,None,None,111.93708830000014,113.12166089999982,0.5113822999996955,0.5950267999996868,1.7132824999998775,1.7966960999997355,0.3484216000001652,,,,,nat_1,001,2020_Jan_31_1418,posner,3.1.5,59.96339834168466,
0.5,180,1,right,2,4,0,0,0,0,5,2,42,7,,,,,,,,,113.50640239999984,114.00616709999986,114.7239899000001,None,114.02285810000012,114.7071089000001,115.2245198999999,None,right,1,115.2245198999999,None,None,114.02285810000012,115.20771210000021,0.5116540999997596,0.5949425999997402,1.71318250000013,1.7966734000001452,0.32591709999996965,,,,,nat_1,001,2020_Jan_31_1418,posner,3.1.5,59.96339834168466,
0.5,180,1,right,2,4,0,0,0,0,5,3,43,5,,,,,,,,,115.5754253,116.0756394,116.7934237999998,None,116.0924700999999,116.77676010000005,117.2940649000002,None,right,1,117.2940649000002,None,None,116.0924700999999,117.27731499999982,0.5115712000001622,0.5947844000002078,1.7132344000001467,1.796529400000054,0.4163899999998648,,,,,nat_1,001,2020_Jan_31_1418,posner,3.1.5,59.96339834168466,
0.5,180,1,right,2,4,0,0,0,0,5,4,44,6,,,,,,,,,117.72843490000014,118.22848359999989,118.94626359999984,None,118.24532469999986,118.92960649999986,119.4470381000001,None,right,1,119.4470381000001,None,None,118.24532469999986,119.43007589999979,0.5115836999998464,0.5952198999998473,1.7131611999998313,1.796920599999794,0.3273278000001483,,,,,nat_1,001,2020_Jan_31_1418,posner,3.1.5,59.96339834168466,
0.5,0,0,right,1,4,0,0,0,0,5,5,45,3,,,,,,,,,119.79814679999981,120.29786270000022,121.01572329999999,None,120.31486050000012,120.99895470000001,121.5165219999999,None,right,1,121.5165219999999,None,None,120.31486050000012,121.49984619999987,0.5112918999998328,0.5949325999999928,1.7132599999999911,1.7965481000001091,0.3698890999999094,,,,,nat_1,001,2020_Jan_31_1418,posner,3.1.5,59.96339834168466,
-0.5,0,1,left,1,3,0,0,0,0,5,6,46,0,,,,,,,,,121.91766770000004,122.41763790000005,123.1353653000001,None,122.4344799999999,123.1185360999998,123.63608590000013,None,left,1,123.63608590000013,None,None,122.4344799999999,123.61933129999989,0.5112985000000663,0.5948217999998633,1.7129768999998305,1.7966342999998233,0.31439220000038404,,,,,nat_1,001,2020_Jan_31_1418,posner,3.1.5,59.96339834168466,
-0.5,0,1,left,1,3,0,0,0,0,5,7,47,2,,,,,,,,,123.97062310000001,124.47051580000016,125.18803230000003,None,124.48718740000004,125.17152889999988,125.68870629999992,None,left,1,125.68870629999992,None,None,124.48718740000004,125.67217119999987,0.5114344999997229,0.5950932999999168,1.7130684999997356,1.7964848999999958,0.32578949999970064,,,,,nat_1,001,2020_Jan_31_1418,posner,3.1.5,59.96339834168466,
0.5,180,1,right,2,4,0,0,0,0,6,0,48,7,,,,,,,,,126.04020639999999,126.53990620000013,127.25767480000013,None,126.5568403000002,127.24104729999999,127.7581868000002,None,right,1,127.7581868000002,None,None,126.5568403000002,127.74195240000017,0.5114990000001853,0.5951946000000135,1.7135205999998107,1.7966067000002113,0.33616699999993216,,,,,nat_1,001,2020_Jan_31_1418,posner,3.1.5,59.96339834168466,
0.5,0,0,right,1,4,0,0,0,0,6,1,49,3,,,,,,,,,128.1259286999998,128.62633300000016,129.34380950000013,None,128.64300140000023,129.3273046999998,129.84449510000013,None,right,1,129.84449510000013,None,None,128.64300140000023,129.8277790000002,0.5118035000000418,0.5950434000001223,1.7132384999999886,1.7968461000000389,0.32998970000016925,,,,,nat_1,001,2020_Jan_31_1418,posner,3.1.5,59.96339834168466,
-0.5,0,1,left,1,3,0,0,0,0,6,2,50,2,,,,,,,,,130.195835,130.69583580000017,131.41350359999979,None,130.71251170000005,131.3966829000001,131.91402169999992,None,left,1,131.91402169999992,None,None,130.71251170000005,131.89734640000006,0.5115141999999651,0.5946635000000242,1.7129874000002019,1.796407199999976,0.3242568000000574,,,,,nat_1,001,2020_Jan_31_1418,posner,3.1.5,59.96339834168466,
0.5,180,1,right,2,4,0,0,0,0,6,3,51,6,,,,,,,,,132.26500399999986,132.7652925000002,133.48288950000006,None,132.78188910000017,133.46638699999994,133.98371180000004,None,right,1,133.98371180000004,None,None,132.78188910000017,133.96692540000004,0.5115113000001656,0.5950244999999086,1.7131281000001763,1.796456600000056,0.3186498999998548,,,,,nat_1,001,2020_Jan_31_1418,posner,3.1.5,59.96339834168466,
-0.5,180,0,left,2,3,0,0,0,0,6,4,52,4,,,,,,,,,134.31788480000023,134.81793909999988,135.5358753999999,None,134.83470530000022,135.51907540000002,136.03649240000004,None,left,1,136.03649240000004,None,None,134.83470530000022,136.01981560000013,0.5113831000003302,0.595092300000033,1.7132531000002018,1.7969240000002173,0.3617935000002035,,,,,nat_1,001,2020_Jan_31_1418,posner,3.1.5,59.96339834168466,
-0.5,0,1,left,1,3,0,0,0,0,6,5,53,0,,,,,,,,,136.42093459999978,136.9209237,137.63838750000014,None,136.93784779999987,137.6220447999999,138.13917410000022,None,left,1,138.13917410000022,None,None,136.93784779999987,138.1227270999998,0.5113567999997031,0.5950208999997812,1.7131329999997433,1.796743499999593,0.2751585000000887,,,,,nat_1,001,2020_Jan_31_1418,posner,3.1.5,59.96339834168466,
0.5,180,1,right,2,4,0,0,0,0,6,6,54,5,,,,,,,,,138.4409340000002,138.94037389999994,139.6580058999998,None,138.95710210000016,139.6413131999998,140.1586981999999,None,right,1,140.1586981999999,None,None,138.95710210000016,140.1419635000002,0.511540800000148,0.5949734999999237,1.7131078000002162,1.796869499999957,0.31954170000017257,,,,,nat_1,001,2020_Jan_31_1418,posner,3.1.5,59.96339834168466,
-0.5,0,1,left,1,3,0,0,0,0,6,7,55,1,,,,,,,,,140.50971600000003,141.00995939999984,141.72755689999985,None,141.02659330000006,141.71096799999987,142.22818039999993,None,left,1,142.22818039999993,None,None,141.02659330000006,142.21164069999986,0.5116158999999243,0.5949931000000106,1.713269699999728,1.7964775999998892,0.29807530000016413,,,,,nat_1,001,2020_Jan_31_1418,posner,3.1.5,59.96339834168466,
0.5,180,1,right,2,4,0,0,0,0,7,0,56,7,,,,,,,,,142.54618449999998,143.04610709999997,143.76384460000008,None,143.0628410999998,143.7469176999998,144.2643581000002,None,right,1,144.2643581000002,None,None,143.0628410999998,144.2477561999999,0.5114085999998679,0.5947767999996358,1.713040799999817,1.7966863999999987,0.3098760000002585,,,,,nat_1,001,2020_Jan_31_1418,posner,3.1.5,59.96339834168466,
0.5,0,0,right,1,4,0,0,0,0,7,1,57,3,,,,,,,,,144.5987110000001,145.0986926999999,145.8166298000001,None,145.1156504999999,145.79986770000005,146.31726720000006,None,right,1,146.31726720000006,None,None,145.1156504999999,146.30062660000021,0.5110266000001502,0.594713800000136,1.7129448000000593,1.7962243000001763,0.3529452000002493,,,,,nat_1,001,2020_Jan_31_1418,posner,3.1.5,59.96339834168466,
-0.5,0,1,left,1,3,0,0,0,0,7,2,58,0,,,,,,,,,146.70185690000017,147.20189489999984,147.9193451000001,None,147.21826620000002,147.90288099999998,148.4201723000001,None,left,1,148.4201723000001,None,None,147.21826620000002,148.4035259000002,0.511524499999723,0.5948503999998138,1.713141799999903,1.7964954999997644,0.3141179999997803,,,,,nat_1,001,2020_Jan_31_1418,posner,3.1.5,59.96339834168466,
-0.5,0,1,left,1,3,0,0,0,0,7,3,59,1,,,,,,,,,148.75487759999987,149.2547585000002,149.97232190000022,None,149.27123429999983,149.9555495999998,150.4730242999999,None,left,1,150.4730242999999,None,None,149.27123429999983,150.4562861999998,0.5114074999996774,0.5946366999996826,1.7129187999998976,1.79623969999966,0.3252386999997725,,,,,nat_1,001,2020_Jan_31_1418,posner,3.1.5,59.96339834168466,
-0.5,180,0,left,2,3,0,0,0,0,7,4,60,4,,,,,,,,,150.8242792000001,151.3241936999998,152.0417083000002,None,151.34071380000023,152.02516550000018,152.54252869999982,None,left,1,152.54252869999982,None,None,151.34071380000023,152.52570800000012,0.5113882000000558,0.5945615000000544,1.7128904000001057,1.7961899000001722,0.38383569999996325,,,,,nat_1,001,2020_Jan_31_1418,posner,3.1.5,59.96339834168466,
0.5,180,1,right,2,4,0,0,0,0,7,5,61,6,,,,,,,,,152.94398499999988,153.44375059999993,154.16145700000015,None,153.4604347999998,154.14483120000023,154.66208830000005,None,right,1,154.66208830000005,None,None,153.4604347999998,154.64528659999996,0.5110835000000407,0.5943871999998009,1.7126066999999239,1.7959451000001536,0.344050199999856,,,,,nat_1,001,2020_Jan_31_1418,posner,3.1.5,59.96339834168466,
0.5,180,1,right,2,4,0,0,0,0,7,6,62,5,,,,,,,,,155.03018350000002,155.52981799999998,156.2475973999999,None,155.54661029999988,156.23078339999984,156.74811940000018,None,right,1,156.74811940000018,None,None,155.54661029999988,156.73152389999996,0.5113827999998648,0.5947885999999016,1.7130753999999797,1.7965807000000495,0.3700521000000663,,,,,nat_1,001,2020_Jan_31_1418,posner,3.1.5,59.96339834168466,
-0.5,0,1,left,1,3,0,0,0,0,7,7,63,2,,,,,,,,,157.14929829999983,157.6493730000002,158.36724830000003,None,157.66635129999986,158.35047399999985,158.8678261,None,left,1,158.8678261,None,None,157.66635129999986,158.85143500000004,0.5113621999998941,0.5947455999998965,1.713386200000059,1.7965923000001567,0.2984040000001187,,,,,nat_1,001,2020_Jan_31_1418,posner,3.1.5,59.96339834168466,
0.5,180,1,right,2,4,0,0,0,0,8,0,64,5,,,,,,,,,159.18545350000022,159.68578230000003,160.40353800000003,None,159.70237110000016,160.38659469999993,160.90388970000004,None,right,1,160.90388970000004,None,None,159.70237110000016,160.88709319999998,0.5118702999998277,0.5949743000001035,1.7131696999999804,1.7966566000000057,0.2942729999999756,,,,,nat_1,001,2020_Jan_31_1418,posner,3.1.5,59.96339834168466,
0.5,180,1,right,2,4,0,0,0,0,8,1,65,6,,,,,,,,,161.2219839999998,161.7216480000002,162.43954170000006,None,161.73835850000023,162.4227747,162.94057890000022,None,right,1,162.94057890000022,None,None,161.73835850000023,162.9234366999999,0.5112910999996529,0.5949044999997568,1.713059499999872,1.7964969999998175,0.33766190000005736,,,,,nat_1,001,2020_Jan_31_1418,posner,3.1.5,59.96339834168466,
0.5,0,0,right,1,4,0,0,0,0,8,2,66,3,,,,,,,,,163.30771120000009,163.80784270000004,164.52559669999982,None,163.82482299999992,164.50879290000012,165.02632200000016,None,right,1,165.02632200000016,None,None,163.82482299999992,165.0094598999999,0.5114839000002576,0.5949048000002222,1.7130873999999494,1.796712700000171,0.36391150000008565,,,,,nat_1,001,2020_Jan_31_1418,posner,3.1.5,59.96339834168466,
-0.5,0,1,left,1,3,0,0,0,0,8,3,67,2,,,,,,,,,165.4109999000002,165.91087430000016,166.62844489999998,None,165.92754030000015,166.61173559999997,167.12910049999982,None,left,1,167.12910049999982,None,None,165.92754030000015,167.1126162999999,0.5114475000000311,0.5949740999999449,1.71316059999981,1.7963832000000366,0.3571735999998964,,,,,nat_1,001,2020_Jan_31_1418,posner,3.1.5,59.96339834168466,
-0.5,180,0,left,2,3,0,0,0,0,8,4,68,4,,,,,,,,,167.51359570000022,168.0137837000002,168.7312823000002,None,168.03030900000022,168.7146886999999,169.23224329999994,None,left,1,169.23224329999994,None,None,168.03030900000022,169.2153629999998,0.511390399999982,0.5946917000001122,1.7129618000003575,1.7962790999999925,0.36603900000000067,,,,,nat_1,001,2020_Jan_31_1418,posner,3.1.5,59.96339834168466,
-0.5,0,1,left,1,3,0,0,0,0,8,5,69,1,,,,,,,,,169.61668680000002,170.1167691999999,170.83421709999993,None,170.1334078,170.81770430000006,171.33472140000003,None,left,1,171.33472140000003,None,None,170.1334078,171.31833039999992,0.51177830000006,0.5950004999999692,1.7133152000001246,1.7968111999998655,0.3753799999999501,,,,,nat_1,001,2020_Jan_31_1418,posner,3.1.5,59.96339834168466,
-0.5,0,1,left,1,3,0,0,0,0,8,6,70,0,,,,,,,,,171.73613000000023,172.2362545000001,172.95361559999992,None,172.25306610000007,172.93712379999988,173.45456270000022,None,left,1,173.45456270000022,None,None,172.25306610000007,173.4380540000002,0.5117912000000615,0.5950446000001648,1.713576500000272,1.7968598000002203,0.41564870000001974,,,,,nat_1,001,2020_Jan_31_1418,posner,3.1.5,59.96339834168466,
0.5,180,1,right,2,4,0,0,0,0,8,7,71,7,,,,,,,,,173.88918030000013,174.38898609999978,175.10679699999991,None,174.40596959999993,175.0900262,175.6074136000002,None,right,1,175.6074136000002,None,None,174.40596959999993,175.59060090000003,0.5110989000004338,0.5948166000002857,1.7126910000001772,1.7961703000000853,0.3426737999998295,,,,,nat_1,001,2020_Jan_31_1418,posner,3.1.5,59.96339834168466,
-0.5,180,0,left,2,3,0,0,0,0,9,0,72,4,,,,,,,,,175.97517639999978,176.4753943999999,177.19293210000023,None,176.49226420000014,177.17631540000002,177.69394580000017,None,left,1,177.69394580000017,None,None,176.49226420000014,177.67706289999978,0.5116284999999152,0.5948714000001019,1.7132845000000998,1.7965776999999434,0.40024540000013076,,,,,nat_1,001,2020_Jan_31_1418,posner,3.1.5,59.96339834168466,
0.5,180,1,right,2,4,0,0,0,0,9,1,73,6,,,,,,,,,178.11185479999995,178.61179440000024,179.3291204000002,None,178.62820629999987,179.31253079999988,179.82994129999997,None,right,1,179.82994129999997,None,None,178.62820629999987,179.8132300000002,0.5116806000000906,0.5951316000000588,1.7130981000000247,1.796496599999955,0.37611310000011144,,,,,nat_1,001,2020_Jan_31_1418,posner,3.1.5,59.96339834168466,
-0.5,0,1,left,1,3,0,0,0,0,9,2,74,2,,,,,,,,,180.23136590000013,180.73104899999998,181.4486664000001,None,180.74769560000004,181.43227690000003,181.9494196999999,None,left,1,181.9494196999999,None,None,180.74769560000004,181.93295790000002,0.5114287000001241,0.5949344000000565,1.7133119999998598,1.7966065999999046,0.3366128000002391,,,,,nat_1,001,2020_Jan_31_1418,posner,3.1.5,59.96339834168466,
0.5,180,1,right,2,4,0,0,0,0,9,3,75,5,,,,,,,,,182.3172316,182.8174623,183.5351168000002,None,182.83436110000002,183.5182405999999,184.03593150000006,None,right,1,184.03593150000006,None,None,182.83436110000002,184.01894810000022,0.5116025999996054,0.5951333999996677,1.713075199999821,1.796553899999708,0.314209000000119,,,,,nat_1,001,2020_Jan_31_1418,posner,3.1.5,59.96339834168466,
0.5,0,0,right,1,4,0,0,0,0,9,4,76,3,,,,,,,,,184.37042380000003,184.8700742000001,185.58773810000002,None,184.88695580000012,185.5711892999998,186.08838479999986,None,right,1,186.08838479999986,None,None,184.88695580000012,186.0717970999999,0.5110342000002674,0.5947439000001395,1.7127371999999923,1.7963041000002704,0.357840699999997,,,,,nat_1,001,2020_Jan_31_1418,posner,3.1.5,59.96339834168466,
0.5,180,1,right,2,4,0,0,0,0,9,5,77,7,,,,,,,,,186.47354459999997,186.9731898,187.69073609999987,None,186.9895633000001,187.67387120000012,188.19163369999978,None,right,1,188.19163369999978,None,None,186.9895633000001,188.17484409999997,0.5116004999999859,0.595084599999609,1.713225599999987,1.7964988999997331,0.31839669999999387,,,,,nat_1,001,2020_Jan_31_1418,posner,3.1.5,59.96339834168466,
-0.5,0,1,left,1,3,0,0,0,0,9,6,78,0,,,,,,,,,188.52584819999993,189.02593380000008,189.7437992,None,189.04263870000023,189.72699009999997,190.24438229999987,None,left,1,190.24438229999987,None,None,189.04263870000023,190.22753760000023,0.5117267000000538,0.5950680999999349,1.7133162000000084,1.7967221999997491,0.3137208000002829,,,,,nat_1,001,2020_Jan_31_1418,posner,3.1.5,59.96339834168466,
-0.5,0,1,left,1,3,0,0,0,0,9,7,79,1,,,,,,,,,190.57890940000016,191.07861869999988,191.79637880000018,None,191.09546180000007,191.7796186999999,192.29705580000018,None,left,1,192.29705580000018,None,None,191.09546180000007,192.28027139999995,0.5111151999999493,0.5947754000003442,1.712742800000342,1.7963503999999375,0.46898190000001705,,,,,nat_1,001,2020_Jan_31_1418,posner,3.1.5,59.96339834168466,
-0.5,0,1,left,1,3,0,0,0,0,10,0,80,2,,,,,,,,,192.78184349999992,193.28187770000022,193.99920250000014,None,193.29836879999993,193.98278530000016,194.50009219999993,192.78184349999992,left,1,194.50009219999993,None,None,193.29836879999993,194.48357140000007,0.5117570000002161,0.5950582000000395,1.7134326000000328,1.7967280000002575,0.32989339999994627,,,,,nat_1,001,2020_Jan_31_1418,posner,3.1.5,59.96339834168466,
-0.5,0,1,left,1,3,0,0,0,0,10,1,81,0,,,,,,,,,194.85156740000002,195.35164970000005,196.06884390000005,None,195.36795250000023,196.05235760000005,196.56942449999997,None,left,1,196.56942449999997,None,None,195.36795250000023,196.55302819999997,0.5118367999998554,0.5949704999998175,1.7132076000002598,1.7966055000001688,0.35664189999988594,,,,,nat_1,001,2020_Jan_31_1418,posner,3.1.5,59.96339834168466,
0.5,180,1,right,2,4,0,0,0,0,10,2,82,7,,,,,,,,,196.95469809999986,197.45416430000023,198.17183840000007,None,197.47085759999982,198.15525079999998,198.67256129999987,None,right,1,198.67256129999987,None,None,197.47085759999982,198.6558868000002,0.51116009999987,0.5945186999997532,1.712860399999954,1.7961559000000307,0.36560380000037185,,,,,nat_1,001,2020_Jan_31_1418,posner,3.1.5,59.96339834168466,
0.5,0,0,right,1,4,0,0,0,0,10,3,83,3,,,,,,,,,199.05744839999988,199.55708929999992,200.27476720000004,None,199.5736892,200.25797030000012,200.77547510000022,None,right,1,200.77547510000022,None,None,199.5736892,200.7586809999998,0.511381899999833,0.5947618000000148,1.7129581999997754,1.796361899999738,0.40665519999993194,,,,,nat_1,001,2020_Jan_31_1418,posner,3.1.5,59.96339834168466,
0.5,180,1,right,2,4,0,0,0,0,10,4,84,6,,,,,,,,,201.20971169999984,201.71001109999997,202.42759830000023,None,201.72677890000023,202.41086200000018,202.92835409999998,None,right,1,202.92835409999998,None,None,201.72677890000023,202.9116272000001,0.5119033999999374,0.5952910000000884,1.713490499999807,1.7969374999997854,0.33374030000004495,,,,,nat_1,001,2020_Jan_31_1418,posner,3.1.5,59.96339834168466,
-0.5,180,0,left,2,3,0,0,0,0,10,5,85,4,,,,,,,,,203.27929159999985,203.77933170000006,204.4970271000002,None,203.79641600000014,204.48052589999998,204.9975998,None,left,1,204.9975998,None,None,203.79641600000014,204.98113869999997,0.5114331999998285,0.5953113000000485,1.713222599999881,1.796773999999914,0.3286222000001544,,,,,nat_1,001,2020_Jan_31_1418,posner,3.1.5,59.96339834168466,
-0.5,0,1,left,1,3,0,0,0,0,10,6,86,1,,,,,,,,,205.34932329999992,205.84889780000003,206.56687120000015,None,205.86585999999988,206.5500259999999,207.06740309999986,None,left,1,207.06740309999986,None,None,205.86585999999988,207.05081969999992,0.5112856000000647,0.5949414000001525,1.7134750000000167,1.796381200000269,0.2907158999996682,,,,,nat_1,001,2020_Jan_31_1418,posner,3.1.5,59.96339834168466,
0.5,180,1,right,2,4,0,0,0,0,10,7,87,5,,,,,,,,,207.38503570000012,207.88520359999984,208.60288720000017,None,207.90203380000003,208.58608370000002,209.10343250000005,None,right,1,209.10343250000005,None,None,207.90203380000003,209.08681089999982,0.5116667000002053,0.5950763000000734,1.7132526999998845,1.7966091000002962,0.2865357999999105,,,,,nat_1,001,2020_Jan_31_1418,posner,3.1.5,59.96339834168466,
,,,,,,0,0,0,0,,,,,,,,,,,,,,,,,,,,,,,,,,,,,,,,,209.42177720000018,None,1.6599999980826396e-05,0.9959045000000515,nat_1,001,2020_Jan_31_1418,posner,3.1.5,59.96339834168466,
-0.5,0,1,left,1,3,1,0,1,0,0,0,0,1,1.1999999969702912e-05,0.09721709999985251,270.4382129999999,None,1.1500000255182385e-05,0.09765920000018014,272.54077069999994,None,272.81930950000014,273.3251186000002,274.02612550000003,None,273.34188300000005,274.02612550000003,274.52679960000023,None,left,1,274.52679960000023,None,None,273.34188300000005,274.52679960000023,0.5159757999999783,0.5995597000000998,1.700740400000086,1.8009024000002682,0.318890200000169,,,,,nat_1,001,2020_Jan_31_1418,posner,3.1.5,59.96339834168466,
0.5,180,1,right,2,4,1,0,1,0,0,1,1,6,,,,,,,,,274.8622154999998,275.3614210999999,276.0786856,None,275.3777583000001,276.06226590000006,276.5794526999998,None,right,1,276.5794526999998,None,None,275.3777583000001,276.56301600000006,0.5110137000001487,0.5942420000001221,1.7125914000002922,1.7960532000001876,0.3941915999998855,,,,,nat_1,001,2020_Jan_31_1418,posner,3.1.5,59.96339834168466,
-0.5,0,1,left,1,3,1,0,1,0,0,2,2,2,,,,,,,,,276.99763759999996,277.4974433000002,278.21512140000004,None,277.5142390000001,278.1981730000002,278.7158184,None,left,1,278.7158184,None,None,277.5142390000001,278.69902839999986,0.5114379000001463,0.5948959000002105,1.7130019999999604,1.7965149000001475,0.3377910000003794,,,,,nat_1,001,2020_Jan_31_1418,posner,3.1.5,59.96339834168466,
0.5,0,0,right,1,4,1,0,1,0,0,3,3,3,,,,,,,,,279.08356319999984,279.58350440000004,280.30141649999996,None,279.60041869999986,280.28473040000017,280.8022403,None,right,1,280.8022403,None,None,279.60041869999986,280.78541970000015,0.5113675000002331,0.5950462999999218,1.7132712000002357,1.7965401000001293,0.363375900000392,,,,,nat_1,001,2020_Jan_31_1418,posner,3.1.5,59.96339834168466,
-0.5,180,0,left,2,3,1,0,1,0,0,4,4,4,,,,,,,,,281.186729,281.6864660000001,282.4043373999998,None,281.7033196000002,282.38739510000005,282.90507449999996,None,left,1,282.90507449999996,None,None,281.7033196000002,282.88811269999997,0.5113361999997323,0.5949699999996483,1.7129633999998077,1.7965927000000192,0.4044862999999168,,,,,nat_1,001,2020_Jan_31_1418,posner,3.1.5,59.96339834168466,
0.5,180,1,right,2,4,1,0,1,0,0,5,5,5,,,,,,,,,283.3397881000001,283.8396281,284.5573367000002,None,283.85627079999995,284.5405314999998,285.0576580000002,None,right,1,285.0576580000002,None,None,283.85627079999995,285.0414592000002,0.511492200000248,0.5948911000000408,1.7133237000002737,1.7963070000000698,0.3160475999998198,,,,,nat_1,001,2020_Jan_31_1418,posner,3.1.5,59.96339834168466,
-0.5,0,1,left,1,3,1,0,1,0,0,6,6,0,,,,,,,,,285.3924317000001,285.8923070000001,286.6100230000002,None,285.9089749999998,286.5933381,287.11098870000023,None,left,1,287.11098870000023,None,None,285.9089749999998,287.0940387999999,0.5112626999998611,0.5947332000000642,1.7129684999999881,1.7962787999999819,0.31056149999994886,,,,,nat_1,001,2020_Jan_31_1418,posner,3.1.5,59.96339834168466,
0.5,180,1,right,2,4,1,0,1,0,0,7,7,7,,,,,,,,,287.44563130000006,287.9453011999999,288.66298730000017,None,287.9619951999998,288.6461408,289.1637294000002,None,right,1,289.1637294000002,None,None,287.9619951999998,289.1467096000001,0.5114568999997573,0.5946304999997665,1.712857399999848,1.7963199000000714,0.3059003000003031,,,,,nat_1,001,2020_Jan_31_1418,posner,3.1.5,59.96339834168466,
0.5,180,1,right,2,4,1,0,1,0,1,0,8,7,,,,,,,,,289.4979137,289.99776280000015,290.7158236,None,290.0146699000002,290.6989582000001,291.2163903999999,None,right,1,291.2163903999999,None,None,290.0146699000002,291.1996100000001,0.5115289999998822,0.595324299999902,1.7133527999999387,1.7969837000000553,0.3171458000001621,,,,,nat_1,001,2020_Jan_31_1418,posner,3.1.5,59.96339834168466,
-0.5,0,1,left,1,3,1,0,1,0,1,1,9,2,,,,,,,,,291.5509487999998,292.0511015000002,292.76833380000016,None,292.0673055000002,292.7519833000001,293.26901240000007,None,left,1,293.26901240000007,None,None,292.0673055000002,293.25251930000013,0.5120479000001978,0.5951173000003109,1.7134522000001198,1.7968980000000556,0.2964180999997552,,,,,nat_1,001,2020_Jan_31_1418,posner,3.1.5,59.96339834168466,
0.5,0,0,right,1,4,1,0,1,0,1,2,10,3,,,,,,,,,293.5869038000001,294.0869582,294.8046158000002,None,294.1037775,294.78783780000003,295.305429,None,right,1,295.305429,None,None,294.1037775,295.28844130000016,0.5116818000001331,0.5949846000003163,1.7131469000000834,1.7968969000003199,0.38799539999990884,,,,,nat_1,001,2020_Jan_31_1418,posner,3.1.5,59.96339834168466,
0.5,180,1,right,2,4,1,0,1,0,1,3,11,6,,,,,,,,,295.7231201999998,296.2230755999999,296.9410544000002,None,296.2397452,296.92410040000004,297.4415171999999,None,right,1,297.4415171999999,None,None,296.2397452,297.42504150000013,0.5112716999997247,0.5949034000000211,1.7132108999999218,1.7964953000000605,0.3799493999999868,,,,,nat_1,001,2020_Jan_31_1418,posner,3.1.5,59.96339834168466,
-0.5,0,1,left,1,3,1,0,1,0,1,4,12,0,,,,,,,,,297.8429415999999,298.3427207999998,299.06053340000017,None,298.3593114,299.0436837000002,299.5611055999998,None,left,1,299.5611055999998,None,None,298.3593114,299.54452420000007,0.5112264999997933,0.5948168999998416,1.7130044999998972,1.7962695999999596,0.26038800000014817,,,,,nat_1,001,2020_Jan_31_1418,posner,3.1.5,59.96339834168466,
-0.5,180,0,left,2,3,1,0,1,0,1,5,13,4,,,,,,,,,299.8454820000002,300.3456124999998,301.06324270000005,None,300.3624450000002,301.04640870000003,301.56369399999994,None,left,1,301.56369399999994,None,None,300.3624450000002,301.5471831,0.5116568999997071,0.594910599999821,1.7132120999999643,1.7967697999997654,0.44985319999977946,,,,,nat_1,001,2020_Jan_31_1418,posner,3.1.5,59.96339834168466,
0.5,180,1,right,2,4,1,0,1,0,1,6,14,5,,,,,,,,,302.0320716000001,302.53194299999996,303.24951150000015,None,302.5484652,303.23279490000004,303.75027409999984,None,right,1,303.75027409999984,None,None,302.5484652,303.73363359999985,0.5111815000000206,0.5944754000001922,1.712856500000271,1.7962341000002198,0.32734690000006594,,,,,nat_1,001,2020_Jan_31_1418,posner,3.1.5,59.96339834168466,
-0.5,0,1,left,1,3,1,0,1,0,1,7,15,1,,,,,,,,,304.10227380000015,304.60153579999997,305.3189940000002,None,304.6179608000002,305.30254650000006,305.81971620000013,None,left,1,305.81971620000013,None,None,304.6179608000002,305.80310439999994,0.5111376999998356,0.5944166999997833,1.712694399999691,1.7960764999997991,0.3377712999999858,,,,,nat_1,001,2020_Jan_31_1418,posner,3.1.5,59.96339834168466,
-0.5,180,0,left,2,3,1,0,1,0,2,0,16,4,,,,,,,,,306.1874035999999,306.6875417000001,307.4053170000002,None,306.7042851000001,307.38840260000006,307.90604829999984,None,left,1,307.90604829999984,None,None,306.7042851000001,307.8891598,0.511457099999916,0.5949404000002687,1.71305620000021,1.796744100000069,0.4274851000000126,,,,,nat_1,001,2020_Jan_31_1418,posner,3.1.5,59.96339834168466,
0.5,180,1,right,2,4,1,0,1,0,2,1,17,5,,,,,,,,,308.35721049999984,308.8571022000001,309.5749842,None,308.8740407999999,309.55809850000014,310.0756839999999,None,right,1,310.0756839999999,None,None,308.8740407999999,310.0587627,0.5115147000001343,0.5951903999998649,1.7131562999998096,1.7967413999999735,0.35377939999989394,,,,,nat_1,001,2020_Jan_31_1418,posner,3.1.5,59.96339834168466,
0.5,180,1,right,2,4,1,0,1,0,2,2,18,6,,,,,,,,,310.4598286999999,310.9601096000001,311.6778251999999,None,310.97693200000003,311.66121250000015,312.1784754,None,right,1,312.1784754,None,None,310.97693200000003,312.1619664,0.5118053999999574,0.5952666999996836,1.7136203000000023,1.7970167999997102,0.33102789999975357,,,,,nat_1,001,2020_Jan_31_1418,posner,3.1.5,59.96339834168466,
0.5,0,0,right,1,4,1,0,1,0,2,3,19,3,,,,,,,,,312.5299546000001,313.0296561,313.7471356000001,None,313.04639050000014,313.73063279999997,314.24778879999985,None,right,1,314.24778879999985,None,None,313.04639050000014,314.23127410000006,0.5113035000003947,0.5948398000000452,1.7129022000003715,1.796469800000068,0.37373509999997623,,,,,nat_1,001,2020_Jan_31_1418,posner,3.1.5,59.96339834168466,
-0.5,0,1,left,1,3,1,0,1,0,2,4,20,1,,,,,,,,,314.64926319999995,315.14914069999986,315.8669221,None,315.16609500000004,315.85042310000017,316.36748579999994,None,left,1,316.36748579999994,None,None,315.16609500000004,316.3511241000001,0.5113304999999855,0.5948542000000998,1.7133005000000594,1.7966968000000634,0.3660266000001684,,,,,nat_1,001,2020_Jan_31_1418,posner,3.1.5,59.96339834168466,
0.5,180,1,right,2,4,1,0,1,0,2,5,21,7,,,,,,,,,316.7519345999999,317.2521362000002,317.9697841000002,None,317.2686431000002,317.95315489999984,318.47054070000013,None,right,1,318.47054070000013,None,None,317.2686431000002,318.4539550999998,0.5121085999999195,0.5956132000001162,1.7139004000000568,1.797037100000125,0.32684889999973166,,,,,nat_1,001,2020_Jan_31_1418,posner,3.1.5,59.96339834168466,
-0.5,0,1,left,1,3,1,0,1,0,2,6,22,2,,,,,,,,,318.8220293999998,319.3216938999999,320.0392286000001,None,319.3383124000002,320.0225869000001,320.53990539999995,None,left,1,320.53990539999995,None,None,319.3383124000002,320.5233248999998,0.5114376999999877,0.5949094999996305,1.7130535999999665,1.7965368000000126,0.3695787999999993,,,,,nat_1,001,2020_Jan_31_1418,posner,3.1.5,59.96339834168466,
-0.5,0,1,left,1,3,1,0,1,0,2,7,23,0,,,,,,,,,320.9411134000002,321.4417008999999,322.1588780000002,None,321.4578526999999,322.1420758999998,322.6595099000001,None,left,1,322.6595099000001,None,None,321.4578526999999,322.6429358999999,0.5126874999996289,0.5957361999999193,1.7139054999997825,1.79725499999995,0.3298945999999887,,,,,nat_1,001,2020_Jan_31_1418,posner,3.1.5,59.96339834168466,
0.5,180,1,right,2,4,1,0,1,0,3,0,24,6,,,,,,,,,323.0110728999998,323.51089409999986,324.22833790000004,None,323.52728609999986,324.2118787999998,324.72902010000007,None,right,1,324.72902010000007,None,None,323.52728609999986,324.71229570000014,0.511460199999874,0.5947031999999126,1.712848600000143,1.7964704999999412,0.30827720000024783,,,,,nat_1,001,2020_Jan_31_1418,posner,3.1.5,59.96339834168466,
-0.5,0,1,left,1,3,1,0,1,0,3,1,25,0,,,,,,,,,325.06312620000017,325.56362949999993,326.2813065999999,None,325.58013470000014,326.26446080000005,326.78200990000005,None,left,1,326.78200990000005,None,None,325.58013470000014,326.7652729000001,0.5121024999998554,0.5954024999996363,1.7137275999998565,1.796889199999896,0.2872973999997157,,,,,nat_1,001,2020_Jan_31_1418,posner,3.1.5,59.96339834168466,
0.5,180,1,right,2,4,1,0,1,0,3,2,26,7,,,,,,,,,327.0993969000001,327.59969779999983,328.31726389999994,None,327.61643760000015,328.3007769999999,328.8180433000002,None,right,1,328.8180433000002,None,None,327.61643760000015,328.80131440000014,0.5113847000002352,0.5947753000000375,1.7129641000001357,1.7965859999999338,0.33127260000037495,,,,,nat_1,001,2020_Jan_31_1418,posner,3.1.5,59.96339834168466,
0.5,0,0,right,1,4,1,0,1,0,3,3,27,3,,,,,,,,,329.1696216999999,329.6690752999998,330.3867309000002,None,329.6858493999998,330.37007700000004,330.8874651000001,None,right,1,330.8874651000001,None,None,329.6858493999998,330.87086739999995,0.5112853999999061,0.5949915999999575,1.713049200000114,1.7963982000001124,0.35784960000000865,,,,,nat_1,001,2020_Jan_31_1418,posner,3.1.5,59.96339834168466,
-0.5,0,1,left,1,3,1,0,1,0,3,4,28,1,,,,,,,,,331.2723093999998,331.7721882999999,332.48962280000023,None,331.7889131000002,332.4731541000001,332.99053719999984,None,left,1,332.99053719999984,None,None,331.7889131000002,332.97388850000016,0.5114214999998694,0.5945337999996809,1.7131042999999408,1.7962023999998564,0.33482820000017455,,,,,nat_1,001,2020_Jan_31_1418,posner,3.1.5,59.96339834168466,
-0.5,180,0,left,2,3,1,0,1,0,3,5,29,4,,,,,,,,,333.3415143000002,333.8416705999998,334.55918139999994,None,333.85814549999986,334.54259330000014,335.0597210000001,None,left,1,335.0597210000001,None,None,333.85814549999986,335.04300539999986,0.5115378999998939,0.5949891999998727,1.712862899999891,1.7965650999999525,0.39354370000000927,,,,,nat_1,001,2020_Jan_31_1418,posner,3.1.5,59.96339834168466,
0.5,180,1,right,2,4,1,0,1,0,3,6,30,5,,,,,,,,,335.4777921,335.9778744,336.69573820000005,None,335.99458219999997,336.6789887,337.19614409999986,None,right,1,337.19614409999986,None,None,335.99458219999997,337.1793511000001,0.5117281000002549,0.5950349999998252,1.7131847000000562,1.796838000000207,0.33713540000007924,,,,,nat_1,001,2020_Jan_31_1418,posner,3.1.5,59.96339834168466,
-0.5,0,1,left,1,3,1,0,1,0,3,7,31,2,,,,,,,,,337.5638361000001,338.0641036000002,338.78178230000003,None,338.08079290000023,338.7649323999999,339.2823741000002,None,left,1,339.2823741000002,None,None,338.08079290000023,339.2657746,0.5116930999997749,0.5950588999999127,1.7133395999999266,1.7966291999996429,0.314917400000013,,,,,nat_1,001,2020_Jan_31_1418,posner,3.1.5,59.96339834168466,
-0.5,0,1,left,1,3,1,0,1,0,4,0,32,0,,,,,,,,,339.6169927000001,340.1167395000002,340.8345945000001,None,340.1336148999999,340.8177175999999,341.3354892000002,None,left,1,341.3354892000002,None,None,340.1336148999999,341.3184252000001,0.5114391000001888,0.5952197999999953,1.713106499999867,1.7967367000001104,0.35779619999993884,,,,,nat_1,001,2020_Jan_31_1418,posner,3.1.5,59.96339834168466,
-0.5,0,1,left,1,3,1,0,1,0,4,1,33,1,,,,,,,,,341.71995449999986,342.2196293000002,342.9376578000001,None,342.23649380000006,342.9208241000001,343.43826549999994,None,left,1,343.43826549999994,None,None,342.23649380000006,343.42151520000016,0.5112957000001188,0.5949216000003617,1.713161200000286,1.7967118000001392,0.3991022999998677,,,,,nat_1,001,2020_Jan_31_1418,posner,3.1.5,59.96339834168466,
0.5,180,1,right,2,4,1,0,1,0,4,2,34,7,,,,,,,,,343.8561543999999,344.35608839999986,345.07359510000015,None,344.3727471000002,345.05705940000007,345.5743394000001,None,right,1,345.5743394000001,None,None,344.3727471000002,345.55762189999996,0.5115011999996568,0.5950975000000653,1.7130176000000574,1.7966050999998515,0.3108724999997321,,,,,nat_1,001,2020_Jan_31_1418,posner,3.1.5,59.96339834168466,
0.5,0,0,right,1,4,1,0,1,0,4,3,35,3,,,,,,,,,345.90870780000023,346.40890500000023,347.12653739999996,None,346.42550070000016,347.109782,347.6271111000001,None,right,1,347.6271111000001,None,None,346.42550070000016,347.6105292000002,0.5115851999998995,0.5950807999997778,1.7131882999997288,1.7966939999996612,0.3221552999998494,,,,,nat_1,001,2020_Jan_31_1418,posner,3.1.5,59.96339834168466,
0.5,180,1,right,2,4,1,0,1,0,4,4,36,5,,,,,,,,,347.9786208999999,348.47830509999994,349.1961437,None,348.49492340000006,349.1793397000001,349.6968459999998,None,right,1,349.6968459999998,None,None,348.49492340000006,349.6798238000001,0.5114826999997604,0.5950680999999349,1.7129873999997471,1.7966732999998385,0.3163382000002457,,,,,nat_1,001,2020_Jan_31_1418,posner,3.1.5,59.96339834168466,
-0.5,0,1,left,1,3,1,0,1,0,4,5,37,2,,,,,,,,,350.03146909999987,350.53129089999993,351.24874180000006,None,350.54790980000007,351.2321953999999,351.7494756000001,None,left,1,351.7494756000001,None,None,350.54790980000007,351.7327058000001,0.5115005000002384,0.5949629000001551,1.7128814000002421,1.796458100000109,0.311653600000227,,,,,nat_1,001,2020_Jan_31_1418,posner,3.1.5,59.96339834168466,
-0.5,180,0,left,2,3,1,0,1,0,4,6,38,4,,,,,,,,,352.0842155999999,352.58408929999996,353.3016536,None,352.6008759000001,353.2853098999999,353.80206240000007,None,left,1,353.80206240000007,None,None,352.6008759000001,353.78522310000017,0.5114655000002131,0.5947166999999354,1.7125771999999415,1.7962539000000106,0.355138800000077,,,,,nat_1,001,2020_Jan_31_1418,posner,3.1.5,59.96339834168466,
0.5,180,1,right,2,4,1,0,1,0,4,7,39,6,,,,,,,,,354.1866301,354.6868021999999,355.4046226999999,None,354.7039451999999,355.38768130000017,355.9054076000002,None,right,1,355.9054076000002,None,None,354.7039451999999,355.8884234000002,0.5114708999999493,0.594951200000196,1.713078900000255,1.7967987000001813,0.39573529999961465,,,,,nat_1,001,2020_Jan_31_1418,posner,3.1.5,59.96339834168466,
0.5,180,1,right,2,4,1,0,1,0,5,0,40,6,,,,,,,,,356.3235767000001,356.82334660000015,357.54105119999986,None,356.83977689999983,357.52403540000023,358.0416667999998,None,right,1,358.0416667999998,None,None,356.83977689999983,358.0248792000002,0.5113728000001174,0.5945051999997304,1.712888799999746,1.7961135999998987,0.38753399999995963,,,,,nat_1,001,2020_Jan_31_1418,posner,3.1.5,59.96339834168466,
-0.5,0,1,left,1,3,1,0,1,0,5,1,41,2,,,,,,,,,358.4589074999999,358.95943780000016,359.6768839000001,None,358.97626089999994,359.660519,360.1777353000002,None,left,1,360.1777353000002,None,None,358.97626089999994,360.1611861000001,0.5118108000001484,0.5953780999998344,1.7135391000001619,1.7970239999999649,0.3314762999998493,,,,,nat_1,001,2020_Jan_31_1418,posner,3.1.5,59.96339834168466,
0.5,180,1,right,2,4,1,0,1,0,5,2,42,7,,,,,,,,,360.52936339999997,361.0288759,361.74661670000023,None,361.04577580000023,361.7297526000002,362.24727269999994,None,right,1,362.24727269999994,None,None,361.04577580000023,362.23057340000014,0.511343399999987,0.5949558999996043,1.7130128999997396,1.7964203999999881,0.29383059999963734,,,,,nat_1,001,2020_Jan_31_1418,posner,3.1.5,59.96339834168466,
-0.5,180,0,left,2,3,1,0,1,0,5,3,43,4,,,,,,,,,362.5649204000001,363.0652199000001,363.7827465999999,None,363.08179340000015,363.7661447999999,364.28340149999985,None,left,1,364.28340149999985,None,None,363.08179340000015,364.2667646,0.511783700000251,0.594921300000351,1.7133115000001453,1.7966591000003973,0.3697587999999996,,,,,nat_1,001,2020_Jan_31_1418,posner,3.1.5,59.96339834168466,
0.5,0,0,right,1,4,1,0,1,0,5,4,44,3,,,,,,,,,364.6840860000002,365.1847793000002,365.90235029999985,None,365.2013978,365.88555039999983,366.4030803999999,None,right,1,366.4030803999999,None,None,365.2013978,366.3863431,0.5122888999999304,0.5955717000001641,1.7138362999999117,1.79713670000001,0.3621322999997574,,,,,nat_1,001,2020_Jan_31_1418,posner,3.1.5,59.96339834168466,
-0.5,0,1,left,1,3,1,0,1,0,5,5,45,0,,,,,,,,,366.7872590000002,367.2874237000001,368.0051404999999,None,367.30440450000015,367.988519,368.5059292000001,None,left,1,368.5059292000001,None,None,367.30440450000015,368.4894761999999,0.5115476999999373,0.5951325000000907,1.7135573999998996,1.7966699000003246,0.43513860000030036,,,,,nat_1,001,2020_Jan_31_1418,posner,3.1.5,59.96339834168466,
0.5,180,1,right,2,4,1,0,1,0,5,6,46,5,,,,,,,,,368.9571661,369.45705439999983,370.17501600000014,None,369.47401489999993,370.15801520000014,370.6756129999999,None,right,1,370.6756129999999,None,None,369.47401489999993,370.65878900000007,0.5113931999999295,0.5948625000000902,1.7131097999999838,1.7965735000002496,0.2815410999996857,,,,,nat_1,001,2020_Jan_31_1418,posner,3.1.5,59.96339834168466,
-0.5,0,1,left,1,3,1,0,1,0,5,7,47,1,,,,,,,,,370.97719529999995,371.4766042000001,372.1943812999998,None,371.4934278999999,372.1774163,372.69528020000007,None,left,1,372.69528020000007,None,None,371.4934278999999,372.67826130000003,0.5112765999997464,0.5948751999999331,1.7129150000000664,1.796483900000112,0.34183419999999387,,,,,nat_1,001,2020_Jan_31_1418,posner,3.1.5,59.96339834168466,
-0.5,0,1,left,1,3,1,0,1,0,6,0,48,0,,,,,,,,,373.0628144000002,373.56271160000006,374.28074259999994,None,373.5794046000001,374.26381360000005,374.7812606000002,None,left,1,374.7812606000002,None,None,373.5794046000001,374.76449360000015,0.5113712000002124,0.5948437000001832,1.7131291000000601,1.796496400000251,0.3998747000000549,,,,,nat_1,001,2020_Jan_31_1418,posner,3.1.5,59.96339834168466,
-0.5,0,1,left,1,3,1,0,1,0,6,1,49,2,,,,,,,,,375.1997584999999,375.6990716999999,376.41688609999983,None,375.7158650000001,376.4002142999998,376.9172450000001,None,left,1,376.9172450000001,None,None,375.7158650000001,376.9008684999999,0.5114023000000998,0.5947955999999976,1.713171599999896,1.7965469999999186,0.3277686999999787,,,,,nat_1,001,2020_Jan_31_1418,posner,3.1.5,59.96339834168466,
-0.5,0,1,left,1,3,1,0,1,0,6,2,50,1,,,,,,,,,377.2685381000001,377.76862389999997,378.4860881999998,None,377.7853610000002,378.4695158999998,378.98703109999997,None,left,1,378.98703109999997,None,None,377.7853610000002,378.97022229999993,0.5113893000002463,0.5949181000000863,1.7129786999998942,1.7967139000002135,0.3380348000000595,,,,,nat_1,001,2020_Jan_31_1418,posner,3.1.5,59.96339834168466,
0.5,180,1,right,2,4,1,0,1,0,6,3,51,6,,,,,,,,,379.35458719999997,379.8550117,380.57259209999984,None,379.87152819999983,380.55581789999997,381.07340209999984,None,right,1,381.07340209999984,None,None,379.87152819999983,381.0564694999998,0.5116904999999861,0.5951900000000023,1.71313310000005,1.7965337000000545,0.3955844000001889,,,,,nat_1,001,2020_Jan_31_1418,posner,3.1.5,59.96339834168466,
0.5,180,1,right,2,4,1,0,1,0,6,4,52,5,,,,,,,,,381.4916628000001,381.9912393999998,382.70884160000014,None,382.0077758000002,382.69206170000007,383.2093868000002,None,right,1,383.2093868000002,None,None,382.0077758000002,383.19277490000013,0.5112677000001895,0.5946359000004122,1.712778800000251,1.796073299999989,0.3397746000000552,,,,,nat_1,001,2020_Jan_31_1418,posner,3.1.5,59.96339834168466,
0.5,180,1,right,2,4,1,0,1,0,6,5,53,7,,,,,,,,,383.57702070000005,384.07710240000006,384.79502349999984,None,384.09396879999986,384.77809419999994,385.2956398000001,None,right,1,385.2956398000001,None,None,384.09396879999986,385.27885779999997,0.5114951000000474,0.5951820000000225,1.7132315999997445,1.7968258999999307,0.3495109999998931,,,,,nat_1,001,2020_Jan_31_1418,posner,3.1.5,59.96339834168466,
0.5,0,0,right,1,4,1,0,1,0,6,6,54,3,,,,,,,,,385.66358020000007,386.1637147000001,386.88107549999995,None,386.1804308999999,386.8644740999998,387.3820713,None,right,1,387.3820713,None,None,386.1804308999999,387.3651679999998,0.5115240999998605,0.5946171999999024,1.7129679999998189,1.7961903999998867,0.32699609999963286,,,,,nat_1,001,2020_Jan_31_1418,posner,3.1.5,59.96339834168466,
-0.5,180,0,left,2,3,1,0,1,0,6,7,55,4,,,,,,,,,387.7328539,388.23285829999986,388.95092160000013,None,388.24975029999996,388.9341245999999,389.45148419999987,None,left,1,389.45148419999987,None,None,388.24975029999996,389.43481410000004,0.5113194000000476,0.5949486999998044,1.7132561999997051,1.7963545999996313,0.4015362999998615,,,,,nat_1,001,2020_Jan_31_1418,posner,3.1.5,59.96339834168466,
0.5,180,1,right,2,4,1,0,1,0,7,0,56,6,,,,,,,,,389.8694418,390.3692307000001,391.0867387999997,None,390.3859201999999,391.07039220000024,391.5874808999997,None,right,1,391.5874808999997,None,None,390.3859201999999,391.57087560000036,0.5113983999999618,0.5949180999996315,1.7130154999999831,1.7966836999999032,0.3294257999996262,,,,,nat_1,001,2020_Jan_31_1418,posner,3.1.5,59.96339834168466,
-0.5,0,1,left,1,3,1,0,1,0,7,1,57,1,,,,,,,,,391.93923090000044,392.43903239999963,393.1563495999999,None,392.45547910000005,393.1396697,393.6570700000002,None,left,1,393.6570700000002,None,None,392.45547910000005,393.64049460000024,0.5115348999997877,0.5948665999994773,1.7129875000000538,1.7964038000000073,0.3399764999994659,,,,,nat_1,001,2020_Jan_31_1418,posner,3.1.5,59.96339834168466,
-0.5,0,1,left,1,3,1,0,1,0,7,2,58,0,,,,,,,,,394.0250225,394.52498060000016,395.24250740000025,None,394.54178729999967,395.22611739999957,395.74327730000005,None,left,1,395.74327730000005,None,None,394.54178729999967,395.726635,0.5115392999996402,0.5948798999997962,1.7131827000002886,1.796632900000077,0.4456660000005286,,,,,nat_1,001,2020_Jan_31_1418,posner,3.1.5,59.96339834168466,
0.5,180,1,right,2,4,1,0,1,0,7,3,59,7,,,,,,,,,396.2120493000002,396.7115187999998,397.42899190000026,None,396.7278997000003,397.4123792999999,397.9297061999996,None,right,1,397.9297061999996,None,None,396.7278997000003,397.9129740999997,0.5114044000001741,0.5948330000001079,1.712840099999994,1.7962903999996342,0.3072204000000056,,,,,nat_1,001,2020_Jan_31_1418,posner,3.1.5,59.96339834168466,
0.5,180,1,right,2,4,1,0,1,0,7,4,60,5,,,,,,,,,398.2639048000001,398.7642358000003,399.4817251000004,None,398.78088800000023,399.4650545000004,399.9824857000003,None,right,1,399.9824857000003,None,None,398.78088800000023,399.96580749999976,0.5116829000007783,0.5949942000006558,1.7132424999999785,1.7965979000000516,0.31847170000037295,,,,,nat_1,001,2020_Jan_31_1418,posner,3.1.5,59.96339834168466,
0.5,0,0,right,1,4,1,0,1,0,7,5,61,3,,,,,,,,,400.31676789999983,400.8170276999999,401.53471590000026,None,400.83368189999965,401.5178235000003,402.03538839999965,None,right,1,402.03538839999965,None,None,400.83368189999965,402.01857670000027,0.5118065999995451,0.5953021999994235,1.7133430999992925,1.7969561999998405,0.361573899999712,,,,,nat_1,001,2020_Jan_31_1418,posner,3.1.5,59.96339834168466,
-0.5,180,0,left,2,3,1,0,1,0,7,6,62,4,,,,,,,,,402.4196909000002,402.9197095999998,403.6373647999999,None,402.93653410000024,403.62097520000043,404.13802510000005,None,left,1,404.13802510000005,None,None,402.93653410000024,404.1215881999997,0.5113295000001017,0.5949933000001693,1.7131877000001623,1.7965492000002996,0.3548600999993141,,,,,nat_1,001,2020_Jan_31_1418,posner,3.1.5,59.96339834168466,
-0.5,0,1,left,1,3,1,0,1,0,7,7,63,2,,,,,,,,,404.5225137999996,405.0227563999997,405.7405597999996,None,405.03945850000036,405.7235516999999,406.2411436000002,None,left,1,406.2411436000002,None,None,405.03945850000036,406.22449940000024,0.5115810999996029,0.5949967999995351,1.7132998999995834,1.7964263999992909,0.2998139999999694,,,,,nat_1,001,2020_Jan_31_1418,posner,3.1.5,59.96339834168466,
0.5,0,0,right,1,4,1,0,1,0,8,0,64,3,,,,,,,,,406.5588676999996,407.05893079999987,407.77623700000004,None,407.0755865000001,407.75999930000035,408.27716789999977,None,right,1,408.27716789999977,None,None,407.0755865000001,408.26053150000007,0.5119543999999223,0.5952563999999256,1.7135359000003518,1.797039400000358,0.4238580000001093,,,,,nat_1,001,2020_Jan_31_1418,posner,3.1.5,59.96339834168466,
0.5,180,1,right,2,4,1,0,1,0,8,1,65,6,,,,,,,,,408.72852239999975,409.2283981999999,409.9461431,None,409.24538180000036,409.9295910000001,410.44684700000016,None,right,1,410.44684700000016,None,None,409.24538180000036,410.42998460000035,0.5113120000005438,0.5949187000005622,1.712908200000129,1.7965242999998736,0.3501976999996259,,,,,nat_1,001,2020_Jan_31_1418,posner,3.1.5,59.96339834168466,
-0.5,0,1,left,1,3,1,0,1,0,8,2,66,0,,,,,,,,,410.81486440000026,411.31492530000014,412.03230580000036,None,411.3314344999999,412.0158272999997,412.53294949999963,None,left,1,412.53294949999963,None,None,411.3314344999999,412.5162578999998,0.5116452000002027,0.594841300000553,1.7129617999999027,1.7966683000004195,0.3283034999994925,,,,,nat_1,001,2020_Jan_31_1418,posner,3.1.5,59.96339834168466,
0.5,180,1,right,2,4,1,0,1,0,8,3,67,7,,,,,,,,,412.8845973999996,413.38427299999967,414.1018358000001,None,413.40107530000023,414.08525009999994,414.6027260000001,None,right,1,414.6027260000001,None,None,413.40107530000023,414.5859711000003,0.5111929000004238,0.5944013000007544,1.7128662000004624,1.7961605000000418,0.32223489999978483,,,,,nat_1,001,2020_Jan_31_1418,posner,3.1.5,59.96339834168466,
-0.5,0,1,left,1,3,1,0,1,0,8,4,68,1,,,,,,,,,414.9540556000002,415.45389609999984,416.17149810000046,None,415.47038729999986,416.15475760000027,416.67221450000034,None,left,1,416.67221450000034,None,None,415.47038729999986,416.655315,0.5112878999998429,0.5945502000004126,1.7126890999998068,1.7962902999997823,0.36469559999932244,,,,,nat_1,001,2020_Jan_31_1418,posner,3.1.5,59.96339834168466,
-0.5,180,0,left,2,3,1,0,1,0,8,5,69,4,,,,,,,,,417.0567551000004,417.55654609999965,418.27429550000033,None,417.5733202000001,418.2575637,418.7749667999997,None,left,1,418.7749667999997,None,None,417.5733202000001,418.7581282000001,0.5112592999994376,0.5949609999997847,1.7128248999997595,1.7965782999999647,0.3578192000004492,,,,,nat_1,001,2020_Jan_31_1418,posner,3.1.5,59.96339834168466,
0.5,180,1,right,2,4,1,0,1,0,8,6,70,5,,,,,,,,,419.1595005999998,419.6595476000002,420.3769849999999,None,419.67614200000025,420.36039940000046,420.87767650000023,None,right,1,420.87767650000023,None,None,419.67614200000025,420.86120910000045,0.5116106000004947,0.5949906000005285,1.7132484000003387,1.7967594000001554,0.33516659999986587,,,,,nat_1,001,2020_Jan_31_1418,posner,3.1.5,59.96339834168466,
-0.5,0,1,left,1,3,1,0,1,0,8,7,71,2,,,,,,,,,421.2288058000004,421.72886579999977,422.4466259000001,None,421.74584479999976,422.4298901000002,422.9474084000003,None,left,1,422.9474084000003,None,None,421.74584479999976,422.9307206000003,0.5114974999996775,0.595070699999269,1.7133275999995021,1.79673559999992,0.36157249999996566,,,,,nat_1,001,2020_Jan_31_1418,posner,3.1.5,59.96339834168466,
0.5,0,0,right,1,4,1,0,1,0,9,0,72,3,,,,,,,,,423.3321810999996,423.8318443999997,424.54947660000016,None,423.84846350000043,424.5328059000003,425.0504334999996,None,right,1,425.0504334999996,None,None,423.84846350000043,425.0335212,0.5110954000001584,0.5947309000002861,1.712746000000152,1.7962110999997094,0.38635680000061257,,,,,nat_1,001,2020_Jan_31_1418,posner,3.1.5,59.96339834168466,
-0.5,0,1,left,1,3,1,0,1,0,9,1,73,2,,,,,,,,,425.4679949000001,425.9680699999999,426.68587240000033,None,425.9849876999997,426.6692684999998,427.1863764,None,left,1,427.1863764,None,None,425.9849876999997,427.16992630000004,0.5112912999993569,0.5949141000000964,1.7131193999994139,1.796496599999955,0.3304510999996637,,,,,nat_1,001,2020_Jan_31_1418,posner,3.1.5,59.96339834168466,
0.5,180,1,right,2,4,1,0,1,0,9,2,74,7,,,,,,,,,427.5379687000004,428.0376921999996,428.7553809000001,None,428.05448179999985,428.73854740000024,429.25602549999985,None,right,1,429.25602549999985,None,None,428.05448179999985,429.2391612000001,0.5111576999997851,0.5947409999998854,1.7126077000002624,1.796351699999832,0.2928494999996474,,,,,nat_1,001,2020_Jan_31_1418,posner,3.1.5,59.96339834168466,
-0.5,0,1,left,1,3,1,0,1,0,9,3,75,1,,,,,,,,,429.57368979999956,430.0737565999998,430.7914277,None,430.0905098000003,430.7749223999999,431.29205249999995,None,left,1,431.29205249999995,None,None,430.0905098000003,431.2755047999999,0.5116029999999228,0.5949276999999711,1.7133274999996502,1.7966930000002321,0.30482220000067173,,,,,nat_1,001,2020_Jan_31_1418,posner,3.1.5,59.96339834168466,
0.5,180,1,right,2,4,1,0,1,0,9,4,76,5,,,,,,,,,431.6262482000002,432.12664140000015,432.84426749999966,None,432.14352340000005,432.8276044000004,433.3451242000001,None,right,1,433.3451242000001,None,None,432.14352340000005,433.32818450000013,0.5117381999998543,0.5955314000002545,1.7132615999998961,1.7967368999998143,0.267627100000027,,,,,nat_1,001,2020_Jan_31_1418,posner,3.1.5,59.96339834168466,
0.5,180,1,right,2,4,1,0,1,0,9,5,77,6,,,,,,,,,433.62950770000043,434.1294441,434.8470433000002,None,434.14620319999995,434.8303668999997,435.34770000000026,None,right,1,435.34770000000026,None,None,434.14620319999995,435.33121089999986,0.5115736000007018,0.5950179000001299,1.7133055000003878,1.7966546000006929,0.2971750999995493,,,,,nat_1,001,2020_Jan_31_1418,posner,3.1.5,59.96339834168466,
-0.5,180,0,left,2,3,1,0,1,0,9,6,78,4,,,,,,,,,435.6659534999999,436.1654577999998,436.883116,None,436.1821659999996,436.8664160999997,437.3839361,None,left,1,437.3839361,None,None,436.1821659999996,437.3670963000004,0.5110391000007439,0.594516900000599,1.7126649000001635,1.7962703000002875,0.356938099999752,,,,,nat_1,001,2020_Jan_31_1418,posner,3.1.5,59.96339834168466,
-0.5,0,1,left,1,3,1,0,1,0,9,7,79,0,,,,,,,,,437.7682727000001,438.2682569999997,438.98584930000015,None,438.2852694000003,438.9694460999999,439.4865928999998,None,left,1,439.4865928999998,None,None,438.2852694000003,439.47008619999997,0.5114034999996875,0.595184199999494,1.7132254999996803,1.7966902999996819,0.3181199000000561,,,,,nat_1,001,2020_Jan_31_1418,posner,3.1.5,59.96339834168466,
-0.5,0,1,left,1,3,1,0,1,0,10,0,80,1,,,,,,,,,439.8209975,440.32131349999963,441.03894729999956,None,440.3380573000004,441.02238020000004,441.53972150000027,None,left,1,441.53972150000027,None,None,440.3380573000004,441.52290840000023,0.5120311000000584,0.5955878000004304,1.7136178999999174,1.7970639000004667,0.2971541000006255,,,,,nat_1,001,2020_Jan_31_1418,posner,3.1.5,59.96339834168466,
0.5,180,1,right,2,4,1,0,1,0,10,1,81,6,,,,,,,,,441.85741640000015,442.3572475000001,443.0751532000004,None,442.3741530999996,443.0582654,443.5756700000002,None,right,1,443.5756700000002,None,None,442.3741530999996,443.5589619000002,0.5112640999996074,0.5952011999997922,1.7129555999999866,1.7964527999993152,0.2770964000001186,,,,,nat_1,001,2020_Jan_31_1418,posner,3.1.5,59.96339834168466,
-0.5,180,0,left,2,3,1,0,1,0,10,2,82,4,,,,,,,,,443.8766777999999,444.37669040000037,445.0944999000003,None,444.39362640000036,445.07765219999965,445.5952575000001,None,left,1,445.5952575000001,None,None,444.39362640000036,445.57829889999994,0.5115249999998923,0.5952477999999246,1.7131147999998575,1.7970400000003792,0.353536499999791,,,,,nat_1,001,2020_Jan_31_1418,posner,3.1.5,59.96339834168466,
0.5,180,1,right,2,4,1,0,1,0,10,3,83,7,,,,,,,,,445.97955679999995,446.4796371000002,447.1973039000004,None,446.49631169999975,447.18073840000034,447.6978987000002,None,right,1,447.6978987000002,None,None,446.49631169999975,447.68145449999975,0.5114819000000352,0.5950074000002132,1.7132591999998112,1.7965546000004906,0.2829173999998602,,,,,nat_1,001,2020_Jan_31_1418,posner,3.1.5,59.96339834168466,
0.5,0,0,right,1,4,1,0,1,0,10,4,84,3,,,,,,,,,447.9995084000002,448.49896569999964,449.21665399999983,None,448.5157613000001,449.2002629999997,449.71739590000016,None,right,1,449.71739590000016,None,None,448.5157613000001,449.7010000999999,0.5112205000004906,0.5948857000003045,1.7132307000001674,1.796579500000007,0.3593198999997185,,,,,nat_1,001,2020_Jan_31_1418,posner,3.1.5,59.96339834168466,
0.5,180,1,right,2,4,1,0,1,0,10,5,85,5,,,,,,,,,450.1021154,450.6022345000001,451.3198789999997,None,450.61872700000004,451.3030644999999,451.8204722999999,None,right,1,451.8204722999999,None,None,450.61872700000004,451.8038085999997,0.5115372999998726,0.5946939999994356,1.7130944000000454,1.7963333999996394,0.3361814999998387,,,,,nat_1,001,2020_Jan_31_1418,posner,3.1.5,59.96339834168466,
-0.5,0,1,left,1,3,1,0,1,0,10,6,86,2,,,,,,,,,452.1881317999996,452.68818980000015,453.4059196999997,None,452.70504679999976,453.38916380000046,453.90644040000006,None,left,1,453.90644040000006,None,None,452.70504679999976,453.8898210999996,0.5114474999991216,0.5950383999997939,1.7130612999999357,1.7964916999999332,0.3462193000004845,,,,,nat_1,001,2020_Jan_31_1418,posner,3.1.5,59.96339834168466,
-0.5,0,1,left,1,3,1,0,1,0,10,7,87,0,,,,,,,,,454.27465459999985,454.7744862999998,455.4922772,None,454.7912821,455.47542929999963,455.9926935000003,None,left,1,455.9926935000003,None,None,454.7912821,455.97608240000045,0.5115241000003152,0.5948115000001053,1.7130961000002571,1.7964713000001211,0.29203400000005786,,,,,nat_1,001,2020_Jan_31_1418,posner,3.1.5,59.96339834168466,
,,,,,,1,0,1,0,,,,,,,,,,,,,,,,,,,,,,,,,,,,,,,,,456.3098650000002,None,1.6399999367422424e-05,0.9961822999994183,nat_1,001,2020_Jan_31_1418,posner,3.1.5,59.96339834168466,
-0.5,0,1,left,1,3,2,0,2,0,0,0,0,0,1.2399999832268804e-05,0.09751280000000406,517.3271112000002,None,1.559999964229064e-05,0.09787389999928564,519.4300014999999,None,519.7150117000001,520.2144612000002,520.9321066000002,None,520.2311183000002,520.9154890999998,521.4328382000003,None,left,1,521.4328382000003,None,None,520.2311183000002,521.4160468,0.507985500000359,0.5912250000001222,1.709558399999878,1.7930064000001948,0.3715186999997968,,,,,nat_1,001,2020_Jan_31_1418,posner,3.1.5,59.96339834168466,
-0.5,0,1,left,1,3,2,0,2,0,0,1,1,1,,,,,,,,,521.8336190999999,522.3340466,523.0515495,None,522.3507879999997,523.0352890000004,523.5523365999998,None,left,1,523.5523365999998,None,None,522.3507879999997,523.5356342000005,0.5109746999996787,0.5942214999995485,1.7125536999992619,1.7957874999992782,0.3799985999994533,,,,,nat_1,001,2020_Jan_31_1418,posner,3.1.5,59.96339834168466,
-0.5,0,1,left,1,3,2,0,2,0,0,2,2,2,,,,,,,,,523.9541742000001,524.4536054999999,525.1712237000002,None,524.4702027000003,525.1545722999999,525.6720506000001,None,left,1,525.6720506000001,None,None,524.4702027000003,525.6552073000003,0.5111692999998922,0.5944732999996631,1.7127588000003016,1.7961715999999797,0.3242943000004743,,,,,nat_1,001,2020_Jan_31_1418,posner,3.1.5,59.96339834168466,
0.5,0,0,right,1,4,2,0,2,0,0,3,3,3,,,,,,,,,526.0230143999997,526.5230725000001,527.2408648999999,None,526.5399127999999,527.2240852000004,527.7413581000001,528.2255453999996,None,0,527.7413581000001,None,None,526.5399127999999,527.7246773999996,0.5117489000003843,0.595129100000122,1.7133304999997563,1.7967369999996663,,,,,,nat_1,001,2020_Jan_31_1418,posner,3.1.5,59.96339834168466,
0.5,180,1,right,2,4,2,0,2,0,0,4,4,6,,,,,,,,,528.7260378999999,529.2267260999997,529.9447284999997,528.7260378999999,529.2434831999999,529.9275840999999,530.4451445000004,None,right,1,530.4451445000004,None,None,529.2434831999999,530.4284799999996,0.5137719000003926,0.5973438999999416,1.7155069000000367,1.7988344000004872,0.3992664999996123,,,,,nat_1,001,2020_Jan_31_1418,posner,3.1.5,59.96339834168466,
0.5,180,1,right,2,4,2,0,2,0,0,5,5,7,,,,,,,,,530.8631668999997,531.3632814000002,532.0806826999997,None,531.3798573000004,532.0643332,532.5814301,None,right,1,532.5814301,None,None,531.3798573000004,532.5648400999999,0.5114958000003753,0.5945213000004514,1.7130363000005673,1.7963717000002362,0.2787994999998773,,,,,nat_1,001,2020_Jan_31_1418,posner,3.1.5,59.96339834168466,
0.5,180,1,right,2,4,2,0,2,0,0,6,6,5,,,,,,,,,532.8826920000001,533.3827308999998,534.1001447999997,None,533.3989879000001,534.0834699999996,534.6009979,None,right,1,534.6009979,None,None,533.3989879000001,534.5843587999998,0.5114761999993789,0.5946178999993208,1.7130901999998969,1.796093199999632,0.30710999999973865,,,,,nat_1,001,2020_Jan_31_1418,posner,3.1.5,59.96339834168466,
-0.5,180,0,left,2,3,2,0,2,0,0,7,7,4,,,,,,,,,534.9348653999996,535.4353075999998,536.1530894999996,None,535.4520848000002,536.1361149000004,536.6537619000001,None,left,1,536.6537619000001,None,None,535.4520848000002,536.6368619000004,0.5113844999996218,0.5947431000004144,1.712919100000363,1.7965433999997913,0.3345027999994272,,,,,nat_1,001,2020_Jan_31_1418,posner,3.1.5,59.96339834168466,
0.5,180,1,right,2,4,2,0,2,0,1,0,8,5,,,,,,,,,537.0046638000003,537.5050232000003,538.2224858999998,None,537.5214285000002,538.2057088000001,538.7232199999999,None,right,1,538.7232199999999,None,None,537.5214285000002,538.706416,0.5118797999994058,0.5952213999999003,1.7132548999998107,1.796915899999476,0.280922300000384,,,,,nat_1,001,2020_Jan_31_1418,posner,3.1.5,59.96339834168466,
-0.5,0,1,left,1,3,2,0,2,0,1,1,9,2,,,,,,,,,539.0242254000004,539.5244707000002,540.2421424000004,None,539.5407426000002,540.2251402000002,540.7425396999997,None,left,1,540.7425396999997,None,None,539.5407426000002,540.7260538999999,0.5116937000002508,0.5947206000000733,1.7132598999996844,1.7964851999995517,0.24563429999943764,,,,,nat_1,001,2020_Jan_31_1418,posner,3.1.5,59.96339834168466,
0.5,180,1,right,2,4,2,0,2,0,1,2,10,6,,,,,,,,,541.0103141,541.5103146000001,542.2279011,None,541.5269195999999,542.2113054000001,542.7286883999996,None,right,1,542.7286883999996,None,None,541.5269195999999,542.7121334000003,0.5120063000003938,0.5955793000002814,1.7138060999996014,1.7970629000001281,0.2755939999997281,,,,,nat_1,001,2020_Jan_31_1418,posner,3.1.5,59.96339834168466,
0.5,180,1,right,2,4,2,0,2,0,1,3,11,7,,,,,,,,,543.0297899999996,543.5298349000004,544.2472337999998,None,543.5463559,544.2307208000002,544.7480566000004,None,right,1,544.7480566000004,None,None,543.5463559,544.7316076999996,0.5115781000004063,0.5949396000005436,1.713326699999925,1.7966622000003554,0.2722676000003048,,,,,nat_1,001,2020_Jan_31_1418,posner,3.1.5,59.96339834168466,
0.5,0,0,right,1,4,2,0,2,0,1,4,12,3,,,,,,,,,545.0491671,545.5493256999998,546.2666602999998,None,545.565724,546.2502498000003,546.7673606999997,None,right,1,546.7673606999997,None,None,545.565724,546.7509926000002,0.511612299999797,0.5950211999997919,1.7132426999996824,1.7966040999999677,0.33294630000000325,,,,,nat_1,001,2020_Jan_31_1418,posner,3.1.5,59.96339834168466,
-0.5,0,1,left,1,3,2,0,2,0,1,5,13,0,,,,,,,,,547.1187839000004,547.6187321999996,548.3362303000004,None,547.6354073000002,548.3198308000001,548.8369911999998,None,left,1,548.8369911999998,None,None,547.6354073000002,548.8202939000003,0.5114916000002268,0.5949067000001378,1.713024800000312,1.7964757999998255,0.31114400000024034,,,,,nat_1,001,2020_Jan_31_1418,posner,3.1.5,59.96339834168466,
-0.5,180,0,left,2,3,2,0,2,0,1,6,14,4,,,,,,,,,549.1716196999996,549.6715863,550.3892496999997,None,549.6881744000002,550.3725371999999,550.8898838000005,None,left,1,550.8898838000005,None,None,549.6881744000002,550.8730121999997,0.5114178000003449,0.5950020000000222,1.7128321000000142,1.7963670999997703,0.3064593999997669,,,,,nat_1,001,2020_Jan_31_1418,posner,3.1.5,59.96339834168466,
-0.5,0,1,left,1,3,2,0,2,0,1,7,15,1,,,,,,,,,551.2245125999998,551.7243681999998,552.4420428000003,None,551.7411580999997,552.4255364,552.9428343999998,None,left,1,552.9428343999998,None,None,551.7411580999997,552.9259768000002,0.5116047000001345,0.5949063999996724,1.7131976999999097,1.7968684999996185,0.33349619999989955,,,,,nat_1,001,2020_Jan_31_1418,posner,3.1.5,59.96339834168466,
-0.5,0,1,left,1,3,2,0,2,0,2,0,16,2,,,,,,,,,553.2939913999999,553.7939944999998,554.5116760000001,None,553.8107928,554.4949103999998,555.0122854000001,None,left,1,555.0122854000001,None,None,553.8107928,554.9954042999998,0.5115464999998949,0.5948569000001953,1.7129370000002382,1.7965376000001925,0.27987640000083047,,,,,nat_1,001,2020_Jan_31_1418,posner,3.1.5,59.96339834168466,
-0.5,0,1,left,1,3,2,0,2,0,2,1,17,0,,,,,,,,,555.3131246000003,555.8133716000002,556.5308714000003,None,555.8301382999998,556.5142879000005,557.0317501999998,None,left,1,557.0317501999998,None,None,555.8301382999998,557.0148870000003,0.5112496000001556,0.5945560000000114,1.712752599999476,1.7962200000001758,0.2763819000001604,,,,,nat_1,001,2020_Jan_31_1418,posner,3.1.5,59.96339834168466,
0.5,180,1,right,2,4,2,0,2,0,2,2,18,6,,,,,,,,,557.3325987999997,557.8328119999996,558.5505181999997,None,557.8493795000004,558.5336457000003,559.0513395999997,None,right,1,559.0513395999997,None,None,557.8493795000004,559.0345950000001,0.5114396999997552,0.5946567999999388,1.71320680000008,1.7963595000001078,0.3049983000000793,,,,,nat_1,001,2020_Jan_31_1418,posner,3.1.5,59.96339834168466,
0.5,0,0,right,1,4,2,0,2,0,2,3,19,3,,,,,,,,,559.3857195,559.8856355999997,560.6033786999997,None,559.9022599,560.5865634000002,561.1041640000003,None,right,1,561.1041640000003,None,None,559.9022599,561.0872378000004,0.5114344000003257,0.5947723999997834,1.7130237999999736,1.796388400000069,0.3480276000000231,,,,,nat_1,001,2020_Jan_31_1418,posner,3.1.5,59.96339834168466,
-0.5,180,0,left,2,3,2,0,2,0,2,4,20,4,,,,,,,,,561.4720754,561.9719240000004,562.6893485999999,None,561.9884246000001,562.6726208999999,563.1901957999999,None,left,1,563.1901957999999,None,None,561.9884246000001,563.1735208999999,0.5114063000000897,0.5947000999994998,1.7129864999997153,1.7961829999994734,0.30992500000047585,,,,,nat_1,001,2020_Jan_31_1418,posner,3.1.5,59.96339834168466,
0.5,180,1,right,2,4,2,0,2,0,2,5,21,5,,,,,,,,,563.5246118000005,564.0245419000003,564.7422347000002,None,564.0413916999996,564.7255572000004,565.2428682999998,None,right,1,565.2428682999998,None,None,564.0413916999996,565.2262203,0.5116178000007494,0.5951222000003327,1.7132759000005535,1.7967428000001746,0.27338609999969776,,,,,nat_1,001,2020_Jan_31_1418,posner,3.1.5,59.96339834168466,
0.5,180,1,right,2,4,2,0,2,0,2,6,22,7,,,,,,,,,565.5437426999997,566.0441371999996,566.7617081999997,None,566.060829,566.7451094999997,567.2623129000003,None,right,1,567.2623129000003,None,None,566.060829,567.2455370999996,0.5121404999999868,0.5952875000002678,1.7135275000000547,1.7971176999999443,0.2537584000001516,,,,,nat_1,001,2020_Jan_31_1418,posner,3.1.5,59.96339834168466,
-0.5,0,1,left,1,3,2,0,2,0,2,7,23,1,,,,,,,,,567.5462579000005,568.0466336,568.7643734000003,None,568.0635178000002,568.7475046999998,569.2650436000004,None,left,1,569.2650436000004,None,None,568.0635178000002,569.2483610999998,0.5117098000000624,0.5953251999999338,1.7134249000000636,1.796920599999794,0.2990858000002845,,,,,nat_1,001,2020_Jan_31_1418,posner,3.1.5,59.96339834168466,
-0.5,180,0,left,2,3,2,0,2,0,3,0,24,4,,,,,,,,,569.5830320000005,570.0828783999996,570.8006992,None,570.0995672999998,570.7840243999999,571.3013391000004,None,left,1,571.3013391000004,None,None,570.0995672999998,571.2846768999998,0.511282299999948,0.5946112000001449,1.7130643999998938,1.7962876999999935,0.34276060000047437,,,,,nat_1,001,2020_Jan_31_1418,posner,3.1.5,59.96339834168466,
0.5,180,1,right,2,4,2,0,2,0,3,1,25,5,,,,,,,,,571.6693722999998,572.1692796999996,572.8867846000003,None,572.1856698000001,572.8700656000001,573.3873535000002,None,right,1,573.3873535000002,None,None,572.1856698000001,573.3708397,0.5116374999997788,0.5949232000002667,1.7131804000000557,1.796750499999689,0.2728440999999293,,,,,nat_1,001,2020_Jan_31_1418,posner,3.1.5,59.96339834168466,
-0.5,0,1,left,1,3,2,0,2,0,3,2,26,1,,,,,,,,,573.6885036000003,574.1885910999999,574.9060423999999,None,574.2053919999998,574.8895759999996,575.4067420000001,None,left,1,575.4067420000001,None,None,574.2053919999998,575.3902397000002,0.5117204999996829,0.5951743999994505,1.7132967999996254,1.7967681999998604,0.28533799999968323,,,,,nat_1,001,2020_Jan_31_1418,posner,3.1.5,59.96339834168466,
0.5,0,0,right,1,4,2,0,2,0,3,3,27,3,,,,,,,,,575.7079952000004,576.2078033999996,576.9256284000003,None,576.2247765000002,576.9092222999998,577.4263879,None,right,1,577.4263879,None,None,576.2247765000002,577.4097350000002,0.5114311000006637,0.5951325000005454,1.7133392000005188,1.7966997000003175,0.29764979999981733,,,,,nat_1,001,2020_Jan_31_1418,posner,3.1.5,59.96339834168466,
0.5,180,1,right,2,4,2,0,2,0,3,4,28,6,,,,,,,,,577.7441495000003,578.2441489000003,578.9619081000001,None,578.2607248000004,578.9450790000001,579.4625550999999,None,right,1,579.4625550999999,None,None,578.2607248000004,579.4456719,0.5116318999998839,0.5949609999997847,1.713135200000579,1.7966106000003492,0.29353679999985616,,,,,nat_1,001,2020_Jan_31_1418,posner,3.1.5,59.96339834168466,
-0.5,0,1,left,1,3,2,0,2,0,3,5,29,0,,,,,,,,,579.7803860000004,580.2802985999997,580.9979401,None,580.2969882999996,580.9812388999999,581.4984457999999,None,left,1,581.4984457999999,None,None,580.2969882999996,581.4818444000002,0.5114835999993375,0.5949642999994467,1.71298299999944,1.7964813999997205,0.28962810000030004,,,,,nat_1,001,2020_Jan_31_1418,posner,3.1.5,59.96339834168466,
-0.5,0,1,left,1,3,2,0,2,0,3,6,30,2,,,,,,,,,581.8158732000002,582.3163795999999,583.0340161000004,None,582.3330765000001,583.0172654999997,583.5348090999996,None,left,1,583.5348090999996,None,None,582.3330765000001,583.5179134999998,0.5121037999997498,0.5958040000004985,1.7136176000003616,1.7974137999999584,0.3333420000008118,,,,,nat_1,001,2020_Jan_31_1418,posner,3.1.5,59.96339834168466,
0.5,180,1,right,2,4,2,0,2,0,3,7,31,7,,,,,,,,,583.8861890999997,584.3859206999996,585.1037716999999,None,584.4027576999997,585.0866518000003,585.6042199000003,None,right,1,585.6042199000003,None,None,584.4027576999997,585.5876271999996,0.511393699999644,0.5947957999997016,1.7130817999995998,1.7966244999997798,0.2957652999994025,,,,,nat_1,001,2020_Jan_31_1418,posner,3.1.5,59.96339834168466,
-0.5,0,1,left,1,3,2,0,2,0,4,0,32,1,,,,,,,,,585.9222774999998,586.422219,587.1396249,None,586.4390831999999,587.1231438000004,587.6405296000003,None,left,1,587.6405296000003,None,None,586.4390831999999,587.6238193999998,0.5112601000000723,0.594379399999525,1.7128419000000576,1.7960826999997153,0.3075949000003675,,,,,nat_1,001,2020_Jan_31_1418,posner,3.1.5,59.96339834168466,
0.5,180,1,right,2,4,2,0,2,0,4,1,33,6,,,,,,,,,587.9749493999998,588.4748368,589.1926274999996,None,588.4916124000001,589.1758774999998,589.6933343999999,None,right,1,589.6933343999999,None,None,588.4916124000001,589.6763443,0.511657600000035,0.5950265999999829,1.7131479999998191,1.7968179999998029,0.2545955000005051,,,,,nat_1,001,2020_Jan_31_1418,posner,3.1.5,59.96339834168466,
0.5,0,0,right,1,4,2,0,2,0,4,2,34,3,,,,,,,,,589.9774441,590.4776300000003,591.1953839999996,None,590.4941468999996,591.1786039999997,591.6958550999998,None,right,1,591.6958550999998,None,None,590.4941468999996,591.6794145000003,0.5114545999995244,0.5948643000001539,1.7131917999995494,1.7964332999999897,0.3002470999999787,,,,,nat_1,001,2020_Jan_31_1418,posner,3.1.5,59.96339834168466,
0.5,180,1,right,2,4,2,0,2,0,4,3,35,5,,,,,,,,,592.0138125000003,592.5138341000002,593.2315122999998,None,592.5306094999996,593.2148908999998,593.7322415999997,None,right,1,593.7322415999997,None,None,592.5306094999996,593.7155555999998,0.5114893999998458,0.5947526999998445,1.7131894999993165,1.7965142999992167,0.2637584000003699,,,,,nat_1,001,2020_Jan_31_1418,posner,3.1.5,59.96339834168466,
-0.5,180,0,left,2,3,2,0,2,0,4,4,36,4,,,,,,,,,594.0170043999997,594.5162668000003,595.2344568999997,None,594.5332285000004,595.2173825999998,595.7348044999999,None,left,1,595.7348044999999,None,None,594.5332285000004,595.7180523999996,0.5110923000002003,0.5948067999997875,1.712857200000144,1.7963450999995985,0.32510829999955604,,,,,nat_1,001,2020_Jan_31_1418,posner,3.1.5,59.96339834168466,
-0.5,0,1,left,1,3,2,0,2,0,4,5,37,2,,,,,,,,,596.0856082,596.5858657999997,597.3038433000002,None,596.6026809000005,597.2868834999999,597.8044735000003,None,left,1,597.8044735000003,None,None,596.6026809000005,597.7876347000001,0.5113771000005727,0.5951424000004408,1.7131306999999651,1.7966344000005847,0.27140459999918676,,,,,nat_1,001,2020_Jan_31_1418,posner,3.1.5,59.96339834168466,
0.5,180,1,right,2,4,2,0,2,0,4,6,38,7,,,,,,,,,598.1055947000004,598.6056222999996,599.3233406999998,None,598.6220368000004,599.3063426999997,599.8238892999998,None,right,1,599.8238892999998,None,None,598.6220368000004,599.8069758000001,0.5115175999999337,0.5947047999998176,1.7128560000001016,1.7965776999999434,0.3001107999998567,,,,,nat_1,001,2020_Jan_31_1418,posner,3.1.5,59.96339834168466,
-0.5,0,1,left,1,3,2,0,2,0,4,7,39,0,,,,,,,,,600.1419494000002,600.6416121000002,601.3592363999996,None,600.6582147999998,601.3426130999997,601.8599506999999,None,left,1,601.8599506999999,None,None,600.6582147999998,601.8432639000002,0.5112470999993093,0.5946756999992431,1.7128874999998516,1.7961019999993368,0.3121664000000237,,,,,nat_1,001,2020_Jan_31_1418,posner,3.1.5,59.96339834168466,
0.5,180,1,right,2,4,2,0,2,0,5,0,40,6,,,,,,,,,602.1944415999997,602.6946304000003,603.4121252000004,None,602.7109424,603.3954334999999,603.9129233000003,None,right,1,603.9129233000003,None,None,602.7109424,603.8959867000003,0.5116214999998192,0.5947421999999278,1.7129657000004954,1.7965530999999828,0.3072132999996029,,,,,nat_1,001,2020_Jan_31_1418,posner,3.1.5,59.96339834168466,
0.5,0,0,right,1,4,2,0,2,0,5,1,41,3,,,,,,,,,604.2469842,604.7471275999997,605.4650963000004,None,604.7639384000004,605.4482586000004,605.9655382000001,None,right,1,605.9655382000001,None,None,604.7639384000004,605.9487898999996,0.5118192999998428,0.5954461999999694,1.713469499999519,1.7969342999995206,0.30227990000003047,,,,,nat_1,001,2020_Jan_31_1418,posner,3.1.5,59.96339834168466,
-0.5,0,1,left,1,3,2,0,2,0,5,2,42,2,,,,,,,,,606.2995480999998,606.8001147000004,607.5176228,None,606.8167832999998,607.5011605999998,608.0182680999997,None,left,1,608.0182680999997,None,None,606.8167832999998,608.0018333999997,0.5123994999994466,0.5958279999995284,1.7141021999996156,1.797358599999825,0.29759609999928216,,,,,nat_1,001,2020_Jan_31_1418,posner,3.1.5,59.96339834168466,
-0.5,180,0,left,2,3,2,0,2,0,5,3,43,4,,,,,,,,,608.3363763999996,608.8360129000002,609.5541352999999,None,608.8528964999996,609.5373056999997,610.0547051000003,None,left,1,610.0547051000003,None,None,608.8528964999996,610.0378996,0.5113543000006757,0.594949400000587,1.713226100000611,1.7967054000000644,0.30916400000023714,,,,,nat_1,001,2020_Jan_31_1418,posner,3.1.5,59.96339834168466,
-0.5,0,1,left,1,3,2,0,2,0,5,4,44,0,,,,,,,,,610.3892593,610.8890099999999,611.6064526,None,610.9056581000004,611.5899952999998,612.1073212000001,None,left,1,612.1073212000001,None,None,610.9056581000004,612.0907213,0.5114981999995507,0.5948960999994597,1.7131434999992052,1.7965480999991996,0.3045038000000204,,,,,nat_1,001,2020_Jan_31_1418,posner,3.1.5,59.96339834168466,
0.5,180,1,right,2,4,2,0,2,0,5,5,45,5,,,,,,,,,612.4420651999999,612.9419633999996,613.6596276,None,612.9584622000002,613.6427938999996,614.1600920000001,None,right,1,614.1600920000001,None,None,612.9584622000002,614.1436206999997,0.5117064999994909,0.5950115999994523,1.713340000000244,1.7965771999997742,0.299929499999962,,,,,nat_1,001,2020_Jan_31_1418,posner,3.1.5,59.96339834168466,
0.5,180,1,right,2,4,2,0,2,0,5,6,46,7,,,,,,,,,614.4781743000003,614.9778482000002,615.6955162000004,None,614.9945888000002,615.6787826999998,616.1962044000002,None,right,1,616.1962044000002,None,None,614.9945888000002,616.1796845999997,0.5111636999999973,0.594613200000822,1.71298090000073,1.796322200000759,0.279634100000294,,,,,nat_1,001,2020_Jan_31_1418,posner,3.1.5,59.96339834168466,
-0.5,0,1,left,1,3,2,0,2,0,5,7,47,1,,,,,,,,,616.4979092000003,616.9973067000001,617.7149698000003,None,617.0140627999999,617.6982367,618.2156144,None,left,1,618.2156144,None,None,617.0140627999999,618.199243,0.5112878999998429,0.594725599999947,1.7132009999995716,1.7963449999997465,0.27621559999988676,,,,,nat_1,001,2020_Jan_31_1418,posner,3.1.5,59.96339834168466,
-0.5,0,1,left,1,3,2,0,2,0,6,0,48,1,,,,,,,,,618.5168175999997,619.0167619000003,619.7345060999996,None,619.0335821999997,619.7178329999997,620.2352403000004,None,left,1,620.2352403000004,None,None,619.0335821999997,620.2183906999999,0.5114961999997831,0.5950540999992882,1.713114599999244,1.7965948999999455,0.2887505999997302,,,,,nat_1,001,2020_Jan_31_1418,posner,3.1.5,59.96339834168466,
-0.5,0,1,left,1,3,2,0,2,0,6,1,49,0,,,,,,,,,620.5531252000001,621.0530136999996,621.7707326999998,None,621.0696705,621.7540190999998,622.2715146999999,None,left,1,622.2715146999999,None,None,621.0696705,622.2548094000003,0.5116072999999233,0.5948803000001135,1.713386100000207,1.7966181000001598,0.3004435000002559,,,,,nat_1,001,2020_Jan_31_1418,posner,3.1.5,59.96339834168466,
0.5,180,1,right,2,4,2,0,2,0,6,2,50,7,,,,,,,,,622.5894534999998,623.0892764999999,623.8066629000004,None,623.1056122,623.7901043000002,624.3073519999998,None,right,1,624.3073519999998,None,None,623.1056122,624.2908378000002,0.5114340999998603,0.5947412999994413,1.712986099999398,1.7964531999996325,0.2964482000006683,,,,,nat_1,001,2020_Jan_31_1418,posner,3.1.5,59.96339834168466,
0.5,180,1,right,2,4,2,0,2,0,6,3,51,5,,,,,,,,,624.6254133000002,625.1251682000002,625.8429021000002,None,625.1418998999998,625.8260185999998,626.3436590000001,None,right,1,626.3436590000001,None,None,625.1418998999998,626.3268103999999,0.5114856000000145,0.5948414999993474,1.713116899999477,1.7964382999998634,0.24409840000043914,,,,,nat_1,001,2020_Jan_31_1418,posner,3.1.5,59.96339834168466,
0.5,0,0,right,1,4,2,0,2,0,6,4,52,3,,,,,,,,,626.6109114999999,627.1113299999997,627.8289199000001,None,627.1280435999997,627.8122273999998,628.3297110000003,None,right,1,628.3297110000003,None,None,627.1280435999997,628.3127962999997,0.512044799999785,0.5955885999992461,1.7134963999997126,1.7971229999993739,0.30619449999994686,,,,,nat_1,001,2020_Jan_31_1418,posner,3.1.5,59.96339834168466,
-0.5,0,1,left,1,3,2,0,2,0,6,5,53,2,,,,,,,,,628.6641012999999,629.1642875999996,629.8817662000001,None,629.1806859999997,629.8650771000002,630.3825034000001,None,left,1,630.3825034000001,None,None,629.1806859999997,630.3656295999999,0.5116422999999486,0.5948052999992797,1.71296859999984,1.7967134999998962,0.2532977999999275,,,,,nat_1,001,2020_Jan_31_1418,posner,3.1.5,59.96339834168466,
-0.5,180,0,left,2,3,2,0,2,0,6,6,54,4,,,,,,,,,630.6663830999996,631.1666630999998,631.8845428000004,None,631.1837056000004,631.8676851,632.3853120000003,None,left,1,632.3853120000003,None,None,631.1837056000004,632.3684216000001,0.5116281999999046,0.5953395999995337,1.7136499999996886,1.796963899999355,0.4264418000002479,,,,,nat_1,001,2020_Jan_31_1418,posner,3.1.5,59.96339834168466,
0.5,180,1,right,2,4,2,0,2,0,6,7,55,6,,,,,,,,,632.8362887000003,633.3365147000004,634.0542886000003,None,633.3532820999999,634.0374408999996,634.5548964,None,right,1,634.5548964,None,None,633.3532820999999,634.5381993000001,0.511931399999412,0.5953326999997444,1.7135961999993015,1.7970699999996214,0.2888726000001043,,,,,nat_1,001,2020_Jan_31_1418,posner,3.1.5,59.96339834168466,
-0.5,0,1,left,1,3,2,0,2,0,7,0,56,1,,,,,,,,,634.8724949999996,635.3726403999999,636.0903681,None,635.3895085000004,636.0737494000005,636.5909247,None,left,1,636.5909247,None,None,635.3895085000004,636.5743636999996,0.5110473000004276,0.5943094000003839,1.7127592000006189,1.7959890000001906,0.2848424999992858,,,,,nat_1,001,2020_Jan_31_1418,posner,3.1.5,59.96339834168466,
-0.5,180,0,left,2,3,2,0,2,0,7,1,57,4,,,,,,,,,636.8920501000002,637.3921682999999,638.1098054000004,None,637.4088204999998,638.0931355000002,638.6104217000002,None,left,1,638.6104217000002,None,None,637.4088204999998,638.5938383000002,0.511537500000486,0.5948150000003807,1.7131899000005433,1.7963487000006353,0.3133261000002676,,,,,nat_1,001,2020_Jan_31_1418,posner,3.1.5,59.96339834168466,
-0.5,0,1,left,1,3,2,0,2,0,7,2,58,2,,,,,,,,,638.9453430000003,639.4449287999996,640.1625243999997,None,639.4616032000004,640.1457110000001,640.6632578999997,None,left,1,640.6632578999997,None,None,639.4616032000004,640.6465706999998,0.5114080000003014,0.594668300000194,1.713030500000059,1.7966203000005407,0.2764281999998275,,,,,nat_1,001,2020_Jan_31_1418,posner,3.1.5,59.96339834168466,
0.5,180,1,right,2,4,2,0,2,0,7,3,59,7,,,,,,,,,640.9642857999997,641.4643512000002,642.1820475000004,None,641.4811257000001,642.1652059999997,642.6828274,None,right,1,642.6828274,None,None,641.4811257000001,642.6659332999998,0.5116070000003674,0.5949121000003288,1.7131655000002866,1.7966115999997783,0.2570192000002862,,,,,nat_1,001,2020_Jan_31_1418,posner,3.1.5,59.96339834168466,
0.5,180,1,right,2,4,2,0,2,0,7,4,60,6,,,,,,,,,642.9667873999997,643.4669609000002,644.1847696000004,None,643.4838820000004,644.1679952000004,644.6852319999998,None,right,1,644.6852319999998,None,None,643.4838820000004,644.6686307999998,0.5117080999998507,0.5954088999997111,1.7133837999999741,1.7970156999999745,0.23848110000017186,,,,,nat_1,001,2020_Jan_31_1418,posner,3.1.5,59.96339834168466,
0.5,0,0,right,1,4,2,0,2,0,7,5,61,3,,,,,,,,,644.9532501000003,645.4533368000002,646.1709843999997,None,645.4701531999999,646.1542663,646.6714717000004,None,right,1,646.6714717000004,None,None,645.4701531999999,646.6551030999999,0.5120151999999507,0.5951059999997597,1.7137547000002087,1.7968559999999343,0.3002369000005274,,,,,nat_1,001,2020_Jan_31_1418,posner,3.1.5,59.96339834168466,
0.5,180,1,right,2,4,2,0,2,0,7,6,62,5,,,,,,,,,646.989603,647.4893847000003,648.2069143999997,None,647.5060210000001,648.1903878000003,648.7078032999998,None,right,1,648.7078032999998,None,None,647.5060210000001,648.6910381999996,0.511537500000486,0.5948009000003367,1.7131742999999915,1.7964809000004607,0.3120953000006921,,,,,nat_1,001,2020_Jan_31_1418,posner,3.1.5,59.96339834168466,
-0.5,0,1,left,1,3,2,0,2,0,7,7,63,0,,,,,,,,,649.0422740000004,649.5420806000002,650.2599189000002,None,649.5587594999997,650.2431508999998,650.7604207000004,None,left,1,650.7604207000004,None,None,649.5587594999997,650.7439019000003,0.5113248999996358,0.5947803999997632,1.713119000000006,1.7962039000003642,0.27521359999991546,,,,,nat_1,001,2020_Jan_31_1418,posner,3.1.5,59.96339834168466,
0.5,180,1,right,2,4,2,0,2,0,8,0,64,6,,,,,,,,,651.0610791999998,651.5615582,652.2792218000004,None,651.5781250999999,652.2625833000002,652.7798808999996,None,right,1,652.7798808999996,None,None,651.5781250999999,652.7632579000001,0.5121153999998569,0.5954719000001205,1.7137886999998955,1.7970958999994764,0.30372540000007575,,,,,nat_1,001,2020_Jan_31_1418,posner,3.1.5,59.96339834168466,
-0.5,0,1,left,1,3,2,0,2,0,8,1,65,1,,,,,,,,,653.1142907000003,653.6144856000001,654.3320395999999,None,653.6313412,654.3152958000001,654.8328164000004,None,left,1,654.8328164000004,None,None,653.6313412,654.8159765999999,0.5115728000000672,0.5946745999999621,1.7130522999996174,1.7967350999997507,0.29886510000051203,,,,,nat_1,001,2020_Jan_31_1418,posner,3.1.5,59.96339834168466,
0.5,180,1,right,2,4,2,0,2,0,8,2,66,5,,,,,,,,,655.1503235999999,655.6498577000002,656.3680513999998,None,655.6670223000001,656.3518241000002,656.8687645999998,None,right,1,656.8687645999998,None,None,655.6670223000001,656.8522548999999,0.511260599999332,0.5953574999994089,1.7136470999994344,1.7968528999999762,0.2951081000001068,,,,,nat_1,001,2020_Jan_31_1418,posner,3.1.5,59.96339834168466,
0.5,180,1,right,2,4,2,0,2,0,8,3,67,7,,,,,,,,,657.1862509000002,657.6864790999998,658.4043080000001,None,657.7033626000002,658.3874507999999,658.9050164999999,None,right,1,658.9050164999999,None,None,657.7033626000002,658.8882186000001,0.5117713999998159,0.5953417000000627,1.7134962000000087,1.7970251999995526,0.3386926000002859,,,,,nat_1,001,2020_Jan_31_1418,posner,3.1.5,59.96339834168466,
-0.5,180,0,left,2,3,2,0,2,0,8,4,68,4,,,,,,,,,659.2727029999996,659.7729133000003,660.4907303999998,None,659.7895039000005,660.4737659000002,660.9913968999999,None,left,1,660.9913968999999,None,None,659.7895039000005,660.9745028999996,0.5116637999999512,0.594921300000351,1.7132363999999143,1.7965973000000304,0.30030840000017633,,,,,nat_1,001,2020_Jan_31_1418,posner,3.1.5,59.96339834168466,
-0.5,0,1,left,1,3,2,0,2,0,8,5,69,2,,,,,,,,,661.3093855999996,661.8090288000003,662.5265078000002,None,661.8255795000005,662.5100831,663.0271897000002,None,left,1,663.0271897000002,None,None,661.8255795000005,663.0105977000003,0.511320099999466,0.5947194999998828,1.7128752999997232,1.796295099999952,0.2964043000001766,,,,,nat_1,001,2020_Jan_31_1418,posner,3.1.5,59.96339834168466,
0.5,0,0,right,1,4,2,0,2,0,8,6,70,3,,,,,,,,,663.3451690000002,663.8451513,664.562758,None,663.8617869,664.5458988999999,665.0636389000001,None,right,1,665.0636389000001,None,None,663.8617869,665.0467373000001,0.5115710999998555,0.5949492999998256,1.7131431999996494,1.7966278999992937,0.3239006000003428,,,,,nat_1,001,2020_Jan_31_1418,posner,3.1.5,59.96339834168466,
-0.5,0,1,left,1,3,2,0,2,0,8,7,71,0,,,,,,,,,665.4146614000001,665.9146652999998,666.6323026999999,None,665.9313603,666.6153672999999,667.1333395000001,None,left,1,667.1333395000001,None,None,665.9313603,667.1161327999998,0.5114776000000347,0.5949065000004339,1.712925499999983,1.7965430000003835,0.35013229999913165,,,,,nat_1,001,2020_Jan_31_1418,posner,3.1.5,59.96339834168466,
0.5,0,0,right,1,4,2,0,2,0,9,0,72,3,,,,,,,,,667.5009963000002,668.0009258999999,668.7187543,None,668.0173717999996,668.7018180000005,669.2192366999998,None,right,1,669.2192366999998,None,None,668.0173717999996,669.2026053,0.5115361999996821,0.594970099999955,1.713190699999359,1.7964558999992732,0.3284254999998666,,,,,nat_1,001,2020_Jan_31_1418,posner,3.1.5,59.96339834168466,
-0.5,180,0,left,2,3,2,0,2,0,9,1,73,4,,,,,,,,,669.5706705000002,670.0703462000001,670.7879175999997,None,670.0870154000004,670.7713761000005,671.2888751999999,None,left,1,671.2888751999999,None,None,670.0870154000004,671.2721525999996,0.5112610999995013,0.5946991999999227,1.7130533999998079,1.7962166999996043,0.3228150999993886,,,,,nat_1,001,2020_Jan_31_1418,posner,3.1.5,59.96339834168466,
-0.5,0,1,left,1,3,2,0,2,0,9,2,74,2,,,,,,,,,671.6399395999997,672.1397938999999,672.8573552999997,None,672.1563746000002,672.8409081,673.358107,None,left,1,673.358107,None,None,672.1563746000002,673.3415912999999,0.5113871000003201,0.5948839000002408,1.7131570999999894,1.7966225000000122,0.30132859999957873,,,,,nat_1,001,2020_Jan_31_1418,posner,3.1.5,59.96339834168466,
0.5,180,1,right,2,4,2,0,2,0,9,3,75,7,,,,,,,,,673.6759228999999,674.1760452999997,674.8935924999996,None,674.1926632000004,674.8768723000003,675.3944036000003,None,right,1,675.3944036000003,None,None,674.1926632000004,675.3775599999999,0.5117682000000059,0.5952895000000353,1.7132627999999386,1.796661800000038,0.3450104999992618,,,,,nat_1,001,2020_Jan_31_1418,posner,3.1.5,59.96339834168466,
