targetX,cueOri,congr,corrAns,pin_cue,pin_target,block.thisRepN,block.thisTrialN,block.thisN,block.thisIndex,posner_task.thisRepN,posner_task.thisTrialN,posner_task.thisN,posner_task.thisIndex,port_start_block.started,port_start_block.stopped,text_2.started,text_2.stopped,p_port.started,p_port.stopped,text.started,text.stopped,fixation_1.started,fixation_1.stopped,fixation_2.started,fixation_2.stopped,cue.started,cue.stopped,target.started,target.stopped,correct_key_resp.keys,correct_key_resp.corr,correct_key_resp.rt,correct_key_resp.started,correct_key_resp.stopped,early_resp.keys,early_resp.started,early_resp.stopped,trigger_cue.started,trigger_cue.stopped,trigger_target.started,trigger_target.stopped,early_resp.rt,break_text.started,break_text.stopped,end_port.started,end_port.stopped,participant,session,date,expName,psychopyVersion,frameRate,
0.5,0,0,right,1,4,0,0,0,0,0,0,0,3,1.6800000139483018e-05,0.09689470000012079,24.93871960000024,None,1.339999971605721e-05,0.09939810000014404,26.807730600000014,None,27.11093630000005,27.609029900000223,28.326479700000164,None,27.625572700000248,28.309713099999954,28.827231400000073,29.31109319999996,right,1,0.47085240000023987,28.827231400000073,None,None,27.625572700000248,28.810427100000197,0.5073637999998937,0.5907422999998744,1.7087531000001945,1.7923608000000968,,,,,,priya_1,001,2020_Feb_14_1207,posner,3.1.5,60.011006018583814,
0.5,180,1,right,2,4,0,0,0,0,0,1,1,6,,,,,,,,,29.328432000000248,29.82873070000005,30.546046699999806,None,29.84514900000022,30.529885999999806,31.046769900000072,None,right,1,0.45123340000009193,31.046769900000072,None,None,29.84514900000022,31.030225299999984,0.5112733000000844,0.5945329999999558,1.7127595000001747,1.7963141000000178,,,,,,priya_1,001,2020_Feb_14_1207,posner,3.1.5,60.011006018583814,
0.5,180,1,right,2,4,0,0,0,0,0,2,2,5,,,,,,,,,31.5149593000001,32.01490019999983,32.73250229999985,None,32.0316170000001,32.71587069999987,33.23318640000025,33.717142200000126,right,1,0.49691459999985454,33.23318640000025,None,None,32.0316170000001,33.216323199999806,0.5115174000002298,0.5947534000001724,1.7129284000002372,1.7965125000000626,,,,,,priya_1,001,2020_Feb_14_1207,posner,3.1.5,60.011006018583814,
-0.5,0,1,left,1,3,0,0,0,0,0,3,3,0,,,,,,,,,33.751122600000144,34.251344000000245,34.96902799999998,None,34.26791259999982,34.952442899999824,35.46967790000008,None,left,1,0.4604066000001694,35.46967790000008,None,None,34.26791259999982,35.45311309999988,0.5117670999998154,0.5951698999997461,1.7135150999997677,1.796706599999652,,,,,,priya_1,001,2020_Feb_14_1207,posner,3.1.5,60.011006018583814,
-0.5,0,1,left,1,3,0,0,0,0,0,4,4,1,,,,,,,,,35.95412249999981,36.45431240000016,37.17194130000007,None,36.470931500000006,37.15517490000002,37.67269299999998,38.15672029999996,left,1,0.5933772999997018,37.67269299999998,None,None,36.470931500000006,37.65585850000025,0.5117186999996193,0.5949478999996245,1.7132470999999896,1.7968863999999485,,,,,,priya_1,001,2020_Feb_14_1207,posner,3.1.5,60.011006018583814,
0.5,180,1,right,2,4,0,0,0,0,0,5,5,7,,,,,,,,,38.29087960000015,38.79091610000023,39.5086225,None,38.8075445999998,39.491841900000054,40.00942880000002,None,right,1,0.2727098999998816,40.00942880000002,None,None,38.8075445999998,39.992545600000085,0.511551199999758,0.5951512999999977,1.7131666000000223,1.7966216999998323,,,,,,priya_1,001,2020_Feb_14_1207,posner,3.1.5,60.011006018583814,
-0.5,0,1,left,1,3,0,0,0,0,0,6,6,2,,,,,,,,,40.31003929999997,40.81039830000009,41.5280659,None,40.82712270000002,41.51135239999985,42.028786899999886,None,left,1,0.34941440000011426,42.028786899999886,None,None,40.82712270000002,42.01220250000006,0.5123636999996961,0.5958024999999907,1.7141461000001073,1.797231600000032,,,,,,priya_1,001,2020_Feb_14_1207,posner,3.1.5,60.011006018583814,
-0.5,180,0,left,2,3,0,0,0,0,0,7,7,4,,,,,,,,,42.3965489000002,42.896389,43.61428849999993,None,42.91330100000005,43.597688899999866,44.11493900000005,44.59901059999993,left,1,0.5351384999999027,44.11493900000005,None,None,42.91330100000005,44.098217900000236,0.5118846000000303,0.5955403999996634,1.7137023999998746,1.797200999999859,,,,,,priya_1,001,2020_Feb_14_1207,posner,3.1.5,60.011006018583814,
0.5,0,0,right,1,4,0,0,0,0,1,0,8,3,,,,,,,,,44.665781400000014,45.166260200000124,45.88411670000005,None,45.183100600000216,45.86722850000024,46.384731399999964,None,right,1,0.4012727000003906,46.384731399999964,None,None,45.183100600000216,46.36781539999993,0.5122030999996241,0.5957000999997035,1.7137399999996887,1.7972078999996484,,,,,,priya_1,001,2020_Feb_14_1207,posner,3.1.5,60.011006018583814,
-0.5,0,1,left,1,3,0,0,0,0,1,1,9,1,,,,,,,,,46.80259669999987,47.3025518999998,48.02040799999986,None,47.31949799999984,48.00384239999994,48.52092499999981,None,left,1,0.3290910000000622,48.52092499999981,None,None,47.31949799999984,48.50423839999985,0.5114275999999336,0.5949359999999615,1.7130981999998767,1.7964062999999442,,,,,,priya_1,001,2020_Feb_14_1207,posner,3.1.5,60.011006018583814,
0.5,180,1,right,2,4,0,0,0,0,1,2,10,5,,,,,,,,,48.87215019999985,49.372294599999805,50.08982049999986,None,49.38877760000014,50.07333070000004,50.59044350000022,None,right,1,0.36368720000018584,50.59044350000022,None,None,49.38877760000014,50.57375689999981,0.511826800000108,0.5952466000003369,1.71327650000012,1.7970299000003251,,,,,,priya_1,001,2020_Feb_14_1207,posner,3.1.5,60.011006018583814,
-0.5,180,0,left,2,3,0,0,0,0,1,3,11,4,,,,,,,,,50.974373099999866,51.475081800000225,52.192595699999856,None,51.49157479999985,52.17594199999985,52.69338400000015,None,left,1,0.4288363999999092,52.69338400000015,None,None,51.49157479999985,52.67652339999995,0.5123929000001226,0.5961443000001054,1.7138221999998677,1.7974452000003112,,,,,,priya_1,001,2020_Feb_14_1207,posner,3.1.5,60.011006018583814,
0.5,180,1,right,2,4,0,0,0,0,1,4,12,7,,,,,,,,,53.14486510000006,53.64454979999982,54.36249889999999,None,53.66148310000017,54.345492999999806,54.86299569999983,None,right,1,0.41904939999994895,54.86299569999983,None,None,53.66148310000017,54.84624590000021,0.5112293000001955,0.5948186999999052,1.7129076000001078,1.7962881000003108,,,,,,priya_1,001,2020_Feb_14_1207,posner,3.1.5,60.011006018583814,
-0.5,0,1,left,1,3,0,0,0,0,1,5,13,2,,,,,,,,,55.29755879999993,55.797634000000016,56.515192599999864,None,55.814287799999875,56.49865850000015,57.01594350000005,None,left,1,0.3860935000002428,57.01594350000005,None,None,55.814287799999875,56.999511299999995,0.5116496000000552,0.5949602000000596,1.7135201000000961,1.7968149000002995,,,,,,priya_1,001,2020_Feb_14_1207,posner,3.1.5,60.011006018583814,
-0.5,0,1,left,1,3,0,0,0,0,1,6,14,0,,,,,,,,,57.43385760000001,57.93412699999999,58.651796300000115,None,57.950731200000064,58.63476420000006,59.15242709999984,None,left,1,0.4415970999998535,59.15242709999984,None,None,57.950731200000064,59.135523999999805,0.5117795000001024,0.5948380999998335,1.7131703000000016,1.7967252999997072,,,,,,priya_1,001,2020_Feb_14_1207,posner,3.1.5,60.011006018583814,
0.5,180,1,right,2,4,0,0,0,0,1,7,15,6,,,,,,,,,59.620183,60.12045900000021,60.83785570000009,None,60.13700299999982,60.82150950000005,61.33862339999996,None,right,1,0.29536170000028505,61.33862339999996,None,None,60.13700299999982,61.32198530000005,0.5116028999996161,0.5948119999998198,1.7131147999998575,1.7964735999998993,,,,,,priya_1,001,2020_Feb_14_1207,posner,3.1.5,60.011006018583814,
0.5,0,0,right,1,4,0,0,0,0,2,0,16,3,,,,,,,,,61.65648079999983,62.15655650000008,62.87405579999995,None,62.173377099999925,62.85722190000024,63.37508089999983,None,right,1,0.43488079999997353,63.37508089999983,None,None,62.173377099999925,63.35804629999984,0.5116886999999224,0.5951267000000371,1.7131620000000112,1.7965807000000495,,,,,,priya_1,001,2020_Feb_14_1207,posner,3.1.5,60.011006018583814,
-0.5,0,1,left,1,3,0,0,0,0,2,1,17,2,,,,,,,,,63.825975799999924,64.32610830000021,65.04387390000011,None,64.34302740000021,65.02689659999987,65.54437800000005,None,left,1,0.3455837999999858,65.54437800000005,None,None,64.34302740000021,65.52764630000001,0.5119136999996954,0.5953676999997697,1.7134354999998322,1.7967721999998503,,,,,,priya_1,001,2020_Feb_14_1207,posner,3.1.5,60.011006018583814,
0.5,180,1,right,2,4,0,0,0,0,2,2,18,5,,,,,,,,,65.9122324,66.4121398000002,67.12997080000014,None,66.42903269999988,67.11299250000002,67.63063250000005,None,right,1,0.3072526000000835,67.63063250000005,None,None,66.42903269999988,67.61393769999995,0.5110624999997526,0.5943678999997246,1.7128381999996236,1.7960902999998325,,,,,,priya_1,001,2020_Feb_14_1207,posner,3.1.5,60.011006018583814,
-0.5,0,1,left,1,3,0,0,0,0,2,3,19,0,,,,,,,,,67.9650187000002,68.46497090000003,69.18261870000015,None,68.48172969999996,69.16589400000021,69.68335530000013,None,left,1,0.3106705000000147,69.68335530000013,None,None,68.48172969999996,69.66671690000021,0.5115762999998879,0.59511509999993,1.713312599999881,1.7967069999999694,,,,,,priya_1,001,2020_Feb_14_1207,posner,3.1.5,60.011006018583814,
-0.5,0,1,left,1,3,0,0,0,0,2,4,20,1,,,,,,,,,70.01789680000002,70.51783370000021,71.23552629999995,None,70.53428299999996,71.2190856000002,71.73618399999987,72.22034329999997,left,1,0.47387639999988096,71.73618399999987,None,None,70.53428299999996,71.71959019999986,0.5114037999996981,0.5948370000000978,1.7131366999997226,1.7966388999998344,,,,,,priya_1,001,2020_Feb_14_1207,posner,3.1.5,60.011006018583814,
-0.5,180,0,left,2,3,0,0,0,0,2,5,21,4,,,,,,,,,72.23771579999993,72.73744269999997,73.45509029999994,None,72.75436739999986,73.43867120000004,73.95582509999986,None,left,1,0.45429009999998016,73.95582509999986,None,None,72.75436739999986,73.93936329999997,0.5113410999997541,0.595081399999799,1.7132369999999355,1.7967217999998866,,,,,,priya_1,001,2020_Feb_14_1207,posner,3.1.5,60.011006018583814,
0.5,180,1,right,2,4,0,0,0,0,2,6,22,6,,,,,,,,,74.44042589999981,74.94078769999987,75.6582558,None,74.95729970000002,75.6416236,76.15909629999987,74.44042589999981,right,1,0.3549705999998878,76.15909629999987,None,None,74.95729970000002,76.1424907999999,0.5120452000001023,0.5954334000002746,1.7137291000003643,1.7970516000000316,,,,,,priya_1,001,2020_Feb_14_1207,posner,3.1.5,60.011006018583814,
0.5,180,1,right,2,4,0,0,0,0,2,7,23,7,,,,,,,,,76.54336790000025,77.04353309999988,77.76099220000015,None,77.06025339999997,77.7445318,78.26182180000023,78.74593779999987,right,1,0.6281589999998687,78.26182180000023,None,None,77.06025339999997,78.24513999999999,0.5114615000002232,0.5950413000000481,1.7130584000001363,1.796785699999873,,,,,,priya_1,001,2020_Feb_14_1207,posner,3.1.5,60.011006018583814,
-0.5,0,1,left,1,3,0,0,0,0,3,0,24,0,,,,,,,,,78.91343400000005,79.41346900000008,80.13126289999991,None,79.43008999999984,80.11436210000011,80.63172889999987,None,left,1,0.37826629999972283,80.63172889999987,None,None,79.43008999999984,80.61497370000006,0.5115567999996529,0.5949965999998312,1.7130637999998726,1.7968187999999827,,,,,,priya_1,001,2020_Feb_14_1207,posner,3.1.5,60.011006018583814,
0.5,180,1,right,2,4,0,0,0,0,3,1,25,5,,,,,,,,,81.0329456999998,81.53326349999998,82.25090600000021,None,81.5499033000001,82.23395979999987,82.75139290000016,83.23529129999997,right,1,0.5067669000000024,82.75139290000016,None,None,81.5499033000001,82.73474940000006,0.5118078999998943,0.5949497999999949,1.7132846999998037,1.796602200000052,,,,,,priya_1,001,2020_Feb_14_1207,posner,3.1.5,60.011006018583814,
0.5,180,1,right,2,4,0,0,0,0,3,2,26,6,,,,,,,,,83.28584460000002,83.78613630000018,84.50385169999981,None,83.80302110000002,84.48716430000013,85.00441150000006,None,right,1,0.43752279999989696,85.00441150000006,None,None,83.80302110000002,84.98798450000004,0.5118874999998297,0.5953721999999289,1.7137189999998554,1.7971901000000798,,,,,,priya_1,001,2020_Feb_14_1207,posner,3.1.5,60.011006018583814,
-0.5,0,1,left,1,3,0,0,0,0,3,3,27,2,,,,,,,,,85.47212720000016,85.97261500000013,86.69028519999983,None,85.98932310000009,86.67358560000002,87.1907811000001,87.67461140000023,left,1,0.6031604999998308,87.1907811000001,None,None,85.98932310000009,87.17421599999989,0.5117838000001029,0.5950207000000773,1.7133718000000044,1.796684599999935,,,,,,priya_1,001,2020_Feb_14_1207,posner,3.1.5,60.011006018583814,
-0.5,0,1,left,1,3,0,0,0,0,3,4,28,1,,,,,,,,,87.82538720000002,88.32585000000017,89.04340249999996,None,88.34236890000011,89.02681519999987,89.5443295,None,left,1,0.42574029999968843,89.5443295,None,None,88.34236890000011,89.52741329999981,0.5120231999999305,0.5954905000003237,1.7135650000000169,1.7969986000002791,,,,,,priya_1,001,2020_Feb_14_1207,posner,3.1.5,60.011006018583814,
0.5,0,0,right,1,4,0,0,0,0,3,5,29,3,,,,,,,,,89.9946973000001,90.49528129999999,91.21314789999997,None,90.51204749999988,91.19612310000002,91.7137189,92.19773320000013,right,1,0.6881963000000724,91.7137189,None,None,90.51204749999988,91.69697129999986,0.512226599999849,0.59595599999966,1.7138985999999932,1.797516000000087,,,,,,priya_1,001,2020_Feb_14_1207,posner,3.1.5,60.011006018583814,
0.5,180,1,right,2,4,0,0,0,0,3,6,30,7,,,,,,,,,92.43174799999997,92.93222659999992,93.64963919999991,None,92.94886610000003,93.63295160000007,94.1505731000002,None,right,1,0.4034900999999991,94.1505731000002,None,None,92.94886610000003,94.13379540000005,0.5117761999999857,0.5949822999996286,1.713337799999863,1.7965704999996888,,,,,,priya_1,001,2020_Feb_14_1207,posner,3.1.5,60.011006018583814,
-0.5,180,0,left,2,3,0,0,0,0,3,7,31,4,,,,,,,,,94.58488990000023,95.08490870000014,95.80263370000011,None,95.1017597,95.78591469999992,96.30343230000017,None,left,1,0.35451160000002346,96.30343230000017,None,None,95.1017597,96.28655190000018,0.5111966999998003,0.595021899999665,1.7128279999997176,1.7965172999997776,,,,,,priya_1,001,2020_Feb_14_1207,posner,3.1.5,60.011006018583814,
0.5,180,1,right,2,4,0,0,0,0,4,0,32,7,,,,,,,,,96.68751810000003,97.18799619999982,97.90561209999987,None,97.20463030000019,97.88882430000012,98.40626810000003,None,right,1,0.3077309999998761,98.40626810000003,None,None,97.20463030000019,98.38982149999993,0.511825300000055,0.595277200000055,1.713642400000026,1.7969754000000648,,,,,,priya_1,001,2020_Feb_14_1207,posner,3.1.5,60.011006018583814,
-0.5,0,1,left,1,3,0,0,0,0,4,1,33,0,,,,,,,,,98.74085270000023,99.24071580000009,99.95865600000025,None,99.25723740000012,99.94191779999983,100.45927399999982,None,left,1,0.3346618999999009,100.45927399999982,None,None,99.25723740000012,100.44238050000013,0.5113203000000794,0.594861900000069,1.7129681999999775,1.79644240000016,,,,,,priya_1,001,2020_Feb_14_1207,posner,3.1.5,60.011006018583814,
-0.5,0,1,left,1,3,0,0,0,0,4,2,34,2,,,,,,,,,100.81050270000014,101.31031209999992,102.02790110000024,None,101.32688529999996,102.01111140000012,102.52860250000003,103.01269090000005,left,1,0.6015616999998201,102.52860250000003,None,None,101.32688529999996,102.51187579999987,0.5114714000001186,0.5949726999997438,1.713019499999973,1.796302299999752,,,,,,priya_1,001,2020_Feb_14_1207,posner,3.1.5,60.011006018583814,
0.5,180,1,right,2,4,0,0,0,0,4,3,35,5,,,,,,,,,103.14679519999981,103.64676640000016,104.36454150000009,None,103.66352129999996,104.34778540000025,104.86518969999997,105.34934239999984,right,1,0.6808844000001955,104.86518969999997,None,None,103.66352129999996,104.84857749999992,0.5114997000000585,0.5950432999998156,1.713281199999983,1.7967687999998816,,,,,,priya_1,001,2020_Feb_14_1207,posner,3.1.5,60.011006018583814,
0.5,0,0,right,1,4,0,0,0,0,4,4,36,3,,,,,,,,,105.56728280000016,106.06696929999998,106.78437530000019,None,106.08360149999999,106.76777979999997,107.2851171000002,None,right,1,0.4528067999999621,107.2851171000002,None,None,106.08360149999999,107.26869190000025,0.5116295000002538,0.595055400000092,1.7133475000000544,1.7965723000002072,,,,,,priya_1,001,2020_Feb_14_1207,posner,3.1.5,60.011006018583814,
-0.5,180,0,left,2,3,0,0,0,0,4,5,37,4,,,,,,,,,107.76999139999998,108.26992220000011,108.98735579999993,None,108.28643460000012,108.97078069999998,109.48828249999997,107.76999139999998,left,1,0.4496857999997701,109.48828249999997,None,None,108.28643460000012,109.47147360000008,0.511411500000122,0.5947966999997334,1.7129519999998593,1.7963853000001109,,,,,,priya_1,001,2020_Feb_14_1207,posner,3.1.5,60.011006018583814,
0.5,180,1,right,2,4,0,0,0,0,4,6,38,6,,,,,,,,,109.95565089999991,110.45594290000008,111.17407110000022,None,110.47295699999995,111.15723690000004,111.67467320000014,None,right,1,0.3033331999999973,111.67467320000014,None,None,110.47295699999995,111.65788530000009,0.5118968000001587,0.5955999000002521,1.7138214000001426,1.7973299000000225,,,,,,priya_1,001,2020_Feb_14_1207,posner,3.1.5,60.011006018583814,
-0.5,0,1,left,1,3,0,0,0,0,4,7,39,1,,,,,,,,,112.00886209999999,112.5092494999999,113.22675459999982,None,112.52568650000012,113.21007439999994,113.72742349999999,None,left,1,0.34655270000030214,113.72742349999999,None,None,112.52568650000012,113.71067889999995,0.5119170000002669,0.5951391000003241,1.7133318000001054,1.7970431000003373,,,,,,priya_1,001,2020_Feb_14_1207,posner,3.1.5,60.011006018583814,
0.5,0,0,right,1,4,0,0,0,0,5,0,40,3,,,,,,,,,114.09520710000015,114.59514309999986,115.31281760000002,None,114.61202600000024,115.2961108999998,115.8134758000001,None,right,1,0.30046279999987746,115.8134758000001,None,None,114.61202600000024,115.79686279999987,0.5113868000003094,0.5948943000003055,1.7130909000002248,1.7965555000000677,,,,,,priya_1,001,2020_Feb_14_1207,posner,3.1.5,60.011006018583814,
-0.5,0,1,left,1,3,0,0,0,0,5,1,41,0,,,,,,,,,116.13149699999985,116.63155450000022,117.3489926000002,None,116.64791939999986,117.33237360000021,117.84971700000006,None,left,1,0.3123364000002766,117.84971700000006,None,None,116.64791939999986,117.83286679999992,0.5114663999997902,0.5947321999997257,1.7127689999997529,1.7962383999997655,,,,,,priya_1,001,2020_Feb_14_1207,posner,3.1.5,60.011006018583814,
-0.5,180,0,left,2,3,0,0,0,0,5,2,42,4,,,,,,,,,118.18439739999985,118.68439609999996,119.40209980000009,None,118.70092599999998,119.38491710000017,119.90269470000021,None,left,1,0.44318859999975757,119.90269470000021,None,None,118.70092599999998,119.88575020000007,0.5114048999998886,0.5947531000001618,1.7127537999999731,1.7962062999999944,,,,,,priya_1,001,2020_Feb_14_1207,posner,3.1.5,60.011006018583814,
-0.5,0,1,left,1,3,0,0,0,0,5,3,43,2,,,,,,,,,120.37026389999983,120.87052790000007,121.58796209999991,None,120.88701870000023,121.57158419999996,122.08891850000009,None,left,1,0.40890059999992445,122.08891850000009,None,None,120.88701870000023,122.07186619999993,0.5113600999998198,0.5947424999999384,1.712672399999974,1.7964185999999245,,,,,,priya_1,001,2020_Feb_14_1207,posner,3.1.5,60.011006018583814,
0.5,180,1,right,2,4,0,0,0,0,5,4,44,6,,,,,,,,,122.5235474000001,123.02362619999985,123.74116730000014,None,123.04021770000008,123.7243856,124.24201579999999,None,right,1,0.29587880000008226,124.24201579999999,None,None,123.04021770000008,124.22506629999998,0.5118298000002142,0.5952387000002091,1.7132443000000421,1.7970390000000407,,,,,,priya_1,001,2020_Feb_14_1207,posner,3.1.5,60.011006018583814,
0.5,180,1,right,2,4,0,0,0,0,5,5,45,7,,,,,,,,,124.5597130000001,125.05979949999983,125.77733450000005,None,125.07617320000008,125.7607552999998,126.27801450000015,126.76191410000001,None,0,,126.27801450000015,None,None,125.07617320000008,126.26122650000025,0.5113596000001053,0.5947934999999234,1.7127759999998489,1.7962613999998212,,,,,,priya_1,001,2020_Feb_14_1207,posner,3.1.5,60.011006018583814,
-0.5,0,1,left,1,3,0,0,0,0,5,6,46,1,,,,,,,,,127.26269850000017,127.76352670000006,128.48103889999993,127.26269850000017,127.77994470000021,128.4643216999998,128.98189850000017,None,left,1,0.3720871000000443,128.98189850000017,None,None,127.77994470000021,128.96464370000012,0.5136121000000458,0.5968429999998079,1.7147171000001435,1.798654599999736,,,,,,priya_1,001,2020_Feb_14_1207,posner,3.1.5,60.011006018583814,
0.5,180,1,right,2,4,0,0,0,0,5,7,47,5,,,,,,,,,129.38280200000008,129.8829980999999,130.6001581999999,None,129.8997859000001,130.58430820000012,131.10130389999995,None,right,1,0.2846070000000509,131.10130389999995,None,None,129.8997859000001,131.08436530000017,0.5117857000000186,0.5952194999999847,1.7131419000002097,1.796951700000136,,,,,,priya_1,001,2020_Feb_14_1207,posner,3.1.5,60.011006018583814,
-0.5,180,0,left,2,3,0,0,0,0,6,0,48,4,,,,,,,,,131.4022086,131.90249790000007,132.62032980000004,None,131.91914170000018,132.60333919999994,133.1208657000002,None,left,1,0.3209778999998889,133.1208657000002,None,None,131.91914170000018,133.10407570000007,0.5119363000003432,0.5950878000003286,1.7134963000003154,1.7967332000002898,,,,,,priya_1,001,2020_Feb_14_1207,posner,3.1.5,60.011006018583814,
0.5,180,1,right,2,4,0,0,0,0,6,1,49,5,,,,,,,,,133.4714944000002,133.97205269999995,134.6896956999999,None,133.98877029999994,134.67309560000012,135.1904585000002,None,right,1,0.3713702000000012,135.1904585000002,None,None,133.98877029999994,135.17347340000015,0.5122557999998207,0.5955203999997138,1.7136645000000499,1.7972626999999193,,,,,,priya_1,001,2020_Feb_14_1207,posner,3.1.5,60.011006018583814,
-0.5,0,1,left,1,3,0,0,0,0,6,2,50,1,,,,,,,,,135.59148619999996,136.09171240000023,136.80924000000005,None,136.1082495999999,136.79269780000004,137.3100711000002,None,left,1,0.30776660000037737,137.3100711000002,None,None,136.1082495999999,137.29323890000023,0.5115064999999959,0.5947178999999778,1.7130139000000781,1.7963192000001982,,,,,,priya_1,001,2020_Feb_14_1207,posner,3.1.5,60.011006018583814,
0.5,180,1,right,2,4,0,0,0,0,6,3,51,7,,,,,,,,,137.64460740000004,138.14440049999985,138.86212290000003,None,138.16094569999996,138.8452944999999,139.36270430000013,None,right,1,0.29521219999969617,139.36270430000013,None,None,138.16094569999996,139.34599059999982,0.5116077000002406,0.5949819000002208,1.7131849000002148,1.7969072000000779,,,,,,priya_1,001,2020_Feb_14_1207,posner,3.1.5,60.011006018583814,
0.5,180,1,right,2,4,0,0,0,0,6,4,52,6,,,,,,,,,139.68050670000002,140.1806329000001,140.8981302000002,None,140.19698719999997,140.88136170000007,141.39906830000018,None,right,1,0.42685089999986303,141.39906830000018,None,None,140.19698719999997,141.38217459999987,0.5116545999999289,0.5948157999996511,1.7131809999996221,1.7965418999997382,,,,,,priya_1,001,2020_Feb_14_1207,posner,3.1.5,60.011006018583814,
-0.5,0,1,left,1,3,0,0,0,0,6,5,53,2,,,,,,,,,141.84991089999994,142.3502370000001,143.06811879999987,None,142.36678740000025,143.05110860000013,143.56888590000017,None,left,1,0.30520190000015646,143.56888590000017,None,None,142.36678740000025,143.55191990000003,0.5117103000002317,0.5950871000000006,1.7133786000003965,1.7965727000000697,,,,,,priya_1,001,2020_Feb_14_1207,posner,3.1.5,60.011006018583814,
0.5,0,0,right,1,4,0,0,0,0,6,6,54,3,,,,,,,,,143.9029384999999,144.4029819000002,145.1207144,None,144.41962469999999,145.10386789999984,145.62132350000002,None,right,1,0.3245609999999033,145.62132350000002,None,None,144.41962469999999,145.60460079999984,0.5116941999999653,0.594991200000095,1.7132880999997724,1.7965813000000708,,,,,,priya_1,001,2020_Feb_14_1207,posner,3.1.5,60.011006018583814,
-0.5,0,1,left,1,3,0,0,0,0,6,7,55,0,,,,,,,,,145.97236269999985,146.47241650000024,147.1903029,None,146.4892964999999,147.1738135999999,147.69075569999995,None,left,1,0.3912172999998802,147.69075569999995,None,None,146.4892964999999,147.6744133000002,0.5116041999999652,0.5950000000002547,1.7135925000002317,1.7966788000003362,,,,,,priya_1,001,2020_Feb_14_1207,posner,3.1.5,60.011006018583814,
-0.5,0,1,left,1,3,0,0,0,0,7,0,56,1,,,,,,,,,148.10889459999999,148.60877690000007,149.3264693000001,None,148.62548329999981,149.3098605,149.82702210000025,None,left,1,0.4149243000001661,149.82702210000025,None,None,148.62548329999981,149.81043210000007,0.5116926999999123,0.5951943999998548,1.7133248999998614,1.7967832999997881,,,,,,priya_1,001,2020_Feb_14_1207,posner,3.1.5,60.011006018583814,
0.5,180,1,right,2,4,0,0,0,0,7,1,57,6,,,,,,,,,150.26210919999994,150.761614,151.47936429999982,None,150.7786455999999,151.46272649999992,151.98007670000015,None,right,1,0.35786430000007385,151.98007670000015,None,None,150.7786455999999,151.9633318000001,0.5111243000001195,0.5944987000002584,1.7128311000001304,1.7962783000002673,,,,,,priya_1,001,2020_Feb_14_1207,posner,3.1.5,60.011006018583814,
-0.5,0,1,left,1,3,0,0,0,0,7,2,58,2,,,,,,,,,152.3644789,152.86448289999998,153.58226560000003,None,152.88125709999986,153.56589429999985,154.08292299999994,None,left,1,0.4468443999999181,154.08292299999994,None,None,152.88125709999986,154.06650279999985,0.5115200000000186,0.5949709000001349,1.713526500000171,1.7967576999999437,,,,,,priya_1,001,2020_Feb_14_1207,posner,3.1.5,60.011006018583814,
-0.5,180,0,left,2,3,0,0,0,0,7,3,59,4,,,,,,,,,154.55065939999986,155.0509748999998,155.76891209999985,None,155.06811689999995,155.7519324,156.2691832999999,None,left,1,0.4286630999999943,156.2691832999999,None,None,155.06811689999995,156.25268890000007,0.5115464999998949,0.5947485000001507,1.7132461000001058,1.7964437000000544,,,,,,priya_1,001,2020_Feb_14_1207,posner,3.1.5,60.011006018583814,
0.5,0,0,right,1,4,0,0,0,0,7,4,60,3,,,,,,,,,156.72056920000023,157.22060169999986,157.93825030000016,None,157.23721579999983,157.92180800000006,158.43903309999996,158.9230689000001,right,1,0.490946399999757,158.43903309999996,None,None,157.23721579999983,158.42236110000022,0.5113188000000264,0.5947275999997146,1.7130656999997882,1.7964149999997971,,,,,,priya_1,001,2020_Feb_14_1207,posner,3.1.5,60.011006018583814,
-0.5,0,1,left,1,3,0,0,0,0,7,5,61,0,,,,,,,,,158.95678270000008,159.4570130000002,160.1746836000002,None,159.47379899999987,160.15789189999987,160.67538909999985,None,left,1,0.3743514000002506,160.67538909999985,None,None,159.47379899999987,160.65898990000005,0.5117009000000508,0.5951224999998885,1.7136608000000706,1.7967506999998477,,,,,,priya_1,001,2020_Feb_14_1207,posner,3.1.5,60.011006018583814,
0.5,180,1,right,2,4,0,0,0,0,7,6,62,7,,,,,,,,,161.07618760000014,161.57657259999996,162.2945208000001,None,161.59337510000023,162.2774961,162.79509180000014,None,right,1,0.27864099999987957,162.79509180000014,None,None,161.59337510000023,162.77843680000024,0.5122894000000997,0.5957585000001018,1.7141678000002685,1.7976615000002312,,,,,,priya_1,001,2020_Feb_14_1207,posner,3.1.5,60.011006018583814,
0.5,180,1,right,2,4,0,0,0,0,7,7,63,5,,,,,,,,,163.09618469999987,163.59597570000005,164.31360780000023,None,163.61294129999987,164.29713140000013,164.8143086,None,right,1,0.43545270000004166,164.8143086,None,None,163.61294129999987,164.79786049999984,0.5114555000000109,0.5951586000001043,1.7133426000000327,1.796571800000038,,,,,,priya_1,001,2020_Feb_14_1207,posner,3.1.5,60.011006018583814,
0.5,0,0,right,1,4,0,0,0,0,8,0,64,3,,,,,,,,,165.26533659999996,165.7656560999999,166.48346420000007,None,165.78253529999984,166.4666169000002,166.98419270000022,167.46829900000012,right,1,0.5457107000001997,166.98419270000022,None,None,165.78253529999984,166.96721190000017,0.5118671000000177,0.5953796999997394,1.7134085999996387,1.7970314999997754,,,,,,priya_1,001,2020_Feb_14_1207,posner,3.1.5,60.011006018583814,
-0.5,180,0,left,2,3,0,0,0,0,8,1,65,4,,,,,,,,,167.5520915000002,168.0522762999999,168.7699573,None,168.06919169999992,168.7533825999999,169.27067549999992,169.75458160000017,left,1,0.5552641999997832,169.27067549999992,None,None,168.06919169999992,169.25389059999998,0.5116918999997324,0.5949851999998828,1.7132886999997936,1.7966005999996923,,,,,,priya_1,001,2020_Feb_14_1207,posner,3.1.5,60.011006018583814,
0.5,180,1,right,2,4,0,0,0,0,8,2,66,6,,,,,,,,,169.85537310000018,170.35532610000018,171.0730797000001,None,170.37211049999996,171.05619320000005,171.57379519999995,None,right,1,0.33206860000018423,171.57379519999995,None,None,170.37211049999996,171.55685949999997,0.511556400000245,0.594935400000395,1.7130685000001904,1.7966481000003114,,,,,,priya_1,001,2020_Feb_14_1207,posner,3.1.5,60.011006018583814,
0.5,180,1,right,2,4,0,0,0,0,8,3,67,7,,,,,,,,,171.92471190000015,172.4247405000001,173.1426790999999,None,172.4415044000002,173.12581260000024,173.6433946000002,None,right,1,0.3825261000001774,173.6433946000002,None,None,172.4415044000002,173.62651940000023,0.5115458000000217,0.5951096000003417,1.7133060000001024,1.7969749000003503,,,,,,priya_1,001,2020_Feb_14_1207,posner,3.1.5,60.011006018583814,
-0.5,0,1,left,1,3,0,0,0,0,8,4,68,0,,,,,,,,,174.04465140000002,174.54442849999987,175.26237679999986,None,174.5609758999999,175.24526930000002,175.76300200000014,None,left,1,0.4069630000003599,175.76300200000014,None,None,174.5609758999999,175.74612250000018,0.5114638999998533,0.5949061000001166,1.713144199999988,1.7967952999997578,,,,,,priya_1,001,2020_Feb_14_1207,posner,3.1.5,60.011006018583814,
-0.5,0,1,left,1,3,0,0,0,0,8,5,69,1,,,,,,,,,176.1976064999999,176.69730040000013,177.4150067999999,None,176.71412779999991,177.3984602999999,177.91582689999996,178.39972500000022,left,1,0.5339629000000059,177.91582689999996,None,None,176.71412779999991,177.89925270000003,0.5113356000001659,0.5949212000000443,1.713267700000415,1.796681400000125,,,,,,priya_1,001,2020_Feb_14_1207,posner,3.1.5,60.011006018583814,
-0.5,0,1,left,1,3,0,0,0,0,8,6,70,2,,,,,,,,,178.46707460000016,178.96709150000015,179.68470430000025,None,178.98402160000023,179.66809030000013,180.18560000000025,180.6697147,left,1,0.6321960000000217,180.18560000000025,None,None,178.98402160000023,180.16891010000018,0.5113598000002639,0.5948622000000796,1.7132049000001643,1.7967603000001873,,,,,,priya_1,001,2020_Feb_14_1207,posner,3.1.5,60.011006018583814,
0.5,180,1,right,2,4,0,0,0,0,8,7,71,5,,,,,,,,,180.83707719999984,181.33716259999983,182.05490659999987,None,181.35375350000004,182.0380882999998,182.55528400000003,None,right,1,0.342521300000044,182.55528400000003,None,None,181.35375350000004,182.5387384999999,0.5116080000002512,0.5949602999999115,1.713162999999895,1.796809100000246,,,,,,priya_1,001,2020_Feb_14_1207,posner,3.1.5,60.011006018583814,
0.5,0,0,right,1,4,0,0,0,0,9,0,72,3,,,,,,,,,182.92341620000025,183.4234551999998,184.1411339000001,None,183.43986670000004,184.12434889999986,184.6416795,185.1256641,right,1,0.7359819999996944,184.6416795,None,None,183.43986670000004,184.6250943,0.5117390000000341,0.5950060000000121,1.7133647999999084,1.796886699999959,,,,,,priya_1,001,2020_Feb_14_1207,posner,3.1.5,60.011006018583814,
0.5,180,1,right,2,4,0,0,0,0,9,1,73,7,,,,,,,,,185.40977609999982,185.91023970000015,186.6278287,None,185.92683940000006,186.61130009999988,187.12834840000005,None,right,1,0.43334950000007666,187.12834840000005,None,None,185.92683940000006,187.1119635,0.511703000000125,0.5951971999998023,1.713420699999915,1.7964744000000792,,,,,,priya_1,001,2020_Feb_14_1207,posner,3.1.5,60.011006018583814,
0.5,180,1,right,2,4,0,0,0,0,9,2,74,6,,,,,,,,,187.5800079999999,188.0797937000002,188.7973235999998,None,188.0963087,188.78076760000022,189.2982393000002,189.78211190000002,right,1,0.5513891999999032,189.2982393000002,None,None,188.0963087,189.2814315999999,0.511472799999865,0.5950376999999207,1.7130971999999929,1.7965085999999246,,,,,,priya_1,001,2020_Feb_14_1207,posner,3.1.5,60.011006018583814,
-0.5,0,1,left,1,3,0,0,0,0,9,3,75,2,,,,,,,,,189.8662675999999,190.36607000000004,191.08358809999982,None,190.38292450000017,191.06701490000023,191.5846058000002,None,left,1,0.3852246000001287,191.5846058000002,None,None,190.38292450000017,191.56859320000012,0.5111720999998397,0.5946907999996256,1.7136801999999989,1.7964321999997992,,,,,,priya_1,001,2020_Feb_14_1207,posner,3.1.5,60.011006018583814,
-0.5,0,1,left,1,3,0,0,0,0,9,4,76,0,,,,,,,,,191.98533850000013,192.48585600000024,193.20358990000022,None,192.50267050000002,193.18663890000016,193.70408550000002,None,left,1,0.3055587999997442,193.70408550000002,None,None,192.50267050000002,193.6875546000001,0.5119700000000194,0.5958765000000312,1.7136516000000483,1.7969388999999865,,,,,,priya_1,001,2020_Feb_14_1207,posner,3.1.5,60.011006018583814,
0.5,180,1,right,2,4,0,0,0,0,9,5,77,5,,,,,,,,,194.0383766,194.5385953,195.25622569999996,None,194.55542800000012,195.23964669999987,195.7568282000002,None,right,1,0.4208840000001146,195.7568282000002,None,None,194.55542800000012,195.74029130000008,0.5119799999997667,0.5955652999996346,1.713654299999689,1.7972575999997389,,,,,,priya_1,001,2020_Feb_14_1207,posner,3.1.5,60.011006018583814,
-0.5,0,1,left,1,3,0,0,0,0,9,6,78,1,,,,,,,,,196.20800809999992,196.70843490000016,197.42588810000007,None,196.72494510000024,197.409181,197.92661610000005,None,left,1,0.427188400000432,197.92661610000005,None,None,196.72494510000024,197.90984029999981,0.512025900000026,0.595321100000092,1.7134155999997347,1.796971499999927,,,,,,priya_1,001,2020_Feb_14_1207,posner,3.1.5,60.011006018583814,
-0.5,180,0,left,2,3,0,0,0,0,9,7,79,4,,,,,,,,,198.37777259999984,198.8780016999999,199.59571189999997,None,198.89474430000018,199.57899910000015,200.0964002999999,200.58046580000018,left,1,0.4812520999998924,200.0964002999999,None,None,198.89474430000018,200.0796795000001,0.5118811000002097,0.5954169000001457,1.7135041999999885,1.7970792999999503,,,,,,priya_1,001,2020_Feb_14_1207,posner,3.1.5,60.011006018583814,
-0.5,0,1,left,1,3,0,0,0,0,10,0,80,2,,,,,,,,,200.5979573999998,201.09778940000024,201.81531320000022,None,201.11426870000014,201.79870859999983,202.31602060000023,None,left,1,0.35770419999971637,202.31602060000023,None,None,201.11426870000014,202.29956579999998,0.5115837000003012,0.5948417000004156,1.7133387000003495,1.7967604000000392,,,,,,priya_1,001,2020_Feb_14_1207,posner,3.1.5,60.011006018583814,
0.5,180,1,right,2,4,0,0,0,0,10,1,81,7,,,,,,,,,202.70081859999982,203.2006640999998,203.91835219999984,None,203.21708350000017,203.90147419999994,204.41902949999985,None,right,1,0.3666049999997085,204.41902949999985,None,None,203.21708350000017,204.4022,0.5115431999997782,0.5948684999998477,1.7130648999996083,1.7963075999996363,,,,,,priya_1,001,2020_Feb_14_1207,posner,3.1.5,60.011006018583814,
0.5,180,1,right,2,4,0,0,0,0,10,2,82,5,,,,,,,,,204.80368809999982,205.3035519,206.0211162999999,None,205.32031730000017,206.00448400000005,206.52196460000005,None,right,1,0.3438727999996445,206.52196460000005,None,None,205.32031730000017,206.50508960000025,0.5114432999998826,0.5946778999996241,1.71296940000002,1.7965378999997483,,,,,,priya_1,001,2020_Feb_14_1207,posner,3.1.5,60.011006018583814,
-0.5,180,0,left,2,3,0,0,0,0,10,3,83,4,,,,,,,,,206.89015580000023,207.38975500000015,208.10741959999996,None,207.4064929000001,208.09077389999993,208.60816690000001,None,left,1,0.4015644000000975,208.60816690000001,None,None,207.4064929000001,208.59126879999985,0.5112508000001981,0.5949601000002076,1.7127534999999625,1.7963017000001855,,,,,,priya_1,001,2020_Feb_14_1207,posner,3.1.5,60.011006018583814,
0.5,180,1,right,2,4,0,0,0,0,10,4,84,6,,,,,,,,,209.02582759999996,209.52594959999988,210.24359830000003,None,209.5428068000001,210.22688830000016,210.74437089999992,211.22812750000003,None,0,,210.74437089999992,None,right,209.5428068000001,210.72757039999988,0.5116962000001877,0.5953982000000906,1.713320500000009,1.796744800000397,0.92306520000011,,,,,priya_1,001,2020_Feb_14_1207,posner,3.1.5,60.011006018583814,
-0.5,0,1,left,1,3,0,0,0,0,10,5,85,0,,,,,,,,,211.7290039999998,212.2295763000002,212.94724110000016,211.7290039999998,212.24623780000002,212.9305989999998,213.44799469999998,None,left,1,0.345596900000146,213.44799469999998,None,None,212.24623780000002,213.43140519999997,0.514110300000084,0.597762899999907,1.715917300000001,1.7992448999998487,,,,,,priya_1,001,2020_Feb_14_1207,posner,3.1.5,60.011006018583814,
0.5,0,0,right,1,4,0,0,0,0,10,6,86,3,,,,,,,,,213.81602380000004,214.31590060000008,215.0337257000001,None,214.33273869999994,215.01664600000004,215.53429830000005,216.01830470000004,right,1,0.5073999000001095,215.53429830000005,None,None,214.33273869999994,215.51762199999985,0.5114286000002721,0.5950151000001824,1.7131522000004225,1.796475200000259,,,,,,priya_1,001,2020_Feb_14_1207,posner,3.1.5,60.011006018583814,
-0.5,0,1,left,1,3,0,0,0,0,10,7,87,1,,,,,,,,,216.0689900000002,216.56935060000023,217.28643580000016,None,216.58557410000003,217.26998749999984,217.7871427,218.2713973,left,1,0.838529600000129,217.7871427,None,None,216.58557410000003,217.77068000000008,0.5123885999996673,0.5954400999999052,1.7136940000000322,1.7970092999998997,,,,,,priya_1,001,2020_Feb_14_1207,posner,3.1.5,60.011006018583814,
,,,,,,0,0,0,0,,,,,,,,,,,,,,,,,,,,,,,,,,,,,,,,,,218.65615930000013,None,1.699999984339229e-05,0.996137600000111,priya_1,001,2020_Feb_14_1207,posner,3.1.5,60.011006018583814,
0.5,180,1,right,2,4,1,0,1,0,0,0,0,6,1.1299999641778413e-05,0.09751999999980399,279.6726542000001,None,1.4799999917158857e-05,0.09811969999964276,281.77549279999994,None,282.0546918,282.55989739999995,283.2775351999999,None,282.57660590000023,283.26094620000003,283.7615915000001,None,right,1,0.44787929999984044,283.7615915000001,None,None,282.57660590000023,283.7615915000001,0.5154741999999715,0.5990442000002076,1.7001519000000371,1.8002931999999419,,,,,,priya_1,001,2020_Feb_14_1207,posner,3.1.5,60.011006018583814,
-0.5,180,0,left,2,3,1,0,1,0,0,1,1,4,,,,,,,,,284.2305557999998,284.7295896999999,285.4471029000001,None,284.7461487999999,285.43045680000023,285.9477551,None,left,1,0.3576563999999962,285.9477551,None,None,284.7461487999999,285.93131459999995,0.5107821999999942,0.5941766999999345,1.7124887999998464,1.7956272000001263,,,,,,priya_1,001,2020_Feb_14_1207,posner,3.1.5,60.011006018583814,
-0.5,0,1,left,1,3,1,0,1,0,0,2,2,1,,,,,,,,,286.3325748000002,286.8326412000001,287.54993060000015,None,286.84932560000016,287.5334997,288.05089769999995,None,left,1,0.3986131999999998,288.05089769999995,None,None,286.84932560000016,288.03395260000025,0.51175719999992,0.5948419999999714,1.7130577999996603,1.796579699999711,,,,,,priya_1,001,2020_Feb_14_1207,posner,3.1.5,60.011006018583814,
0.5,180,1,right,2,4,1,0,1,0,0,3,3,5,,,,,,,,,288.4683957000002,288.96892130000015,289.6862990999998,None,288.9852326,289.6696903000002,290.1870448999998,None,right,1,0.25444240000024365,290.1870448999998,None,None,288.9852326,290.17031129999987,0.5125001999999768,0.5958888000000115,1.7138792000000649,1.7972742000001745,,,,,,priya_1,001,2020_Feb_14_1207,posner,3.1.5,60.011006018583814,
0.5,180,1,right,2,4,1,0,1,0,0,4,4,7,,,,,,,,,290.4714061999998,290.97161099999994,291.6892078000001,None,290.988198,291.6724267999998,292.1899177999999,None,right,1,0.3636256999998295,292.1899177999999,None,None,290.988198,292.1734025999999,0.5116140000000087,0.5948026000000937,1.7133954999999332,1.796452500000214,,,,,,priya_1,001,2020_Feb_14_1207,posner,3.1.5,60.011006018583814,
-0.5,0,1,left,1,3,1,0,1,0,0,5,5,2,,,,,,,,,292.5745178000002,293.07432430000017,293.7918622000002,None,293.0911747,293.7753047000001,294.2927257000001,None,left,1,0.28472169999986363,294.2927257000001,None,None,293.0911747,294.2761353000001,0.5115316000001258,0.595275700000002,1.7133312000000842,1.7967555999998694,,,,,,priya_1,001,2020_Feb_14_1207,posner,3.1.5,60.011006018583814,
0.5,0,0,right,1,4,1,0,1,0,0,6,6,3,,,,,,,,,294.5934112,295.09406609999996,295.81131140000025,None,295.1105047000001,295.79457060000004,296.31220840000015,None,right,1,0.32119620000003124,296.31220840000015,None,None,295.1105047000001,296.29535840000017,0.5122059999998783,0.5954485000002023,1.7134838000001764,1.7970835000000989,,,,,,priya_1,001,2020_Feb_14_1207,posner,3.1.5,60.011006018583814,
-0.5,0,1,left,1,3,1,0,1,0,0,7,7,0,,,,,,,,,296.66300869999986,297.1632531,297.8810103999999,None,297.1799341000001,297.8642754000002,298.3816514,None,left,1,0.4198417000002337,298.3816514,None,None,297.1799341000001,298.36481809999987,0.5115934999998899,0.595015500000045,1.7131391000002623,1.796791900000244,,,,,,priya_1,001,2020_Feb_14_1207,posner,3.1.5,60.011006018583814,
-0.5,0,1,left,1,3,1,0,1,0,1,0,8,1,,,,,,,,,298.83253460000014,299.3330172000001,300.05068299999994,None,299.3495346999998,300.03404180000007,300.55156369999986,None,left,1,0.42587500000036016,300.55156369999986,None,None,299.3495346999998,300.5346451999999,0.5118877999998404,0.5951319999999214,1.7135033999998086,1.7968031000000337,,,,,,priya_1,001,2020_Feb_14_1207,posner,3.1.5,60.011006018583814,
0.5,0,0,right,1,4,1,0,1,0,1,1,9,3,,,,,,,,,301.0026848000002,301.5026176000001,302.2203758999999,None,301.5193798999999,302.2037286,302.7211514999999,None,right,1,0.3043929999998909,302.7211514999999,None,None,301.5193798999999,302.7043002999999,0.5115366999998514,0.5947667000000365,1.7132003000001532,1.7965407000001505,,,,,,priya_1,001,2020_Feb_14_1207,posner,3.1.5,60.011006018583814,
-0.5,0,1,left,1,3,1,0,1,0,1,2,10,0,,,,,,,,,303.05477599999995,303.5553411000001,304.2731404000001,None,303.5717616000002,304.25634119999995,304.7737880999998,None,left,1,0.3075312999999369,304.7737880999998,None,None,303.5717616000002,304.7569724,0.5120900000001711,0.5958270000000994,1.7137056000001394,1.7972371999999268,,,,,,priya_1,001,2020_Feb_14_1207,posner,3.1.5,60.011006018583814,
0.5,180,1,right,2,4,1,0,1,0,1,3,11,6,,,,,,,,,305.10837279999987,305.60832130000017,306.32597750000014,None,305.6249779999998,306.3093216000002,306.8264469999999,None,right,1,0.3992241000000831,306.8264469999999,None,None,305.6249779999998,306.8098199000001,0.5113581000000522,0.594763999999941,1.7128466999997727,1.796371100000215,,,,,,priya_1,001,2020_Feb_14_1207,posner,3.1.5,60.011006018583814,
0.5,180,1,right,2,4,1,0,1,0,1,4,12,7,,,,,,,,,307.24437480000006,307.7443767,308.46221300000025,None,307.7611495000001,308.44530669999995,308.96295770000006,None,left,0,0.222654600000169,308.96295770000006,None,None,307.7611495000001,308.9460755,0.5115255999999135,0.5951196000000891,1.7132050999998683,1.7967632999998386,,,,,,priya_1,001,2020_Feb_14_1207,posner,3.1.5,60.011006018583814,
0.5,180,1,right,2,4,1,0,1,0,1,5,13,5,,,,,,,,,309.21366530000023,309.7139708999998,310.43169709999984,None,309.7305365000002,310.4148154999998,310.93220680000013,None,right,1,0.29326350000019374,310.93220680000013,None,None,309.7305365000002,310.91526090000025,0.5116253999999572,0.5950186000000031,1.7129038000002765,1.7968872000001284,,,,,,priya_1,001,2020_Feb_14_1207,posner,3.1.5,60.011006018583814,
-0.5,0,1,left,1,3,1,0,1,0,1,6,14,2,,,,,,,,,311.25026750000006,311.7502992999998,312.4677136,None,311.7668100000001,312.45109649999995,312.96855719999985,None,left,1,0.3127736999999797,312.96855719999985,None,None,311.7668100000001,312.95164220000015,0.5115346000002319,0.5943188000001101,1.712862800000039,1.7962636000002021,,,,,,priya_1,001,2020_Feb_14_1207,posner,3.1.5,60.011006018583814,
-0.5,180,0,left,2,3,1,0,1,0,1,7,15,4,,,,,,,,,313.3028048000001,313.80297180000025,314.52050099999997,None,313.8196367999999,314.50367749999987,315.02123819999997,315.5053732000001,left,1,0.5641860000000634,315.02123819999997,None,None,313.8196367999999,315.0043601000002,0.5116480000001502,0.5949586000001545,1.7130190000002585,1.7967209000003095,,,,,,priya_1,001,2020_Feb_14_1207,posner,3.1.5,60.011006018583814,
-0.5,0,1,left,1,3,1,0,1,0,2,0,16,1,,,,,,,,,315.60583959999985,316.10600220000015,316.8238986000001,None,316.1229401999999,316.80688120000013,317.3245004999999,None,left,1,0.4048558999998022,317.3245004999999,None,None,316.1229401999999,317.3076952000001,0.5115230000001247,0.5950692999999774,1.713211599999795,1.7965769000002183,,,,,,priya_1,001,2020_Feb_14_1207,posner,3.1.5,60.011006018583814,
0.5,180,1,right,2,4,1,0,1,0,2,1,17,5,,,,,,,,,317.7586339999998,318.25904720000017,318.97657059999983,None,318.2756101,318.96012169999995,319.4773399999999,None,right,1,0.3480106000001797,319.4773399999999,None,None,318.2756101,319.4608647,0.5122664000000441,0.5956013999998504,1.7140641999999389,1.797458099999858,,,,,,priya_1,001,2020_Feb_14_1207,posner,3.1.5,60.011006018583814,
-0.5,0,1,left,1,3,1,0,1,0,2,2,18,0,,,,,,,,,319.84552010000016,320.3454563999999,321.0628732,None,320.3621584000002,321.04606509999985,321.5635145000001,None,left,1,0.3177818999997726,321.5635145000001,None,None,320.3621584000002,321.5469349,0.5117120999998406,0.5949314999998023,1.713168400000086,1.7966857000001255,,,,,,priya_1,001,2020_Feb_14_1207,posner,3.1.5,60.011006018583814,
-0.5,0,1,left,1,3,1,0,1,0,2,3,19,2,,,,,,,,,321.89787590000014,322.3982311999998,323.11567300000024,None,322.41469000000006,323.09917780000023,323.61624500000016,None,left,1,0.40915769999992335,323.61624500000016,None,None,322.41469000000006,323.59974250000005,0.5118446999999833,0.5952618000001166,1.7133456000001388,1.7968003999999382,,,,,,priya_1,001,2020_Feb_14_1207,posner,3.1.5,60.011006018583814,
0.5,0,0,right,1,4,1,0,1,0,2,4,20,3,,,,,,,,,324.0510282,324.5512711000001,325.26872679999997,None,324.5681362,325.2522748000001,325.7694596000001,None,right,1,0.32795709999982137,325.7694596000001,None,None,324.5681362,325.75275439999996,0.5118076000003384,0.5949011000002429,1.7132833999999093,1.7965721000000485,,,,,,priya_1,001,2020_Feb_14_1207,posner,3.1.5,60.011006018583814,
-0.5,180,0,left,2,3,1,0,1,0,2,5,21,4,,,,,,,,,326.12073610000016,326.62058979999983,327.33826839999983,None,326.6371767999999,327.32171629999993,327.83890199999996,328.32314469999983,left,1,0.5544958000000406,327.83890199999996,None,None,326.6371767999999,327.8223446000002,0.511471000000256,0.5946866000003865,1.7132047000000057,1.796472300000005,,,,,,priya_1,001,2020_Feb_14_1207,posner,3.1.5,60.011006018583814,
0.5,180,1,right,2,4,1,0,1,0,2,6,22,6,,,,,,,,,328.4234621999999,328.9238135999999,329.64137930000015,None,328.9404620999999,329.6246643999998,330.1420423999998,330.62596299999996,right,1,0.6351867999997012,330.1420423999998,None,None,328.9404620999999,330.1254644999999,0.5116929999999229,0.5949266999996325,1.7133326999996825,1.7967843999999786,,,,,,priya_1,001,2020_Feb_14_1207,posner,3.1.5,60.011006018583814,
0.5,180,1,right,2,4,1,0,1,0,2,7,23,7,,,,,,,,,330.79380850000007,331.29353189999983,332.01144909999994,None,331.3102067,331.99450939999997,332.51175809999995,332.99576909999996,right,1,0.6256231000002117,332.51175809999995,None,None,331.3102067,332.4951904999998,0.5115061999999853,0.5949317000004157,1.7131481000001259,1.7966910000000098,,,,,,priya_1,001,2020_Feb_14_1207,posner,3.1.5,60.011006018583814,
-0.5,0,1,left,1,3,1,0,1,0,3,0,24,2,,,,,,,,,333.1635735,333.6635792000002,334.3811575,None,333.6802861000001,334.3644379000002,334.8819023000001,None,left,1,0.3275275999999394,334.8819023000001,None,None,333.6802861000001,334.86526090000007,0.51158630000009,0.5952228999999534,1.7132495000000745,1.7965401000001293,,,,,,priya_1,001,2020_Feb_14_1207,posner,3.1.5,60.011006018583814,
-0.5,0,1,left,1,3,1,0,1,0,3,1,25,1,,,,,,,,,335.23302569999987,335.73324030000003,336.4508652999998,None,335.7499041000001,336.4338560000001,336.9513753000001,None,left,1,0.4259167999998681,336.9513753000001,None,None,335.7499041000001,336.9347643000001,0.5117291000001387,0.5948896999998396,1.7132415000000947,1.7967929000001277,,,,,,priya_1,001,2020_Feb_14_1207,posner,3.1.5,60.011006018583814,
0.5,180,1,right,2,4,1,0,1,0,3,2,26,7,,,,,,,,,337.4026033,337.90282960000013,338.62021349999986,None,337.91952500000025,338.60367540000016,339.1211208999998,None,right,1,0.34420270000009623,339.1211208999998,None,None,337.91952500000025,339.1042269999998,0.5117143000002216,0.5950318000000152,1.713100100000247,1.7968305000003966,,,,,,priya_1,001,2020_Feb_14_1207,posner,3.1.5,60.011006018583814,
0.5,0,0,right,1,4,1,0,1,0,3,3,27,3,,,,,,,,,339.4893440999999,339.9889902,340.7063109999999,None,340.0054301,340.69000510000023,341.2071047999998,None,left,0,0.13035889999991923,341.2071047999998,None,None,340.0054301,341.1906014000001,0.5114055000003646,0.5948559000003115,1.713004700000056,1.7963628000002245,,,,,,priya_1,001,2020_Feb_14_1207,posner,3.1.5,60.011006018583814,
0.5,180,1,right,2,4,1,0,1,0,3,4,28,6,,,,,,,,,341.3580932,341.85830380000016,342.57591630000024,None,341.8747429,342.5594062,343.0763665999998,343.56062310000016,right,1,0.4848685000001751,343.0763665999998,None,None,341.8747429,343.0598187999999,0.5116811000002599,0.5950463000003765,1.7131837000001724,1.7966840000003685,,,,,,priya_1,001,2020_Feb_14_1207,posner,3.1.5,60.011006018583814,
-0.5,0,1,left,1,3,1,0,1,0,3,5,29,0,,,,,,,,,343.5776243,344.07789820000016,344.79543479999984,None,344.09455449999996,344.77913450000005,345.2962597999999,None,left,1,0.3451538000003893,345.2962597999999,None,None,344.09455449999996,345.2795854000001,0.511755600000015,0.5952759000001606,1.7134240999998838,1.7969922000002043,,,,,,priya_1,001,2020_Feb_14_1207,posner,3.1.5,60.011006018583814,
0.5,180,1,right,2,4,1,0,1,0,3,6,30,5,,,,,,,,,345.6641098,346.16403679999985,346.8817045999999,None,346.1807402999998,346.86496810000017,347.3825867999999,None,right,1,0.41079119999994873,347.3825867999999,None,None,346.1807402999998,347.3655428000002,0.5114353000003575,0.5949951000002329,1.7129454999999325,1.796505100000104,,,,,,priya_1,001,2020_Feb_14_1207,posner,3.1.5,60.011006018583814,
-0.5,180,0,left,2,3,1,0,1,0,3,7,31,4,,,,,,,,,347.81694530000004,348.3170094000002,349.03454610000017,None,348.3335837999998,349.01823269999977,349.53533019999986,None,left,1,0.40998380000019097,349.53533019999986,None,None,348.3335837999998,349.51870310000004,0.5112583000000086,0.5947132999999667,1.712934199999836,1.7964303999997355,,,,,,priya_1,001,2020_Feb_14_1207,posner,3.1.5,60.011006018583814,
-0.5,180,0,left,2,3,1,0,1,0,4,0,32,4,,,,,,,,,349.9701431999997,350.4701366000004,351.1877730000001,None,350.48673720000033,351.1709704,351.6885663999997,None,left,1,0.45690730000023905,351.6885663999997,None,None,350.48673720000033,351.67165929999965,0.5114832999997816,0.5947984000003999,1.7130160000006072,1.7962295000006634,,,,,,priya_1,001,2020_Feb_14_1207,posner,3.1.5,60.011006018583814,
0.5,180,1,right,2,4,1,0,1,0,4,1,33,6,,,,,,,,,352.17319030000044,352.6731579000002,353.39084070000035,None,352.6899629000004,353.37419400000044,353.89137770000025,352.17319030000044,right,1,0.325992000000042,353.89137770000025,None,None,352.6899629000004,353.8746729999998,0.5116927999997642,0.5948345999995581,1.7131880999995701,1.7966158999997788,,,,,,priya_1,001,2020_Feb_14_1207,posner,3.1.5,60.011006018583814,
-0.5,0,1,left,1,3,1,0,1,0,4,2,34,1,,,,,,,,,354.2424642000001,354.7426792000001,355.46064760000036,None,354.7591404,355.4434882999999,355.96095769999965,None,left,1,0.4083651999999347,355.96095769999965,None,None,354.7591404,355.9443574000002,0.5117772000003242,0.594975500000146,1.7134430000005523,1.7968930000006367,,,,,,priya_1,001,2020_Feb_14_1207,posner,3.1.5,60.011006018583814,
0.5,0,0,right,1,4,1,0,1,0,4,3,35,3,,,,,,,,,356.3957303000002,356.89552330000015,357.6132636999996,None,356.91233390000025,357.59636590000036,358.1139331999998,None,right,1,0.2954317000003357,358.1139331999998,None,None,356.91233390000025,358.0972827999999,0.5112827000002653,0.5947577999995701,1.7130183999997826,1.7964063999997961,,,,,,priya_1,001,2020_Feb_14_1207,posner,3.1.5,60.011006018583814,
-0.5,0,1,left,1,3,1,0,1,0,4,4,36,0,,,,,,,,,358.43162840000014,358.9317868000003,359.6492446999996,None,358.9482906999997,359.6327110999996,360.1501532999996,None,left,1,0.3310477000004539,360.1501532999996,None,None,358.9482906999997,360.1333762999998,0.5113965000000462,0.5946278999999777,1.7129718000005596,1.7962962000001426,,,,,,priya_1,001,2020_Feb_14_1207,posner,3.1.5,60.011006018583814,
0.5,180,1,right,2,4,1,0,1,0,4,5,37,7,,,,,,,,,360.50140580000016,361.00114470000017,361.71895900000027,None,361.01796520000016,361.7022960999998,362.2195477,None,right,1,0.33374060000005557,362.2195477,None,None,361.01796520000016,362.20288389999996,0.5114270000003671,0.5947892000003776,1.7131426000005376,1.7964436000002024,,,,,,priya_1,001,2020_Feb_14_1207,posner,3.1.5,60.011006018583814,
-0.5,0,1,left,1,3,1,0,1,0,4,6,38,2,,,,,,,,,362.57047459999967,363.0708454999999,363.78853670000035,None,363.0873362999996,363.77164270000003,364.28913599999987,None,left,1,0.3201183000001038,364.28913599999987,None,None,363.0873362999996,364.27235489999975,0.5118914999993649,0.5951694999994288,1.71338729999934,1.7966181000001598,,,,,,priya_1,001,2020_Feb_14_1207,posner,3.1.5,60.011006018583814,
0.5,180,1,right,2,4,1,0,1,0,4,7,39,5,,,,,,,,,364.64030609999963,365.1403722,365.8579934000004,None,365.15702310000006,365.8413137000002,366.35879179999984,None,right,1,0.39458079999985785,366.35879179999984,None,None,365.15702310000006,366.3418899000003,0.5114837000000989,0.5946994000005361,1.7129718000005596,1.7963644999999815,,,,,,priya_1,001,2020_Feb_14_1207,posner,3.1.5,60.011006018583814,
-0.5,0,1,left,1,3,1,0,1,0,5,0,40,1,,,,,,,,,366.77674830000024,367.2766026000004,367.99408749999975,None,367.29325149999977,367.9774179000001,368.49485760000016,None,left,1,0.37045880000005127,368.49485760000016,None,None,367.29325149999977,368.4782130999997,0.5116369000006671,0.5951770000001488,1.7132259999998496,1.796774400000686,,,,,,priya_1,001,2020_Feb_14_1207,posner,3.1.5,60.011006018583814,
0.5,180,1,right,2,4,1,0,1,0,5,1,41,7,,,,,,,,,368.8957612999998,369.3961697999998,370.11359219999986,None,369.41282960000035,370.09698400000025,370.6142383000001,371.09847539999964,right,1,0.5550578000002133,370.6142383000001,None,None,369.41282960000035,370.5979500999997,0.5117276999999376,0.5951682000004439,1.7134863000001133,1.7966160000005402,,,,,,priya_1,001,2020_Feb_14_1207,posner,3.1.5,60.011006018583814,
0.5,180,1,right,2,4,1,0,1,0,5,2,42,5,,,,,,,,,371.1990639999999,371.6992832000001,372.4166871000002,None,371.7158347999998,372.40026549999993,372.9176043000002,373.4018252000001,right,1,0.4836358000002292,372.9176043000002,None,None,371.7158347999998,372.9008369999997,0.5115767999996024,0.5948209999996834,1.7131181999993714,1.7966804999996384,,,,,,priya_1,001,2020_Feb_14_1207,posner,3.1.5,60.011006018583814,
-0.5,180,0,left,2,3,1,0,1,0,5,3,43,4,,,,,,,,,373.4191784999998,373.91912569999977,374.6365940999999,None,373.9356057,374.61982839999973,375.1372944999998,375.62137420000045,left,1,0.47992560000056983,375.1372944999998,None,None,373.9356057,375.1205249999998,0.5116287000000739,0.5951425000002928,1.7130170000000362,1.7965598000000682,,,,,,priya_1,001,2020_Feb_14_1207,posner,3.1.5,60.011006018583814,
-0.5,0,1,left,1,3,1,0,1,0,5,4,44,0,,,,,,,,,375.6383337000002,376.1388469999997,376.8563282,None,376.1553552999999,376.8397321999996,377.3571509999997,377.84119039999996,None,0,,377.3571509999997,None,None,376.1553552999999,377.3403470999997,0.5122725999999602,0.5958103000002666,1.713761400000294,1.7972397000003184,,,,,,priya_1,001,2020_Feb_14_1207,posner,3.1.5,60.011006018583814,
0.5,0,0,right,1,4,1,0,1,0,5,5,45,3,,,,,,,,,378.3415662000002,378.8424266999996,379.5601528000002,378.3415662000002,378.8592104000004,379.5434921000001,380.06081829999994,None,right,1,0.3963424000003215,380.06081829999994,None,None,378.8592104000004,380.04395609999983,0.5135067999999592,0.5968468999999459,1.7150249000005715,1.7985539000001154,,,,,,priya_1,001,2020_Feb_14_1207,posner,3.1.5,60.011006018583814,
-0.5,0,1,left,1,3,1,0,1,0,5,6,46,2,,,,,,,,,380.47838100000035,380.9786882000003,381.69619360000024,None,380.99549909999996,381.6795215999996,382.1968942999997,None,left,1,0.3883112000003166,382.1968942999997,None,None,380.99549909999996,382.1804404999998,0.512239600000612,0.5959017000004678,1.7139813000003414,1.797252300000764,,,,,,priya_1,001,2020_Feb_14_1207,posner,3.1.5,60.011006018583814,
0.5,180,1,right,2,4,1,0,1,0,5,7,47,6,,,,,,,,,382.61471550000033,383.11486209999975,383.8326548,None,383.1316863999996,383.81575889999976,384.3333501000002,None,right,1,0.3079389999993509,384.3333501000002,None,None,383.1316863999996,384.3164775,0.5114555999998629,0.5950916000001598,1.713056300000062,1.796980899999653,,,,,,priya_1,001,2020_Feb_14_1207,posner,3.1.5,60.011006018583814,
-0.5,0,1,left,1,3,1,0,1,0,6,0,48,1,,,,,,,,,384.6678348999999,385.16794189999973,385.8852191000001,None,385.1845076000004,385.86895200000026,386.3858699999996,None,left,1,0.2712841999991724,386.3858699999996,None,None,385.1845076000004,386.36963630000037,0.5117294000001493,0.5950034000006781,1.7134100000002945,1.7967284000005748,,,,,,priya_1,001,2020_Feb_14_1207,posner,3.1.5,60.011006018583814,
-0.5,0,1,left,1,3,1,0,1,0,6,1,49,0,,,,,,,,,386.68709400000034,387.1871919,387.9049632000001,None,387.2039762999998,387.8882786999998,388.4056333000003,388.88954460000014,left,1,0.5555000999993354,388.4056333000003,None,None,387.2039762999998,388.38893919999964,0.5117051000006541,0.5952115999998568,1.7134286999998949,1.7969500999997763,,,,,,priya_1,001,2020_Feb_14_1207,posner,3.1.5,60.011006018583814,
-0.5,180,0,left,2,3,1,0,1,0,6,2,50,4,,,,,,,,,388.9904869999996,389.4905681000005,390.2080441000003,None,389.50708650000024,390.19136430000026,390.70875790000036,None,left,1,0.43647799999962444,390.70875790000036,None,None,389.50708650000024,390.6921245999997,0.5115409,0.59487369999988,1.7130890999997064,1.7964522000002034,,,,,,priya_1,001,2020_Feb_14_1207,posner,3.1.5,60.011006018583814,
-0.5,0,1,left,1,3,1,0,1,0,6,3,51,2,,,,,,,,,391.17669760000035,391.6768054999998,392.39433299999973,None,391.6934778,392.37794450000047,392.8951855,None,left,1,0.3062559999998484,392.8951855,None,None,391.6934778,392.8785376000001,0.5114783999997599,0.5949392999991687,1.7131862999995064,1.796744199999921,,,,,,priya_1,001,2020_Feb_14_1207,posner,3.1.5,60.011006018583814,
0.5,0,0,right,1,4,1,0,1,0,6,4,52,3,,,,,,,,,393.2293566000003,393.72968999999966,394.44732049999993,None,393.7462151000004,394.43064040000036,394.94810540000026,395.4320124999999,right,1,0.5251463999993575,394.94810540000026,None,None,393.7462151000004,394.9311800999999,0.5114331000004313,0.5949848000000202,1.7129129000004468,1.7963308999997025,,,,,,priya_1,001,2020_Feb_14_1207,posner,3.1.5,60.011006018583814,
0.5,180,1,right,2,4,1,0,1,0,6,5,53,5,,,,,,,,,395.4993608,395.9996451000002,396.71690050000007,None,396.01607490000015,396.70043469999973,397.21795770000017,397.70175059999974,right,1,0.575365900000179,397.21795770000017,None,None,396.01607490000015,397.20098499999995,0.511489000000438,0.5945804000002681,1.7128136999999697,1.7961401000002297,,,,,,priya_1,001,2020_Feb_14_1207,posner,3.1.5,60.011006018583814,
0.5,180,1,right,2,4,1,0,1,0,6,6,54,7,,,,,,,,,397.8196383999998,398.3193282999996,399.0369330999997,None,398.33577279999963,399.0200638000001,399.5378609000004,None,right,1,0.43130440000004455,399.5378609000004,None,None,398.33577279999963,399.5210598999997,0.5115236999999979,0.5949393000000782,1.7132394000000204,1.7964050000000498,,,,,,priya_1,001,2020_Feb_14_1207,posner,3.1.5,60.011006018583814,
0.5,180,1,right,2,4,1,0,1,0,6,7,55,6,,,,,,,,,399.9892225999997,400.48915480000005,401.20642629999975,None,400.50548279999975,401.1898954000003,401.70725210000046,None,right,1,0.4140499000004638,401.70725210000046,None,None,400.50548279999975,401.6906205,0.5117245999999795,0.5949767000001884,1.7131845000003523,1.7967552999998588,,,,,,priya_1,001,2020_Feb_14_1207,posner,3.1.5,60.011006018583814,
-0.5,0,1,left,1,3,1,0,1,0,7,0,56,0,,,,,,,,,402.1415963000004,402.6420337000004,403.35956000000033,None,402.65875389999974,403.3430444999999,403.8602661,None,left,1,0.3648419000001013,403.8602661,None,None,402.65875389999974,403.8435545999996,0.5116520000001401,0.5947436000005837,1.7131664000007731,1.796456200000648,,,,,,priya_1,001,2020_Feb_14_1207,posner,3.1.5,60.011006018583814,
-0.5,180,0,left,2,3,1,0,1,0,7,1,57,4,,,,,,,,,404.2450123000003,404.7447095000002,405.46265079999966,None,404.7616578000002,405.44558000000006,405.9631261999998,406.4471166999997,left,1,0.5579585000004954,405.9631261999998,None,None,404.7616578000002,405.9464304999997,0.5113819000007425,0.5948457000004055,1.713090100000045,1.7965173000002324,,,,,,priya_1,001,2020_Feb_14_1207,posner,3.1.5,60.011006018583814,
-0.5,0,1,left,1,3,1,0,1,0,7,2,58,2,,,,,,,,,406.54810190000035,407.0480257000004,407.7655400999997,None,407.06466800000044,407.7489332,408.2662906999999,None,left,1,0.4069374999999127,408.2662906999999,None,None,407.06466800000044,408.24955759999966,0.5116330000000744,0.5949437999997826,1.7131595000000743,1.796548299999813,,,,,,priya_1,001,2020_Feb_14_1207,posner,3.1.5,60.011006018583814,
0.5,180,1,right,2,4,1,0,1,0,7,3,59,5,,,,,,,,,408.70077569999967,409.20096690000037,409.9185586999997,None,409.2176582999996,409.9019223,410.4192310000003,None,right,1,0.3019053999996686,410.4192310000003,None,None,409.2176582999996,410.40260700000044,0.5115697000001092,0.5949176000003717,1.713198100000227,1.7967104000008476,,,,,,priya_1,001,2020_Feb_14_1207,posner,3.1.5,60.011006018583814,
-0.5,0,1,left,1,3,1,0,1,0,7,4,60,1,,,,,,,,,410.7371535999996,411.23702920000005,411.9545833999996,None,411.2536508999997,411.93788970000014,412.4553694000001,None,left,1,0.321944700000131,412.4553694000001,None,None,411.2536508999997,412.43875940000044,0.5115520999997898,0.5950411000003442,1.7132532000005085,1.7967477000001963,,,,,,priya_1,001,2020_Feb_14_1207,posner,3.1.5,60.011006018583814,
0.5,180,1,right,2,4,1,0,1,0,7,5,61,7,,,,,,,,,412.8066193999998,413.3065523999999,414.0242908000005,None,413.32336540000006,414.0076895999996,414.5248329000001,415.0090273999999,right,1,0.7082192000007126,414.5248329000001,None,None,413.32336540000006,414.5081586000001,0.5115874000002805,0.5950864000005822,1.713172000000668,1.7966321000003518,,,,,,priya_1,001,2020_Feb_14_1207,posner,3.1.5,60.011006018583814,
0.5,0,0,right,1,4,1,0,1,0,7,6,62,3,,,,,,,,,415.25996729999997,415.7599369000004,416.47751970000036,None,415.77655060000006,416.4609610000002,416.97841070000004,417.4626082,right,1,0.5266473000001497,416.97841070000004,None,None,415.77655060000006,416.9614523000005,0.5113729999993666,0.5948643000001539,1.7128781999999774,1.796451199999865,,,,,,priya_1,001,2020_Feb_14_1207,posner,3.1.5,60.011006018583814,
0.5,180,1,right,2,4,1,0,1,0,7,7,63,6,,,,,,,,,417.53042740000046,418.0297551999997,418.7475036999999,None,418.0463514999997,418.73070059999964,419.2480639999999,419.7321973000003,right,1,0.5292850000005274,419.2480639999999,None,None,418.0463514999997,419.2314530999997,0.5114367999995011,0.5948613999998997,1.7131209999997736,1.7963486999997258,,,,,,priya_1,001,2020_Feb_14_1207,posner,3.1.5,60.011006018583814,
-0.5,0,1,left,1,3,1,0,1,0,8,0,64,0,,,,,,,,,419.7997989999999,420.2995997000003,421.0174947999999,None,420.3162092999996,421.00054039999986,421.51819750000004,None,left,1,0.2749915000003966,421.51819750000004,None,None,420.3162092999996,421.5012105999999,0.5113883000003625,0.5947588999997606,1.7129865999995673,1.7961648000000423,,,,,,priya_1,001,2020_Feb_14_1207,posner,3.1.5,60.011006018583814,
0.5,180,1,right,2,4,1,0,1,0,8,1,65,6,,,,,,,,,421.81918090000045,422.31913889999987,423.0365710000001,None,422.3355829999996,423.0200044999997,423.53724230000034,424.0214486,right,1,0.5598832999994556,423.53724230000034,None,None,422.3355829999996,423.5206784999996,0.5115518000002339,0.5950056000001496,1.7130803000000014,1.7963112999996156,,,,,,priya_1,001,2020_Feb_14_1207,posner,3.1.5,60.011006018583814,
0.5,0,0,right,1,4,1,0,1,0,8,2,66,3,,,,,,,,,424.1220877999999,424.6223839999998,425.33985059999986,None,424.63889530000006,425.3231060000003,425.84054570000035,426.32438460000003,right,1,0.5445364999995945,425.84054570000035,None,None,424.63889530000006,425.8236883000004,0.5119187000000238,0.5950174999998126,1.7132108000005246,1.7968485000001237,,,,,,priya_1,001,2020_Feb_14_1207,posner,3.1.5,60.011006018583814,
-0.5,180,0,left,2,3,1,0,1,0,8,3,67,4,,,,,,,,,426.4082470999997,426.9087506999999,427.6261241999996,None,426.9253162,427.6095360000004,428.1268187999999,None,left,1,0.394253800000115,428.1268187999999,None,None,426.9253162,428.1103740000003,0.5123987999995734,0.5958070999995471,1.7140111999997316,1.7972548999996434,,,,,,priya_1,001,2020_Feb_14_1207,posner,3.1.5,60.011006018583814,
0.5,180,1,right,2,4,1,0,1,0,8,4,68,5,,,,,,,,,428.5449085000005,429.0447847999999,429.76269,None,429.06155549999994,429.74581530000023,430.26331960000016,None,right,1,0.29771179999988817,430.26331960000016,None,None,429.06155549999994,430.2463101999997,0.5118190000002869,0.5954736000003322,1.713322600000538,1.797088299999814,,,,,,priya_1,001,2020_Feb_14_1207,posner,3.1.5,60.011006018583814,
-0.5,0,1,left,1,3,1,0,1,0,8,5,69,2,,,,,,,,,430.5806465999999,431.08112670000037,431.7989209000002,None,431.0979677,431.78210050000007,432.2995132000001,None,left,1,0.405576199999814,432.2995132000001,None,None,431.0979677,432.28282119999994,0.5119304999998349,0.5951014000002033,1.7135920000000624,1.7969986999996763,,,,,,priya_1,001,2020_Feb_14_1207,posner,3.1.5,60.011006018583814,
-0.5,0,1,left,1,3,1,0,1,0,8,6,70,1,,,,,,,,,432.7339847999997,433.2340663,433.9517192999997,None,433.25072880000016,433.9350026999996,434.45250989999977,434.9362772999998,left,1,0.4766503000000739,434.45250989999977,None,None,433.25072880000016,434.43563479999966,0.5117675000001327,0.5952557999999044,1.7133185000002413,1.7968672000006336,,,,,,priya_1,001,2020_Feb_14_1207,posner,3.1.5,60.011006018583814,
0.5,180,1,right,2,4,1,0,1,0,8,7,71,7,,,,,,,,,434.9537167000003,435.45372670000006,436.1716104000002,None,435.4702358999998,436.1545288000002,436.6721970000003,None,right,1,0.30485679999947024,436.6721970000003,None,None,435.4702358999998,436.6555021999998,0.5117048000001887,0.5950679999996282,1.7134527999996862,1.7968007999998008,,,,,,priya_1,001,2020_Feb_14_1207,posner,3.1.5,60.011006018583814,
0.5,180,1,right,2,4,1,0,1,0,9,0,72,6,,,,,,,,,437.0062286999996,437.5064401000004,438.2242232000003,None,437.5234168000002,438.2074727000004,438.72472380000045,None,right,1,0.3882992999997441,438.72472380000045,None,None,437.5234168000002,438.7082266000002,0.5114057999999204,0.5951447000006738,1.7131767999999283,1.796566700000767,,,,,,priya_1,001,2020_Feb_14_1207,posner,3.1.5,60.011006018583814,
0.5,180,1,right,2,4,1,0,1,0,9,1,73,7,,,,,,,,,439.1428350000001,439.6429540000004,440.36053029999994,None,439.6595616999998,440.3437882000003,440.8609462999998,None,right,1,0.428231699999742,440.8609462999998,None,None,439.6595616999998,440.84432419999985,0.5113415000005261,0.5945013000000472,1.7126985000004424,1.7965167000002111,,,,,,priya_1,001,2020_Feb_14_1207,posner,3.1.5,60.011006018583814,
-0.5,0,1,left,1,3,1,0,1,0,9,2,74,0,,,,,,,,,441.3126447999998,441.81264409999994,442.5301961,None,441.8292666000002,442.51351790000035,443.03097170000046,None,left,1,0.3941514999996798,443.03097170000046,None,None,441.8292666000002,443.01409660000036,0.5116704000001846,0.5950732000001153,1.713115800000196,1.796962700000222,,,,,,priya_1,001,2020_Feb_14_1207,posner,3.1.5,60.011006018583814,
-0.5,0,1,left,1,3,1,0,1,0,9,3,75,1,,,,,,,,,443.4486088999997,443.94881380000015,444.6662755000002,None,443.9652877000003,444.6496199999997,445.16696960000036,None,left,1,0.4661261999999624,445.16696960000036,None,None,443.9652877000003,445.15050680000013,0.5122016000004805,0.5955509000004895,1.7138764000001174,1.7971100000004299,,,,,,priya_1,001,2020_Feb_14_1207,posner,3.1.5,60.011006018583814,
-0.5,0,1,left,1,3,1,0,1,0,9,4,76,2,,,,,,,,,445.6517369999997,446.1519693000005,446.8692863000001,None,446.16869220000035,446.85278789999984,447.36998939999967,445.6517369999997,left,1,0.3992574000003515,447.36998939999967,None,None,446.16869220000035,447.35333800000035,0.5116030999997747,0.5948207999999795,1.7129560999992464,1.7963636999993469,,,,,,priya_1,001,2020_Feb_14_1207,posner,3.1.5,60.011006018583814,
-0.5,180,0,left,2,3,1,0,1,0,9,5,77,4,,,,,,,,,447.78837330000033,448.28792790000034,449.0056032999996,None,448.30455910000046,448.98888320000015,449.50627850000046,None,left,1,0.4147861000001285,449.50627850000046,None,None,448.30455910000046,449.4897530000003,0.5114002000000255,0.5949706000001243,1.7132031999999526,1.796892299999854,,,,,,priya_1,001,2020_Feb_14_1207,posner,3.1.5,60.011006018583814,
0.5,0,0,right,1,4,1,0,1,0,9,6,78,3,,,,,,,,,449.94118000000026,450.4409326,451.1587050000003,None,450.4577033999999,451.1419793,451.6593934999996,452.14329599999974,right,1,0.8696213000002899,451.6593934999996,None,None,450.4577033999999,451.6428232000003,0.5113080000000991,0.5946518000000651,1.7131786000009015,1.796428100000412,,,,,,priya_1,001,2020_Feb_14_1207,posner,3.1.5,60.011006018583814,
0.5,180,1,right,2,4,1,0,1,0,9,7,79,5,,,,,,,,,452.5610423000003,453.0613930000004,453.7790078000003,None,453.07803490000015,453.7624001999998,454.27992349999977,454.7634463999998,right,1,0.5692282999998497,454.27992349999977,None,None,453.07803490000015,454.2630244999996,0.5115955000001122,0.5949129999999059,1.7132119999996576,1.796405400000367,,,,,,priya_1,001,2020_Feb_14_1207,posner,3.1.5,60.011006018583814,
-0.5,0,1,left,1,3,1,0,1,0,10,0,80,0,,,,,,,,,454.8809846999998,455.38114710000036,456.0989486000003,None,455.39783000000034,456.08213320000004,456.59972640000024,457.0834338999998,left,1,0.6173426000004838,456.59972640000024,None,None,455.39783000000034,456.5827260000001,0.5116512999993574,0.5950722999996287,1.713218599999891,1.7967099999996208,,,,,,priya_1,001,2020_Feb_14_1207,posner,3.1.5,60.011006018583814,
0.5,180,1,right,2,4,1,0,1,0,10,1,81,5,,,,,,,,,457.23414300000013,457.7342543999998,458.4519558999996,None,457.7512314999999,458.4351993000005,458.9527052999997,None,right,1,0.35237589999997,458.9527052999997,None,None,457.7512314999999,458.9359065000003,0.5116427000002659,0.5953276000000187,1.713284399999793,1.7969302999999854,,,,,,priya_1,001,2020_Feb_14_1207,posner,3.1.5,60.011006018583814,
-0.5,0,1,left,1,3,1,0,1,0,10,2,82,1,,,,,,,,,459.3205727999998,459.8206521999996,460.53833170000007,None,459.83723299999974,460.5214467999999,461.03908309999997,None,left,1,0.4100469000004523,461.03908309999997,None,None,459.83723299999974,461.0222563000002,0.5116008999993937,0.5949399000000994,1.7131943999993382,1.7966699999997218,,,,,,priya_1,001,2020_Feb_14_1207,posner,3.1.5,60.011006018583814,
0.5,180,1,right,2,4,1,0,1,0,10,3,83,6,,,,,,,,,461.4734626000004,461.97367170000007,462.6910278999999,None,461.9902384000002,462.67440430000033,463.19188350000013,463.6758255,right,1,0.5050559999999678,463.19188350000013,None,None,461.9902384000002,463.1750530000004,0.5118388000000778,0.5951198000002478,1.7132080999999744,1.7968172999999297,,,,,,priya_1,001,2020_Feb_14_1207,posner,3.1.5,60.011006018583814,
0.5,0,0,right,1,4,1,0,1,0,10,4,84,3,,,,,,,,,463.72633650000034,464.22667109999975,464.94406300000037,None,464.2433347000001,464.9277125000003,465.44486410000036,465.9291066999999,right,1,0.5242123999996693,465.44486410000036,None,None,464.2433347000001,465.42825550000043,0.5115109999997003,0.5949457999995502,1.7130787999994936,1.796579799999563,,,,,,priya_1,001,2020_Feb_14_1207,posner,3.1.5,60.011006018583814,
-0.5,0,1,left,1,3,1,0,1,0,10,5,85,2,,,,,,,,,465.9965576999998,466.49637349999966,467.2140642999998,None,466.5131532999999,467.1973831999999,467.71472570000014,None,left,1,0.33443160000024363,467.71472570000014,None,None,466.5131532999999,467.69809959999975,0.5114593999996941,0.5950239000003421,1.7131878000000142,1.7967743999997765,,,,,,priya_1,001,2020_Feb_14_1207,posner,3.1.5,60.011006018583814,
0.5,180,1,right,2,4,1,0,1,0,10,6,86,7,,,,,,,,,468.06654320000007,468.56645869999966,469.28366400000004,None,468.58265960000017,469.26672740000004,469.7842188999998,None,right,1,0.3768681999999899,469.7842188999998,None,None,468.58265960000017,469.76761399999987,0.5118386000003738,0.5947015000001556,1.7129777000000104,1.796510600000147,,,,,,priya_1,001,2020_Feb_14_1207,posner,3.1.5,60.011006018583814,
-0.5,180,0,left,2,3,1,0,1,0,10,7,87,4,,,,,,,,,470.18514019999975,470.68530359999977,471.40341769999986,None,470.70233770000004,471.38641680000046,471.90391539999973,None,left,1,0.30501490000006015,471.90391539999973,None,None,470.70233770000004,471.8870824999999,0.5115954000002603,0.5951893000001292,1.7133574999998018,1.796886799999811,,,,,,priya_1,001,2020_Feb_14_1207,posner,3.1.5,60.011006018583814,
,,,,,,1,0,1,0,,,,,,,,,,,,,,,,,,,,,,,,,,,,,,,,,,472.2379496999997,None,1.5299999176932033e-05,0.9964541999997891,priya_1,001,2020_Feb_14_1207,posner,3.1.5,60.011006018583814,
-0.5,0,1,left,1,3,2,0,2,0,0,0,0,1,1.0900000233959872e-05,0.09755200000017794,533.2549612999996,None,1.4600000213249587e-05,0.09775859999990644,535.3577559,None,535.6381108,536.1424533000004,536.8600854000001,None,536.1590946000001,536.8433056999997,537.3608046000004,537.8446116999999,left,1,0.4720549999992727,537.3608046000004,None,None,536.1590946000001,537.3439155000001,0.5135383999995611,0.5967928999998549,1.7149899999994886,1.7986356000001251,,,,,,priya_1,001,2020_Feb_14_1207,posner,3.1.5,60.011006018583814,
0.5,180,1,right,2,4,2,0,2,0,0,1,1,7,,,,,,,,,537.8619397999996,538.3623057,539.0796623000001,None,538.3790499000002,539.0631243000003,539.5804332000002,None,right,1,0.33241309999993973,539.5804332000002,None,None,538.3790499000002,539.5636743999999,0.5112120000003415,0.5943372000001546,1.7125703000001522,1.7961116999995284,,,,,,priya_1,001,2020_Feb_14_1207,posner,3.1.5,60.011006018583814,
-0.5,0,1,left,1,3,2,0,2,0,0,2,2,2,,,,,,,,,539.9316604999999,540.4314596999998,541.1492936999998,None,540.4483816999996,541.1326405000004,541.6498809,None,left,1,0.35887450000063836,541.6498809,None,None,540.4483816999996,541.6332723,0.5112908000000971,0.594881300000452,1.713081100000636,1.796468200000163,,,,,,priya_1,001,2020_Feb_14_1207,posner,3.1.5,60.011006018583814,
-0.5,0,1,left,1,3,2,0,2,0,0,3,3,0,,,,,,,,,542.0340110000002,542.5344784000004,543.2523681999996,None,542.5510427000004,543.2354373000003,543.7529574000005,None,right,0,0.08791380000002391,543.7529574000005,None,None,542.5510427000004,543.7360640000002,0.5120772000000215,0.5957277000006798,1.7136473000000478,1.7971285000003263,,,,,,priya_1,001,2020_Feb_14_1207,posner,3.1.5,60.011006018583814,
0.5,180,1,right,2,4,2,0,2,0,0,4,4,5,,,,,,,,,543.8700811000003,544.3704153000003,545.0880708999998,None,544.3872336999998,545.0713948999996,545.5888794999996,None,right,1,0.4440426999999545,545.5888794999996,None,None,544.3872336999998,545.5720130000004,0.5114834999994855,0.5949721999995745,1.7130719999995563,1.7965415999997276,,,,,,priya_1,001,2020_Feb_14_1207,posner,3.1.5,60.011006018583814,
0.5,180,1,right,2,4,2,0,2,0,0,5,5,6,,,,,,,,,546.0566532999997,546.5566567000001,547.2743799000004,None,546.5733893000001,547.2577981999998,547.7749796000003,None,right,1,0.385932999999568,547.7749796000003,None,None,546.5733893000001,547.7584057999998,0.5113662000003387,0.5951647000001685,1.7130999000000884,1.7966714000003776,,,,,,priya_1,001,2020_Feb_14_1207,posner,3.1.5,60.011006018583814,
-0.5,180,0,left,2,3,2,0,2,0,0,6,6,4,,,,,,,,,548.1763864,548.6762145999996,549.3939394000004,None,548.6930090000001,549.3774086999997,549.8945449999997,None,left,1,0.3942589999996926,549.8945449999997,None,None,548.6930090000001,549.878037,0.5114943999997195,0.5949650000002293,1.7132996000000276,1.796778599999925,,,,,,priya_1,001,2020_Feb_14_1207,posner,3.1.5,60.011006018583814,
0.5,0,0,right,1,4,2,0,2,0,0,7,7,3,,,,,,,,,550.3122715000004,550.8127574000005,551.5303983999997,None,550.8294649000004,551.5135560000003,552.0309708999998,None,right,1,0.4337922000004255,552.0309708999998,None,None,550.8294649000004,552.0139685999998,0.5120193000002473,0.5951794000002337,1.7132196000002295,1.7969646000001376,,,,,,priya_1,001,2020_Feb_14_1207,posner,3.1.5,60.011006018583814,
-0.5,0,1,left,1,3,2,0,2,0,1,0,8,1,,,,,,,,,552.4824253000002,552.9820910000003,553.6998988999999,None,552.9990085000004,553.6833431,554.2006028999999,None,left,1,0.40825780000068335,554.2006028999999,None,None,552.9990085000004,554.1836232,0.5115357000004224,0.59547510000084,1.7130547000006118,1.7968301000000793,,,,,,priya_1,001,2020_Feb_14_1207,posner,3.1.5,60.011006018583814,
-0.5,0,1,left,1,3,2,0,2,0,1,1,9,0,,,,,,,,,554.6353387000004,555.1349897000005,555.8528437,None,555.1518117999999,555.8360012999997,556.3534803999996,556.8377009999999,left,1,0.4873254000003726,556.3534803999996,None,None,555.1518117999999,556.3367945000005,0.5112306999999419,0.5947657999995499,1.7130376999994041,1.7966441999997187,,,,,,priya_1,001,2020_Feb_14_1207,posner,3.1.5,60.011006018583814,
-0.5,0,1,left,1,3,2,0,2,0,1,2,10,2,,,,,,,,,556.8711957999999,557.3717703999996,558.0893262000004,None,557.3883203,558.0725973000003,558.5901126000003,None,left,1,0.4667704000003141,558.5901126000003,None,None,557.3883203,558.5733699999996,0.5118756000001667,0.5950744000001578,1.7134613000007448,1.7966088000002856,,,,,,priya_1,001,2020_Feb_14_1207,posner,3.1.5,60.011006018583814,
-0.5,180,0,left,2,3,2,0,2,0,1,3,11,4,,,,,,,,,559.0747495,559.5745069999998,560.2923821999998,None,559.5913977000005,560.2755224999996,560.7929529999997,561.2773271000001,left,1,0.4797798999998122,560.7929529999997,None,None,559.5913977000005,560.7762674,0.5115306999996392,0.5950907999995252,1.7132738999998764,1.796750599999541,,,,,,priya_1,001,2020_Feb_14_1207,posner,3.1.5,60.011006018583814,
0.5,180,1,right,2,4,2,0,2,0,1,4,12,6,,,,,,,,,561.2942863000003,561.7943846000003,562.5120093999999,None,561.8111145999997,562.4951206000001,563.0128883000002,None,right,1,0.30780480000066746,563.0128883000002,None,None,561.8111145999997,562.9959501999997,0.5120700999996188,0.5955166000003373,1.7136237000004257,1.7972067000000607,,,,,,priya_1,001,2020_Feb_14_1207,posner,3.1.5,60.011006018583814,
0.5,180,1,right,2,4,2,0,2,0,1,5,13,7,,,,,,,,,563.3472012999996,563.8471780000004,564.5648838000002,None,563.8637905,564.5481052999999,565.0660107999997,565.5496151000002,right,1,0.48673950000011246,565.0660107999997,None,None,563.8637905,565.0489664000002,0.511706199999935,0.5951826999998957,1.7134387999994942,1.7967112999995152,,,,,,priya_1,001,2020_Feb_14_1207,posner,3.1.5,60.011006018583814,
0.5,0,0,right,1,4,2,0,2,0,1,6,14,3,,,,,,,,,565.5829884999998,566.0836823000004,566.8012307000004,None,566.1004650999998,566.7843857000003,567.3020443999999,None,right,1,0.37887360000058834,567.3020443999999,None,None,566.1004650999998,567.2852060999999,0.5121312000001126,0.5955297000000428,1.7136432000006607,1.7971739000004163,,,,,,priya_1,001,2020_Feb_14_1207,posner,3.1.5,60.011006018583814,
0.5,180,1,right,2,4,2,0,2,0,1,7,15,5,,,,,,,,,567.7042867000005,568.2032947000002,568.9207277999999,None,568.2199052999999,568.9040235999996,569.4217094,None,right,1,0.3470754999998462,569.4217094,None,None,568.2199052999999,569.4048164999999,0.51082469999983,0.5941660999997112,1.7123357999998916,1.7960623999997551,,,,,,priya_1,001,2020_Feb_14_1207,posner,3.1.5,60.011006018583814,
0.5,180,1,right,2,4,2,0,2,0,2,0,16,6,,,,,,,,,569.7905797999997,570.2894924999996,571.0069312999999,None,570.3059472,570.9903047000003,571.5077589999996,None,right,1,0.3649854999994204,571.5077589999996,None,None,570.3059472,571.4909842000002,0.5105935999999929,0.5939143999994485,1.7120740000000296,1.7955893999996988,,,,,,priya_1,001,2020_Feb_14_1207,posner,3.1.5,60.011006018583814,
-0.5,0,1,left,1,3,2,0,2,0,2,1,17,2,,,,,,,,,571.8922493000005,572.3922470000002,573.1100840000004,None,572.4090591999998,573.0931458,573.6107717,None,left,1,0.3580306000003475,573.6107717,None,None,572.4090591999998,573.5940439999999,0.5115034000000378,0.5948880999994799,1.7132873000000473,1.7967124999995576,,,,,,priya_1,001,2020_Feb_14_1207,posner,3.1.5,60.011006018583814,
0.5,0,0,right,1,4,2,0,2,0,2,2,18,3,,,,,,,,,573.9950292999997,574.4950642999997,575.2127982999996,None,574.5119325999999,575.1960291,575.7135245000004,None,right,1,0.4233923000001596,575.7135245000004,None,None,574.5119325999999,575.6968208000003,0.5115253000003577,0.5949085000002015,1.7132713000000876,1.7966917000003377,,,,,,priya_1,001,2020_Feb_14_1207,posner,3.1.5,60.011006018583814,
-0.5,0,1,left,1,3,2,0,2,0,2,3,19,1,,,,,,,,,576.1641139999997,576.6647967000004,577.3824707999997,None,576.6816076999999,577.3657583999998,577.8831266000002,None,left,1,0.34959600000001956,577.8831266000002,None,None,576.6816076999999,577.8664807,0.5124216000003798,0.5960839999997916,1.7140893000005235,1.7975390999999945,,,,,,priya_1,001,2020_Feb_14_1207,posner,3.1.5,60.011006018583814,
0.5,180,1,right,2,4,2,0,2,0,2,4,20,7,,,,,,,,,578.2509556,578.7509529000004,579.4688376999998,None,578.7677699000001,579.4520189,579.9694795,None,right,1,0.27914590000000317,579.9694795,None,None,578.7677699000001,579.9528693999996,0.5115123999994466,0.5948787999996057,1.713415399999576,1.7964772999994238,,,,,,priya_1,001,2020_Feb_14_1207,posner,3.1.5,60.011006018583814,
-0.5,0,1,left,1,3,2,0,2,0,2,5,21,0,,,,,,,,,580.2702193,580.7706316999997,581.4884569000001,None,580.7872449000001,581.4714772000002,581.9888628000003,None,left,1,0.33188890000019455,581.9888628000003,None,None,580.7872449000001,581.9722833000001,0.5116588000000775,0.5949098999999478,1.7132963000003656,1.7965804000004937,,,,,,priya_1,001,2020_Feb_14_1207,posner,3.1.5,60.011006018583814,
0.5,180,1,right,2,4,2,0,2,0,2,6,22,5,,,,,,,,,582.3402408999996,582.8401522999998,583.5577199000004,None,582.8567914999999,583.5411519000004,584.0585624999999,None,right,1,0.3261601999993218,584.0585624999999,None,None,582.8567914999999,584.0415533,0.5114769000001615,0.5947271000004548,1.712867300000653,1.796473600000354,,,,,,priya_1,001,2020_Feb_14_1207,posner,3.1.5,60.011006018583814,
-0.5,180,0,left,2,3,2,0,2,0,2,7,23,4,,,,,,,,,584.4096176999997,584.9093955000003,585.6274436999997,None,584.9261834000004,585.6104983999999,586.1279118999996,586.6118123000001,left,1,0.5048416999998153,586.1279118999996,None,None,584.9261834000004,586.1112626999998,0.5113853999991989,0.5950106999998752,1.7132277999999133,1.7964898999998695,,,,,,priya_1,001,2020_Feb_14_1207,posner,3.1.5,60.011006018583814,
-0.5,0,1,left,1,3,2,0,2,0,3,0,24,0,,,,,,,,,586.6623051000001,587.1625563000002,587.8801466999998,None,587.1794506000001,587.8634542000004,588.3809102999999,None,left,1,0.3560482000002594,588.3809102999999,None,None,587.1794506000001,588.3642728,0.5114515999994182,0.5946540999993886,1.7131509999999253,1.79669979999926,,,,,,priya_1,001,2020_Feb_14_1207,posner,3.1.5,60.011006018583814,
-0.5,0,1,left,1,3,2,0,2,0,3,1,25,2,,,,,,,,,588.7649987,589.2654399999997,589.9831086999998,None,589.2821477000002,589.9664165999998,590.4837578000001,None,left,1,0.37309410000034404,590.4837578000001,None,None,589.2821477000002,590.4670121000004,0.5123417000004338,0.5959984000000986,1.7139079000007769,1.7977749000001495,,,,,,priya_1,001,2020_Feb_14_1207,posner,3.1.5,60.011006018583814,
0.5,180,1,right,2,4,2,0,2,0,3,2,26,5,,,,,,,,,590.8844052999998,591.3850325999997,592.1028109000003,None,591.4017945,592.0859628000003,592.6033583000003,593.0875927000002,right,1,0.5254473999993934,592.6033583000003,None,None,591.4017945,592.5865785000001,0.512383299999783,0.5960532999997668,1.713912000000164,1.7974987999996301,,,,,,priya_1,001,2020_Feb_14_1207,posner,3.1.5,60.011006018583814,
-0.5,180,0,left,2,3,2,0,2,0,3,3,27,4,,,,,,,,,593.1545586999996,593.6548928999996,594.3727541000003,None,593.6716232000003,594.3557648999999,594.8732273999999,595.3572042999999,left,1,0.4714690000000701,594.8732273999999,None,None,593.6716232000003,594.8565086000003,0.5118397000005643,0.5954316000006656,1.7134464000000662,1.7969014000000243,,,,,,priya_1,001,2020_Feb_14_1207,posner,3.1.5,60.011006018583814,
0.5,0,0,right,1,4,2,0,2,0,3,4,28,3,,,,,,,,,595.3745148000003,595.8743734000004,596.5923995999997,None,595.8916133999996,596.5757583,597.0930265000002,None,right,1,0.46790469999996276,597.0930265000002,None,None,595.8916133999996,597.0763033999997,0.5114389000000301,0.5947728000001007,1.7133315000000948,1.7967317000002367,,,,,,priya_1,001,2020_Feb_14_1207,posner,3.1.5,60.011006018583814,
-0.5,0,1,left,1,3,2,0,2,0,3,5,29,1,,,,,,,,,597.5777130000001,598.0777865000005,598.7951668999999,None,598.0941914999999,598.7785310000004,599.2957950000005,599.7799741000003,left,1,0.8888689000004888,599.2957950000005,None,None,598.0941914999999,599.2790491000001,0.5116549000003943,0.5951440000008006,1.7129042000005938,1.7965822000005573,,,,,,priya_1,001,2020_Feb_14_1207,posner,3.1.5,60.011006018583814,
0.5,180,1,right,2,4,2,0,2,0,3,6,30,7,,,,,,,,,600.2137960000005,600.7145472999996,601.4323015000004,None,600.7314457999996,601.4154629,601.9330158999996,602.4167006000002,right,1,0.5637618000000657,601.9330158999996,None,None,600.7314457999996,601.9162770999997,0.5123664999991888,0.5959967999997389,1.7140835000000152,1.7975908999997046,,,,,,priya_1,001,2020_Feb_14_1207,posner,3.1.5,60.011006018583814,
0.5,180,1,right,2,4,2,0,2,0,3,7,31,6,,,,,,,,,602.5182311000003,603.0178606000004,603.7352624999999,None,603.0344705000002,603.7187399999998,604.2360727999999,604.7201185999998,right,1,0.5326599999998507,604.2360727999999,None,None,603.0344705000002,604.2195812000004,0.5116729000001214,0.5949565000000803,1.7133739000000787,1.7966686999998274,,,,,,priya_1,001,2020_Feb_14_1207,posner,3.1.5,60.011006018583814,
-0.5,0,1,left,1,3,2,0,2,0,4,0,32,0,,,,,,,,,604.7878612,605.2876127000004,606.0052853000002,None,605.3042520000004,605.9887923000001,606.5058050000002,606.9899517999997,left,1,0.6868839999997363,606.5058050000002,None,None,605.3042520000004,606.4894312000001,0.5114350999992894,0.5948226999998951,1.7132309999997233,1.7964667999995072,,,,,,priya_1,001,2020_Feb_14_1207,posner,3.1.5,60.011006018583814,
0.5,0,0,right,1,4,2,0,2,0,4,1,33,3,,,,,,,,,607.2242154999999,607.7244804999996,608.4420672000001,None,607.7409634,608.4252111000001,608.9426177,609.4265467,right,1,0.47417330000007496,608.9426177,None,None,607.7409634,608.9258610000002,0.5117436999998972,0.5951125000001412,1.7131111999997302,1.7965762000003451,,,,,,priya_1,001,2020_Feb_14_1207,posner,3.1.5,60.011006018583814,
0.5,180,1,right,2,4,2,0,2,0,4,2,34,7,,,,,,,,,609.4438193000001,609.9439961000003,610.6617099,None,609.9606679000003,610.6447989000003,611.1623040999998,611.6462016,right,1,0.5342098999999507,611.1623040999998,None,None,609.9606679000003,611.1454459000001,0.5116360000001805,0.5951119999999719,1.7130754999998317,1.7967375999996875,,,,,,priya_1,001,2020_Feb_14_1207,posner,3.1.5,60.011006018583814,
0.5,180,1,right,2,4,2,0,2,0,4,3,35,5,,,,,,,,,611.7136576999997,612.2136107000001,612.9314061,None,612.2305941999998,612.9145334,613.4315772000004,None,right,1,0.3452453999998397,613.4315772000004,None,None,612.2305941999998,613.4151090999999,0.5115914999996676,0.5951887999999599,1.7130693999997675,1.7966525000001639,,,,,,priya_1,001,2020_Feb_14_1207,posner,3.1.5,60.011006018583814,
-0.5,180,0,left,2,3,2,0,2,0,4,4,36,4,,,,,,,,,613.8000917000004,614.2999211000001,615.0178287000003,None,614.3167178999997,615.0009949,615.5183216,None,left,1,0.4664831000000049,615.5183216,None,None,614.3167178999997,615.5018053999997,0.5113197000000582,0.5948079999998299,1.7131832999994003,1.796331900000041,,,,,,priya_1,001,2020_Feb_14_1207,posner,3.1.5,60.011006018583814,
0.5,180,1,right,2,4,2,0,2,0,4,5,37,6,,,,,,,,,616.0029681000001,616.5031670000003,617.2207150999998,None,616.5196174999996,617.2039049999998,617.7214738999996,618.2052710000003,None,0,,617.7214738999996,None,None,616.5196174999996,617.7046670000004,0.5117282000001069,0.5948612000001958,1.7132181000006312,1.7967943000003288,,,,,,priya_1,001,2020_Feb_14_1207,posner,3.1.5,60.011006018583814,
-0.5,0,1,left,1,3,2,0,2,0,4,6,38,2,,,,,,,,,618.7060585000004,619.2066339999997,619.9242922999997,618.7060585000004,619.2234683000001,619.9078041999996,620.4249597000003,620.9092831000003,left,1,0.47163929999987886,620.4249597000003,None,right,619.2234683000001,620.4084675999998,0.5135503999999855,0.5971286000003602,1.7153252999996766,1.7987394000001586,0.24926090000008116,,,,,priya_1,001,2020_Feb_14_1207,posner,3.1.5,60.011006018583814,
-0.5,0,1,left,1,3,2,0,2,0,4,7,39,1,,,,,,,,,620.9262094999999,621.4264847,622.1441315999996,None,621.4430813000004,622.1276486000002,622.6448046,None,left,1,0.3318372999992789,622.6448046,None,None,621.4430813000004,622.6283227999998,0.5113931999994747,0.5948135999997248,1.713204699999551,1.7964784999994663,,,,,,priya_1,001,2020_Feb_14_1207,posner,3.1.5,60.011006018583814,
-0.5,0,1,left,1,3,2,0,2,0,5,0,40,1,,,,,,,,,622.9958591,623.4959259000002,624.2136218999999,None,623.5128283999998,624.1968276000002,624.7143112999997,None,left,1,0.32626710000022285,624.7143112999997,None,None,623.5128283999998,624.6977514000005,0.511724600000889,0.5951966000002358,1.713530000000901,1.7968930000006367,,,,,,priya_1,001,2020_Feb_14_1207,posner,3.1.5,60.011006018583814,
-0.5,0,1,left,1,3,2,0,2,0,5,1,41,0,,,,,,,,,625.0660179000001,625.5654391000003,626.2830061999998,None,625.5822679999997,626.2663624000002,626.7836518999998,None,left,1,0.3849334999995335,626.7836518999998,None,None,625.5822679999997,626.7671214999996,0.5114997000000585,0.5949061999999685,1.7131447000001572,1.7964458000005834,,,,,,priya_1,001,2020_Feb_14_1207,posner,3.1.5,60.011006018583814,
-0.5,0,1,left,1,3,2,0,2,0,5,2,42,2,,,,,,,,,627.1851277000001,627.6849987999999,628.4028610999999,None,627.7018253000001,628.3859577999997,628.9035197999997,None,left,1,0.38507019999997283,628.9035197999997,None,None,627.7018253000001,628.8867021000001,0.5114752999998018,0.5950421999996252,1.7131773000000976,1.7966139000000112,,,,,,priya_1,001,2020_Feb_14_1207,posner,3.1.5,60.011006018583814,
0.5,180,1,right,2,4,2,0,2,0,5,3,43,5,,,,,,,,,629.3045925000001,629.8045796000001,630.5224325000004,None,629.8213701,630.5056317000003,631.0230223000003,None,right,1,0.3856427000000622,631.0230223000003,None,None,629.8213701,631.0061753000005,0.5116102000001774,0.5951757000002544,1.7131843999995908,1.7967879999996512,,,,,,priya_1,001,2020_Feb_14_1207,posner,3.1.5,60.011006018583814,
0.5,180,1,right,2,4,2,0,2,0,5,4,44,6,,,,,,,,,631.4244684,631.9243259,632.6419240999999,None,631.9410739999998,632.6252102000003,633.1425793000003,None,right,1,0.3219335999992836,633.1425793000003,None,None,631.9410739999998,633.1259814999999,0.5115568000001076,0.595018699999855,1.7131951000001209,1.796502000000146,,,,,,priya_1,001,2020_Feb_14_1207,posner,3.1.5,60.011006018583814,
-0.5,180,0,left,2,3,2,0,2,0,5,5,45,4,,,,,,,,,633.4935309999996,633.9936258000002,634.7115116,None,634.0104626999996,634.6946745999999,635.2122187,None,left,1,0.46048249999967084,635.2122187,None,None,634.0104626999996,635.1953275000001,0.5115528999995149,0.5950763999999253,1.7132407999997668,1.7970619999996416,,,,,,priya_1,001,2020_Feb_14_1207,posner,3.1.5,60.011006018583814,
0.5,0,0,right,1,4,2,0,2,0,5,6,46,3,,,,,,,,,635.6965637999997,636.1967890999999,636.9143698000003,None,636.2134922,636.8978561999998,637.4149241999999,635.6965637999997,right,1,0.34590119999938906,637.4149241999999,None,None,636.2134922,637.3985986000002,0.5115797999997085,0.5950634999999238,1.7133598000000347,1.7968689999997878,,,,,,priya_1,001,2020_Feb_14_1207,posner,3.1.5,60.011006018583814,
0.5,180,1,right,2,4,2,0,2,0,5,7,47,7,,,,,,,,,637.7834212000002,638.2829991000003,639.0005622000003,None,638.2996183999999,638.9840027000005,639.5015156000004,None,right,1,0.3631983000004766,639.5015156000004,None,None,638.2996183999999,639.4848033000003,0.5112998000004154,0.5946155000001454,1.7130919000001086,1.7968670000000202,,,,,,priya_1,001,2020_Feb_14_1207,posner,3.1.5,60.011006018583814,
0.5,180,1,right,2,4,2,0,2,0,6,0,48,5,,,,,,,,,639.8860583999999,640.3857939000004,641.1034766999996,None,640.4024780000004,641.0869017,641.6041154999998,None,right,1,0.38843660000020463,641.6041154999998,None,None,640.4024780000004,641.5876739,0.5113062000000355,0.5949280000004364,1.7131650000001173,1.7964981000004627,,,,,,priya_1,001,2020_Feb_14_1207,posner,3.1.5,60.011006018583814,
0.5,0,0,right,1,4,2,0,2,0,6,1,49,3,,,,,,,,,642.0221114000001,642.5222194000003,643.2400191000002,None,642.5388270999997,643.2233051999997,643.7405294000005,None,right,1,0.3959881000000678,643.7405294000005,None,None,642.5388270999997,643.7237682,0.5116462999994837,0.5950149999998757,1.713181999999506,1.7969752999997581,,,,,,priya_1,001,2020_Feb_14_1207,posner,3.1.5,60.011006018583814,
-0.5,180,0,left,2,3,2,0,2,0,6,2,50,4,,,,,,,,,644.1586086000002,644.6583627000005,645.3760638999997,None,644.6751857000004,645.3594349999998,645.8768260000002,None,left,1,0.3957589999999982,645.8768260000002,None,None,644.6751857000004,645.8602758000002,0.5114082999998573,0.5950003999996625,1.7132967999996254,1.796476800000164,,,,,,priya_1,001,2020_Feb_14_1207,posner,3.1.5,60.011006018583814,
-0.5,0,1,left,1,3,2,0,2,0,6,3,51,2,,,,,,,,,646.2944030000003,646.7946422999999,647.5124818999998,None,646.8114762,647.4956012999996,648.0130669000005,None,left,1,0.3554614999993646,648.0130669000005,None,None,646.8114762,647.9963445999997,0.5118338000002041,0.5955243000007613,1.7135208000008788,1.7970213000007789,,,,,,priya_1,001,2020_Feb_14_1207,posner,3.1.5,60.011006018583814,
0.5,180,1,right,2,4,2,0,2,0,6,4,52,6,,,,,,,,,648.3977239999999,648.8977005000002,649.6151676000004,None,648.9143027000005,649.5986178999997,650.1159296000001,None,right,1,0.3967377999997552,650.1159296000001,None,None,648.9143027000005,650.0993271000002,0.5116049999996903,0.5949954999996407,1.7132175999995525,1.7966072999997778,,,,,,priya_1,001,2020_Feb_14_1207,posner,3.1.5,60.011006018583814,
-0.5,0,1,left,1,3,2,0,2,0,6,5,53,0,,,,,,,,,650.5340737000001,651.0337891000004,651.7515801000004,None,651.0507647,651.7347717999996,652.2521435000003,None,left,1,0.3325070000000778,652.2521435000003,None,None,651.0507647,652.2354928999998,0.5112043999997695,0.594677999999476,1.7128908999993655,1.7963764999994964,,,,,,priya_1,001,2020_Feb_14_1207,posner,3.1.5,60.011006018583814,
-0.5,0,1,left,1,3,2,0,2,0,6,6,54,1,,,,,,,,,652.6033328999997,653.1034327000002,653.8209285999997,None,653.1200901999996,653.8043011000004,654.3219907999996,None,left,1,0.3906372999999803,654.3219907999996,None,None,653.1200901999996,654.3049935000004,0.5114073000004282,0.594866300000831,1.7129555000001346,1.7964685000006284,,,,,,priya_1,001,2020_Feb_14_1207,posner,3.1.5,60.011006018583814,
0.5,180,1,right,2,4,2,0,2,0,6,7,55,7,,,,,,,,,654.7394588000002,655.2396900999997,655.9575342000003,None,655.2563499000003,655.9408165,656.4581499999999,None,right,1,0.3184283000000505,656.4581499999999,None,None,655.2563499000003,656.4414830000001,0.512112000000343,0.5956814000001032,1.713883800000076,1.7971410000000105,,,,,,priya_1,001,2020_Feb_14_1207,posner,3.1.5,60.011006018583814,
-0.5,0,1,left,1,3,2,0,2,0,7,0,56,0,,,,,,,,,656.7923978000003,657.2925264999999,658.0101675999999,None,657.3093163999997,657.9933826000001,658.5110585999996,None,left,1,0.37741689999984374,658.5110585999996,None,None,657.3093163999997,658.4939955000004,0.511695499999405,0.5952093999994759,1.7131540000000314,1.7969079999993482,,,,,,priya_1,001,2020_Feb_14_1207,posner,3.1.5,60.011006018583814,
0.5,180,1,right,2,4,2,0,2,0,7,1,57,5,,,,,,,,,658.9119113000002,659.4120792999997,660.1297951000001,None,659.4288166000001,660.1129139,660.6305659000004,None,right,1,0.40203550000023824,660.6305659000004,None,None,659.4288166000001,660.6136281000004,0.511603500000092,0.5949639000000388,1.713144000000284,1.7967390000003434,,,,,,priya_1,001,2020_Feb_14_1207,posner,3.1.5,60.011006018583814,
-0.5,0,1,left,1,3,2,0,2,0,7,2,58,2,,,,,,,,,661.0484798000002,661.5485007000002,662.2659734000003,None,661.5654951000001,662.2492078999999,662.7665998999996,None,left,1,0.40190609999990556,662.7665998999996,None,None,661.5654951000001,662.7501500000003,0.5116220999998404,0.5948551000001316,1.7132527000003392,1.7965606999996453,,,,,,priya_1,001,2020_Feb_14_1207,posner,3.1.5,60.011006018583814,
-0.5,180,0,left,2,3,2,0,2,0,7,3,59,4,,,,,,,,,663.1841274000003,663.6846743000001,664.4024014000001,None,663.7013748000004,664.3856627,664.9031882000004,None,left,1,0.4575009999998656,664.9031882000004,None,None,663.7013748000004,664.8862596000004,0.5121480999996493,0.5957373999999618,1.7137155999998868,1.7972605999993903,,,,,,priya_1,001,2020_Feb_14_1207,posner,3.1.5,60.011006018583814,
0.5,0,0,right,1,4,2,0,2,0,7,4,60,3,,,,,,,,,665.3878640999997,665.8877257999998,666.6053457000003,None,665.9042962999997,666.5886470999999,667.1060272,665.3878640999997,right,1,0.27870939999957045,667.1060272,None,None,665.9042962999997,667.0897104999999,0.511750700000448,0.5952845000001616,1.7137136000001192,1.7967466999998578,,,,,,priya_1,001,2020_Feb_14_1207,posner,3.1.5,60.011006018583814,
-0.5,0,1,left,1,3,2,0,2,0,7,5,61,1,,,,,,,,,667.4074102999998,667.9072446000005,668.6247188000002,None,667.9238941999997,668.6082706000002,669.1255876999999,None,left,1,0.29912939999940136,669.1255876999999,None,None,667.9238941999997,669.1089378000001,0.5114693999994415,0.5948264999997264,1.7131410000001779,1.7964744000000792,,,,,,priya_1,001,2020_Feb_14_1207,posner,3.1.5,60.011006018583814,
0.5,180,1,right,2,4,2,0,2,0,7,6,62,7,,,,,,,,,669.4431878999999,669.9431307,670.6610304000001,None,669.9599414999998,670.6442228000001,671.1616779999999,None,right,1,0.3107977999998184,671.1616779999999,None,None,669.9599414999998,671.1448861000003,0.5117270000000644,0.595345400000042,1.7134640000003856,1.7969014000000243,,,,,,priya_1,001,2020_Feb_14_1207,posner,3.1.5,60.011006018583814,
0.5,180,1,right,2,4,2,0,2,0,7,7,63,6,,,,,,,,,671.4960312999997,671.9959341999997,672.7135400000002,None,672.0128797000002,672.6970364000003,673.2142724999999,None,right,1,0.4662259999995513,673.2142724999999,None,None,672.0128797000002,673.1978587999997,0.5115931999998793,0.5951567000001887,1.7134958000006009,1.7968784000004234,,,,,,priya_1,001,2020_Feb_14_1207,posner,3.1.5,60.011006018583814,
0.5,180,1,right,2,4,2,0,2,0,8,0,64,7,,,,,,,,,673.6989226000001,674.1993820000002,674.9167402999997,None,674.2158764999999,674.9002465999997,675.4176143999998,673.6989226000001,right,1,0.438981799999965,675.4176143999998,None,None,674.2158764999999,675.4009504999999,0.511956199999986,0.5951631999996607,1.7134896999996272,1.7967619000000923,,,,,,priya_1,001,2020_Feb_14_1207,posner,3.1.5,60.011006018583814,
0.5,180,1,right,2,4,2,0,2,0,8,1,65,5,,,,,,,,,675.8856431999998,676.3853978000002,677.1030968,None,676.4020883999997,677.0863414,677.6036277999997,None,right,1,0.4610048000004099,677.6036277999997,None,None,676.4020883999997,677.5872132,0.5114174000000276,0.5949135000000751,1.7132172000001447,1.7967563000001974,,,,,,priya_1,001,2020_Feb_14_1207,posner,3.1.5,60.011006018583814,
-0.5,0,1,left,1,3,2,0,2,0,8,2,66,1,,,,,,,,,678.0883238000001,678.5885325000004,679.3061509000004,None,678.6051406000001,679.2896060999997,679.8068411999998,678.0883238000001,left,1,0.3776373999999123,679.8068411999998,None,None,678.6051406000001,679.7902225000003,0.5118795999997019,0.5956237999998848,1.7135459999999512,1.7967054999999164,,,,,,priya_1,001,2020_Feb_14_1207,posner,3.1.5,60.011006018583814,
-0.5,180,0,left,2,3,2,0,2,0,8,3,67,4,,,,,,,,,680.2084290999996,680.7080848,681.4257783999997,None,680.7247057,681.4092114,681.926567,682.4105955999999,left,1,0.505963900000097,681.926567,None,None,680.7247057,681.9097517000005,0.5112863999993351,0.5948234999996203,1.7129301999993913,1.7963888999993287,,,,,,priya_1,001,2020_Feb_14_1207,posner,3.1.5,60.011006018583814,
-0.5,0,1,left,1,3,2,0,2,0,8,4,68,0,,,,,,,,,682.4610869000003,682.9612709999997,683.6790064000002,None,682.9780962999998,683.6623418000004,684.1795948000004,684.6635182000005,left,1,0.5409806999996363,684.1795948000004,None,None,682.9780962999998,684.1628561000002,0.5119401000001744,0.5953303999995114,1.7135044999995444,1.797020099999827,,,,,,priya_1,001,2020_Feb_14_1207,posner,3.1.5,60.011006018583814,
0.5,180,1,right,2,4,2,0,2,0,8,5,69,6,,,,,,,,,684.7479152000001,685.2477266000001,685.9651517999996,None,685.2642804000002,685.9487062000003,686.4659729999998,None,right,1,0.310639600000286,686.4659729999998,None,None,685.2642804000002,686.4493808000002,0.511711600000126,0.5952860999996119,1.7133450999999695,1.7966891999994914,,,,,,priya_1,001,2020_Feb_14_1207,posner,3.1.5,60.011006018583814,
-0.5,0,1,left,1,3,2,0,2,0,8,6,70,2,,,,,,,,,686.8003180999999,687.3005455999996,688.0182990999997,None,687.3174379999996,688.0015097,688.5188844999998,None,left,1,0.36960959999942133,688.5188844999998,None,None,687.3174379999996,688.5021683,0.5115537000001495,0.594713800000136,1.7131656999999905,1.7964334999996936,,,,,,priya_1,001,2020_Feb_14_1207,posner,3.1.5,60.011006018583814,
0.5,0,0,right,1,4,2,0,2,0,8,7,71,3,,,,,,,,,688.9200292,689.4201877,690.1377152,None,689.4369873999999,690.1211676999997,690.6384988000004,None,right,1,0.36991149999994377,690.6384988000004,None,None,689.4369873999999,690.6218101,0.5114581999996517,0.5947556000000986,1.713070499999958,1.7963159999999334,,,,,,priya_1,001,2020_Feb_14_1207,posner,3.1.5,60.011006018583814,
