targetX,cueOri,congr,corrAns,pin_cue,pin_target,block.thisRepN,block.thisTrialN,block.thisN,block.thisIndex,posner_task.thisRepN,posner_task.thisTrialN,posner_task.thisN,posner_task.thisIndex,port_start_block.started,port_start_block.stopped,text_2.started,text_2.stopped,p_port.started,p_port.stopped,text.started,text.stopped,fixation_1.started,fixation_1.stopped,fixation_2.started,fixation_2.stopped,cue.started,cue.stopped,target.started,target.stopped,correct_key_resp.keys,correct_key_resp.corr,correct_key_resp.rt,correct_key_resp.started,correct_key_resp.stopped,early_resp.keys,early_resp.started,early_resp.stopped,trigger_cue.started,trigger_cue.stopped,trigger_target.started,trigger_target.stopped,break_text.started,break_text.stopped,end_port.started,end_port.stopped,participant,session,date,expName,psychopyVersion,frameRate,
-0.5,0,1,left,1,3,0,0,0,0,0,0,0,2,1.6699999832781032e-05,0.09366699999964112,17.348916499999632,None,1.3900000340072438e-05,0.09959340000023076,19.23457589999998,None,19.56794429999991,20.069225599999754,20.786742799999956,None,20.086126599999716,20.77028539999992,21.287412700000004,None,left,1,0.3212226999999075,21.287412700000004,None,None,20.086126599999716,21.27079139999978,0.510390500000085,0.5937322999998287,1.7119505000000572,1.7955077000001438,,,,,anne_2,001,2020_Feb_10_1233,posner,3.1.5,59.90664148999604,
0.5,180,1,right,2,4,0,0,0,0,0,1,1,5,,,,,,,,,21.638566099999935,22.138616999999613,22.856464199999664,None,22.15544799999998,22.83955339999966,23.35693739999988,None,right,1,0.4037025000002359,23.35693739999988,None,None,22.15544799999998,23.340239599999677,0.5106768999999076,0.5940580000001319,1.7122816999999486,1.7957710999999108,,,,,anne_2,001,2020_Feb_10_1233,posner,3.1.5,59.90664148999604,
0.5,0,0,right,1,4,0,0,0,0,0,2,2,3,,,,,,,,,23.791450999999597,24.29171959999985,25.009329499999694,None,24.308233599999767,24.992601499999637,25.510155999999824,None,right,1,0.3784903000000668,25.510155999999824,None,None,24.308233599999767,25.493326799999977,0.5117267000000538,0.5950157000002037,1.7133192000001145,1.7965389999999388,,,,,anne_2,001,2020_Feb_10_1233,posner,3.1.5,59.90664148999604,
-0.5,0,1,left,1,3,0,0,0,0,0,3,3,1,,,,,,,,,25.911698499999602,26.411440299999867,27.128828299999896,None,26.427881799999795,27.112189399999806,27.629633499999727,None,left,1,0.29907460000003994,27.629633499999727,None,None,26.427881799999795,27.612785299999814,0.5115793000004487,0.5948221000003286,1.712905800000044,1.7962753000001612,,,,,anne_2,001,2020_Feb_10_1233,posner,3.1.5,59.90664148999604,
0.5,180,1,right,2,4,0,0,0,0,0,4,4,7,,,,,,,,,27.947831399999814,28.447291399999813,29.165132399999948,None,28.464197399999648,29.148193199999696,29.665791199999603,None,right,1,0.28687889999991967,29.665791199999603,None,None,28.464197399999648,29.64888189999965,0.5110966000002009,0.5945446000000629,1.7126650999998674,1.796247300000232,,,,,anne_2,001,2020_Feb_10_1233,posner,3.1.5,59.90664148999604,
-0.5,0,1,left,1,3,0,0,0,0,0,5,5,0,,,,,,,,,29.98336769999969,30.48339539999961,31.20117540000001,None,30.50035379999963,31.184517400000004,31.70174139999972,None,left,1,0.41083670000034545,31.70174139999972,None,None,30.50035379999963,31.685228800000004,0.5116861000001336,0.5949617000001126,1.7134964000001673,1.7966875000001892,,,,,anne_2,001,2020_Feb_10_1233,posner,3.1.5,59.90664148999604,
0.5,180,1,right,2,4,0,0,0,0,0,6,6,6,,,,,,,,,32.13638899999978,32.636945699999615,33.35425549999991,None,32.65387009999995,33.33733429999984,33.85476259999996,None,right,1,0.33780560000013793,33.85476259999996,None,None,32.65387009999995,33.83817979999958,0.512198399999761,0.5955992999997761,1.7134132000001046,1.7967247999999927,,,,,anne_2,001,2020_Feb_10_1233,posner,3.1.5,59.90664148999604,
-0.5,180,0,left,2,3,0,0,0,0,0,7,7,4,,,,,,,,,34.22257239999999,34.722512800000004,35.44029499999988,None,34.73933159999979,35.42355449999968,35.9409585999997,None,left,1,0.44364679999989676,35.9409585999997,None,None,34.73933159999979,35.92445459999999,0.5113464000000931,0.5948865999998816,1.7132650999997168,1.7965933000000405,,,,,anne_2,001,2020_Feb_10_1233,posner,3.1.5,59.90664148999604,
-0.5,0,1,left,1,3,0,0,0,0,1,0,8,1,,,,,,,,,36.408854399999655,36.90897649999988,37.626568099999986,None,36.92592109999987,37.609939999999824,38.1272798,None,left,1,0.46533839999983684,38.1272798,None,None,36.92592109999987,38.110703999999714,0.5116222999999991,0.5950827000001482,1.7133256000001893,1.7967067999998108,,,,,anne_2,001,2020_Feb_10_1233,posner,3.1.5,59.90664148999604,
0.5,180,1,right,2,4,0,0,0,0,1,1,9,7,,,,,,,,,38.61224829999992,39.11231399999997,39.829777999999806,None,39.12869509999973,39.813073799999984,40.33032309999999,38.61224829999992,right,1,0.38233009999976275,40.33032309999999,None,None,39.12869509999973,40.31372119999969,0.511587899999995,0.595024199999898,1.712973300000158,1.796185400000013,,,,,anne_2,001,2020_Feb_10_1233,posner,3.1.5,59.90664148999604,
0.5,180,1,right,2,4,0,0,0,0,1,2,10,5,,,,,,,,,40.73212399999966,41.2316452,41.94912179999983,None,41.24827429999959,41.93248969999968,42.449909299999945,42.93399899999986,right,1,0.5747013000000152,42.449909299999945,None,None,41.24827429999959,42.43335219999972,0.5113031000000774,0.5946096000002399,1.7129925000003823,1.7961942000001727,,,,,anne_2,001,2020_Feb_10_1233,posner,3.1.5,59.90664148999604,
-0.5,180,0,left,2,3,0,0,0,0,1,3,11,4,,,,,,,,,43.05188309999994,43.551776699999664,44.2690834,None,43.56826060000003,44.2524841999998,44.77001979999977,None,left,1,0.4306154000000788,44.77001979999977,None,None,43.56826060000003,44.75327939999988,0.511764200000016,0.5948952999997346,1.713249800000085,1.7964547999999922,,,,,anne_2,001,2020_Feb_10_1233,posner,3.1.5,59.90664148999604,
-0.5,0,1,left,1,3,0,0,0,0,1,4,12,0,,,,,,,,,45.22131300000001,45.72105309999961,46.43869399999994,None,45.73778779999975,46.42217739999978,46.939406099999815,47.423389699999916,left,1,0.4771192000002884,46.939406099999815,None,None,45.73778779999975,46.922815199999604,0.5112812000002123,0.5949472000002061,1.7130184000002373,1.7966949000001478,,,,,anne_2,001,2020_Feb_10_1233,posner,3.1.5,59.90664148999604,
0.5,0,0,right,1,4,0,0,0,0,1,5,13,3,,,,,,,,,47.44066369999973,47.94089219999978,48.658343599999625,None,47.95758889999979,48.64186039999959,49.159117700000024,None,right,1,0.41782929999999396,49.159117700000024,None,None,47.95758889999979,49.1424192999998,0.5118118000000322,0.5952689999999166,1.7133138999997755,1.7968603999997868,,,,,anne_2,001,2020_Feb_10_1233,posner,3.1.5,59.90664148999604,
-0.5,0,1,left,1,3,0,0,0,0,1,6,14,2,,,,,,,,,49.593726499999775,50.09375269999964,50.81151789999967,None,50.11058000000003,50.79481119999991,51.31215399999974,None,left,1,0.3763891000003241,51.31215399999974,None,None,50.11058000000003,51.29545059999964,0.5118013999999675,0.5953219000002719,1.713477199999943,1.7969581000002108,,,,,anne_2,001,2020_Feb_10_1233,posner,3.1.5,59.90664148999604,
0.5,180,1,right,2,4,0,0,0,0,1,7,15,6,,,,,,,,,51.713067599999704,52.21334569999999,52.93095489999996,None,52.230079999999816,52.914680399999725,53.431772999999794,None,right,1,0.27287740000019767,53.431772999999794,None,None,52.230079999999816,53.41521789999979,0.5119541999997637,0.5953534000000218,1.7138119999999617,1.7970503999999892,,,,,anne_2,001,2020_Feb_10_1233,posner,3.1.5,59.90664148999604,
0.5,180,1,right,2,4,0,0,0,0,2,0,16,5,,,,,,,,,53.73296349999964,54.232839199999944,54.95044619999999,None,54.24941409999974,54.93369959999973,55.45128839999961,None,right,1,0.4052868999997372,55.45128839999961,None,None,54.24941409999974,55.43456109999988,0.5115095999999539,0.5947830999998587,1.7132176000000072,1.7964907000000494,,,,,anne_2,001,2020_Feb_10_1233,posner,3.1.5,59.90664148999604,
0.5,180,1,right,2,4,0,0,0,0,2,1,17,6,,,,,,,,,55.88574129999961,56.385834799999884,57.10360149999997,None,56.40252919999966,57.086739699999725,57.604241399999864,None,right,1,0.41223149999996167,57.604241399999864,None,None,56.40252919999966,57.58735449999995,0.5116410000000542,0.5949166000000332,1.7131476999998085,1.7967649000001984,,,,,anne_2,001,2020_Feb_10_1233,posner,3.1.5,59.90664148999604,
-0.5,0,1,left,1,3,0,0,0,0,2,2,18,1,,,,,,,,,58.03910159999987,58.53868590000002,59.25649769999973,None,58.5554204,59.239597199999935,59.75721039999962,None,left,1,0.4432772999998633,59.75721039999962,None,None,58.5554204,59.7403061,0.5113898999998128,0.5947676000000683,1.7129958000000443,1.796614999999747,,,,,anne_2,001,2020_Feb_10_1233,posner,3.1.5,59.90664148999604,
-0.5,0,1,left,1,3,0,0,0,0,2,3,19,0,,,,,,,,,60.22647819999975,60.725207299999965,61.44273899999962,None,60.74163019999969,61.42608599999994,61.94343589999971,None,left,1,0.4491184000003159,61.94343589999971,None,None,60.74163019999969,61.92679419999968,0.5104928000000655,0.5937020999999731,1.7120646999997007,1.7955156999996689,,,,,anne_2,001,2020_Feb_10_1233,posner,3.1.5,59.90664148999604,
0.5,180,1,right,2,4,0,0,0,0,2,4,20,7,,,,,,,,,62.41201699999965,62.91199289999986,63.62901039999997,None,62.92815350000001,63.612302799999725,64.1300882999999,None,right,1,0.3424227000000428,64.1300882999999,None,None,62.92815350000001,64.11312299999963,0.5119461000003867,0.5947923000003357,1.713061800000105,1.7963375000003907,,,,,anne_2,001,2020_Feb_10_1233,posner,3.1.5,59.90664148999604,
-0.5,0,1,left,1,3,0,0,0,0,2,5,21,2,,,,,,,,,64.49752599999965,64.99747499999967,65.71537379999972,None,65.01441539999996,65.69864609999968,66.21586479999996,None,left,1,0.4086245000003146,66.21586479999996,None,None,65.01441539999996,66.1993037999996,0.511580899999899,0.595116699999835,1.7133955999997852,1.7968249999998989,,,,,anne_2,001,2020_Feb_10_1233,posner,3.1.5,59.90664148999604,
0.5,0,0,right,1,4,0,0,0,0,2,6,22,3,,,,,,,,,66.65026369999987,67.1508617999998,67.86812129999998,None,67.16722389999995,67.85153619999983,68.36893719999989,68.85314900000003,right,1,0.4957807999999204,68.36893719999989,None,None,67.16722389999995,68.35235419999981,0.5125050999999985,0.595659500000238,1.7139821999999185,1.797274500000185,,,,,anne_2,001,2020_Feb_10_1233,posner,3.1.5,59.90664148999604,
-0.5,180,0,left,2,3,0,0,0,0,2,7,23,4,,,,,,,,,68.88641479999978,69.38680879999993,70.10454849999996,None,69.40376119999974,70.08798579999984,70.60551639999994,None,left,1,0.38690550000001167,70.60551639999994,None,None,69.40376119999974,70.5887260999998,0.51176039999973,0.5954850999996779,1.713660599999912,1.7970470999998724,,,,,anne_2,001,2020_Feb_10_1233,posner,3.1.5,59.90664148999604,
-0.5,180,0,left,2,3,0,0,0,0,3,0,24,4,,,,,,,,,71.02286029999959,71.52346709999983,72.24096729999974,None,71.54028589999962,72.22416329999987,72.74157439999999,73.22555659999989,left,1,0.5148517000002357,72.74157439999999,None,None,71.54028589999962,72.72500300000002,0.5120704000000842,0.5951979999999821,1.713590600000316,1.7969929000000775,,,,,anne_2,001,2020_Feb_10_1233,posner,3.1.5,59.90664148999604,
-0.5,0,1,left,1,3,0,0,0,0,3,1,25,1,,,,,,,,,73.2765016999997,73.77626250000003,74.49412429999984,None,73.7932036999996,74.47726859999966,74.99466949999987,75.47875029999977,left,1,0.5337816999999632,74.99466949999987,None,None,73.7932036999996,74.97805629999993,0.5114664000002449,0.5948960000000625,1.713237900000422,1.7966903000001366,,,,,anne_2,001,2020_Feb_10_1233,posner,3.1.5,59.90664148999604,
-0.5,0,1,left,1,3,0,0,0,0,3,2,26,2,,,,,,,,,75.5463550999998,76.0462407,76.76374439999972,None,76.06289909999987,76.7471071,77.26466619999974,None,left,1,0.42397410000012314,77.26466619999974,None,None,76.06289909999987,77.24779659999967,0.5116093999999975,0.5950297999997929,1.7131491999998616,1.7966261999999915,,,,,anne_2,001,2020_Feb_10_1233,posner,3.1.5,59.90664148999604,
0.5,180,1,right,2,4,0,0,0,0,3,3,27,6,,,,,,,,,77.71575359999997,78.21571909999966,78.93349909999961,None,78.23256319999973,78.91699749999998,79.43415679999998,None,right,1,0.4063568999999916,79.43415679999998,None,None,78.23256319999973,79.4174423999998,0.5116093000001456,0.5950819999998203,1.713297799999964,1.796757499999785,,,,,anne_2,001,2020_Feb_10_1233,posner,3.1.5,59.90664148999604,
0.5,0,0,right,1,4,0,0,0,0,3,4,28,3,,,,,,,,,79.86839869999994,80.36876050000001,81.0862675999997,None,80.38557319999973,81.0697826999999,81.58700009999984,82.07113489999983,right,1,0.5895502999997007,81.58700009999984,None,None,80.38557319999973,81.5704896999996,0.5123028000002705,0.5957814000003054,1.7140033999999105,1.797454700000344,,,,,anne_2,001,2020_Feb_10_1233,posner,3.1.5,59.90664148999604,
0.5,180,1,right,2,4,0,0,0,0,3,5,29,7,,,,,,,,,82.20562419999987,82.70546909999985,83.42300749999958,None,82.72207729999991,83.40626699999984,83.9237091,None,right,1,0.36481599999979153,83.9237091,None,None,82.72207729999991,83.90694349999967,0.5116336000000956,0.5949571999999534,1.7130941999998868,1.7966130999998313,,,,,anne_2,001,2020_Feb_10_1233,posner,3.1.5,59.90664148999604,
0.5,180,1,right,2,4,0,0,0,0,3,6,30,5,,,,,,,,,84.30873769999971,84.8081560999999,85.52578629999971,None,84.82505300000003,85.5090782999996,86.02656479999996,None,right,1,0.3818951999996898,86.02656479999996,None,None,84.82505300000003,86.01001139999971,0.5112782000001062,0.5946201000001565,1.7131092000004173,1.7964349000003494,,,,,anne_2,001,2020_Feb_10_1233,posner,3.1.5,59.90664148999604,
-0.5,0,1,left,1,3,0,0,0,0,3,7,31,0,,,,,,,,,86.4288048999997,86.92778120000003,87.64552779999985,None,86.94450879999977,87.62873319999971,88.14606109999977,None,left,1,0.39834560000008423,88.14606109999977,None,None,86.94450879999977,88.12943949999999,0.5109430000002249,0.5943497000002935,1.7125950000004195,1.796046700000261,,,,,anne_2,001,2020_Feb_10_1233,posner,3.1.5,59.90664148999604,
0.5,180,1,right,2,4,0,0,0,0,4,0,32,5,,,,,,,,,88.56396229999973,89.06409539999959,89.78163929999982,None,89.08066169999984,89.76505609999958,90.2824271999998,None,right,1,0.3740809000000809,90.2824271999998,None,None,89.08066169999984,90.2655265999997,0.5115838000001531,0.594944000000396,1.7130013000000872,1.7964659000003849,,,,,anne_2,001,2020_Feb_10_1233,posner,3.1.5,59.90664148999604,
-0.5,0,1,left,1,3,0,0,0,0,4,1,33,1,,,,,,,,,90.68377409999994,91.18374779999976,91.90123109999968,None,91.20030099999985,91.8848111999996,92.40209429999959,None,left,1,0.4143301999997675,92.40209429999959,None,None,91.20030099999985,92.38528939999969,0.5116533000000345,0.5948554999999942,1.713175500000034,1.796499799999765,,,,,anne_2,001,2020_Feb_10_1233,posner,3.1.5,59.90664148999604,
-0.5,0,1,left,1,3,0,0,0,0,4,2,34,2,,,,,,,,,92.83660639999971,93.33654969999998,94.05446489999986,None,93.35318289999987,94.03751469999997,94.55502499999966,95.03891539999995,left,1,0.7413408000002164,94.55502499999966,None,None,93.35318289999987,94.5383711999998,0.5112487000001238,0.5947424999999384,1.7130498000001353,1.7964642000001732,,,,,anne_2,001,2020_Feb_10_1233,posner,3.1.5,59.90664148999604,
0.5,180,1,right,2,4,0,0,0,0,4,3,35,7,,,,,,,,,95.32332659999975,95.82350029999998,96.54097319999983,None,95.83997559999989,96.52442859999974,97.04181139999992,None,right,1,0.25451950000024226,97.04181139999992,None,None,95.83997559999989,97.0249560999996,0.5116753000002063,0.5949218000000656,1.7131170000002385,1.7964544999999816,,,,,anne_2,001,2020_Feb_10_1233,posner,3.1.5,59.90664148999604,
0.5,180,1,right,2,4,0,0,0,0,4,4,36,6,,,,,,,,,97.32591839999986,97.82603440000003,98.54373739999983,None,97.84278389999963,98.52701669999988,99.04435109999986,None,right,1,0.3159967999999935,99.04435109999986,None,None,97.84278389999963,99.02760949999993,0.5115584999998646,0.595274100000097,1.7131147000000055,1.796625899999981,,,,,anne_2,001,2020_Feb_10_1233,posner,3.1.5,59.90664148999604,
-0.5,180,0,left,2,3,0,0,0,0,4,5,37,4,,,,,,,,,99.37883620000002,99.8789084,100.59640589999981,None,99.89575269999978,100.5799063999998,101.09720089999973,101.58121829999982,left,1,0.4710801999999603,101.09720089999973,None,None,99.89575269999978,101.08057529999996,0.5115277999998398,0.594994399999905,1.713159800000085,1.7967383999998674,,,,,anne_2,001,2020_Feb_10_1233,posner,3.1.5,59.90664148999604,
-0.5,0,1,left,1,3,0,0,0,0,4,6,38,0,,,,,,,,,101.59860909999998,102.09863559999985,102.8162957999998,None,102.11536409999962,102.79960489999985,103.31709019999971,None,left,1,0.36320260000002236,103.31709019999971,None,None,102.11536409999962,103.30039109999962,0.511716499999693,0.5952182999999422,1.713449199999559,1.7967632999998386,,,,,anne_2,001,2020_Feb_10_1233,posner,3.1.5,59.90664148999604,
0.5,0,0,right,1,4,0,0,0,0,4,7,39,3,,,,,,,,,103.70153469999968,104.20174729999962,104.91904889999978,None,104.21822839999959,104.90250139999989,105.4199593999997,None,right,1,0.4123090999996748,105.4199593999997,None,None,104.21822839999959,105.40341899999976,0.5117081999997026,0.5950828999998521,1.7133599999997386,1.7964626999996653,,,,,anne_2,001,2020_Feb_10_1233,posner,3.1.5,59.90664148999604,
0.5,0,0,right,1,4,0,0,0,0,5,0,40,3,,,,,,,,,105.8545095999998,106.35457129999986,107.0722722999999,None,106.37130660000003,107.05543209999996,107.57274329999973,None,right,1,0.3874841000001652,107.57274329999973,None,None,106.37130660000003,107.55616039999995,0.5115529000004244,0.5947771000001012,1.713122900000144,1.7965533999999934,,,,,anne_2,001,2020_Feb_10_1233,posner,3.1.5,59.90664148999604,
0.5,180,1,right,2,4,0,0,0,0,5,1,41,6,,,,,,,,,107.99083239999982,108.49080839999988,109.20842059999995,None,108.50751999999966,109.19169939999983,109.70912529999987,110.19321659999969,right,1,0.499232099999972,109.70912529999987,None,None,108.50751999999966,109.69237679999969,0.5115026000003127,0.5949422000003324,1.713056300000062,1.7966544999999314,,,,,anne_2,001,2020_Feb_10_1233,posner,3.1.5,59.90664148999604,
-0.5,0,1,left,1,3,0,0,0,0,5,2,42,0,,,,,,,,,110.22673099999975,110.72709299999997,111.44502509999984,None,110.74408299999959,111.42823369999996,111.94553509999969,None,left,1,0.41475179999997636,111.94553509999969,None,None,110.74408299999959,111.92879069999981,0.5121298999997634,0.5957138999997369,1.7138488999999026,1.7973269999997683,,,,,anne_2,001,2020_Feb_10_1233,posner,3.1.5,59.90664148999604,
0.5,180,1,right,2,4,0,0,0,0,5,3,43,7,,,,,,,,,112.38070739999966,112.88028029999987,113.59775739999986,None,112.89672329999985,113.58106039999984,114.09856899999977,None,right,1,0.4216915000001791,114.09856899999977,None,None,112.89672329999985,114.08178649999991,0.5116914999998698,0.5950811999996404,1.713177899999664,1.7965903999997863,,,,,anne_2,001,2020_Feb_10_1233,posner,3.1.5,59.90664148999604,
-0.5,0,1,left,1,3,0,0,0,0,5,4,44,2,,,,,,,,,114.54951429999983,115.04974249999987,115.76733799999965,None,115.06637439999986,115.75084819999984,116.26793369999996,None,left,1,0.3564739999997073,116.26793369999996,None,None,115.06637439999986,116.25145519999978,0.5116401000000224,0.5951540999999452,1.7133451999998215,1.7969582000000628,,,,,anne_2,001,2020_Feb_10_1233,posner,3.1.5,59.90664148999604,
-0.5,0,1,left,1,3,0,0,0,0,5,5,45,1,,,,,,,,,116.65274509999972,117.15265979999958,117.87045489999991,None,117.16939969999976,117.85376629999973,118.37104579999959,None,left,1,0.30119749999994383,118.37104579999959,None,None,117.16939969999976,118.35449059999974,0.5115977000000385,0.5948604000000159,1.7134056999998393,1.7966741999998703,,,,,anne_2,001,2020_Feb_10_1233,posner,3.1.5,59.90664148999604,
-0.5,180,0,left,2,3,0,0,0,0,5,6,46,4,,,,,,,,,118.68878789999962,119.18872329999977,119.90644959999963,None,119.20570239999961,119.8899322999996,120.40707229999998,120.89130639999985,left,1,0.4812576000003901,120.40707229999998,None,None,119.20570239999961,120.39065199999959,0.5115202000001773,0.5950616999998601,1.7134243999998944,1.7966557999998258,,,,,anne_2,001,2020_Feb_10_1233,posner,3.1.5,59.90664148999604,
0.5,180,1,right,2,4,0,0,0,0,5,7,47,5,,,,,,,,,120.90884599999981,121.40848399999959,122.12601239999958,None,121.4253260999999,122.10950969999976,122.62685489999967,None,right,1,0.44544889999997395,122.62685489999967,None,None,121.4253260999999,122.61023249999971,0.5114694999997482,0.5948545999999624,1.7131948999999622,1.7966722000001027,,,,,anne_2,001,2020_Feb_10_1233,posner,3.1.5,59.90664148999604,
0.5,180,1,right,2,4,0,0,0,0,6,0,48,7,,,,,,,,,123.0949569999998,123.59510089999958,124.31274519999988,None,123.61158069999965,124.29575469999963,124.81339059999982,125.2971794,right,1,0.47483839999995325,124.81339059999982,None,None,123.61158069999965,124.79650189999984,0.5118572000001222,0.5950043000002552,1.7132442000001902,1.7968399000001227,,,,,anne_2,001,2020_Feb_10_1233,posner,3.1.5,59.90664148999604,
0.5,180,1,right,2,4,0,0,0,0,6,1,49,6,,,,,,,,,125.31476509999993,125.81479589999981,126.53216389999989,None,125.83121379999966,126.51549469999964,127.03302329999997,127.51686569999993,right,1,0.5352766999999403,127.03302329999997,None,None,125.83121379999966,127.01613759999964,0.5118308999999499,0.5951454999999441,1.713153499999862,1.7968369999998686,,,,,anne_2,001,2020_Feb_10_1233,posner,3.1.5,59.90664148999604,
-0.5,0,1,left,1,3,0,0,0,0,6,2,50,0,,,,,,,,,127.58445709999978,128.08449139999993,128.80217399999992,None,128.10121839999965,128.78552789999958,129.3028959999997,None,left,1,0.34526580000010654,129.3028959999997,None,None,128.10121839999965,129.2859137999999,0.511781400000018,0.5951062999997703,1.7131899000000885,1.7967972999999802,,,,,anne_2,001,2020_Feb_10_1233,posner,3.1.5,59.90664148999604,
-0.5,0,1,left,1,3,0,0,0,0,6,3,51,1,,,,,,,,,129.67097160000003,130.1706237999997,130.88809449999962,None,130.18706809999958,130.87162799999987,131.38889119999976,None,left,1,0.4113454000003003,131.38889119999976,None,None,130.18706809999958,131.3720911999999,0.5113698000000113,0.5948223000000326,1.7128209000002244,1.796537900000203,,,,,anne_2,001,2020_Feb_10_1233,posner,3.1.5,59.90664148999604,
0.5,180,1,right,2,4,0,0,0,0,6,4,52,5,,,,,,,,,131.82364549999966,132.3236463999997,133.04116459999977,None,132.3403873999996,133.02457800000002,133.54206999999997,None,right,1,0.298133499999949,133.54206999999997,None,None,132.3403873999996,133.52512989999968,0.5116194000001997,0.5950039000003926,1.7130885999999919,1.7964898000000176,,,,,anne_2,001,2020_Feb_10_1233,posner,3.1.5,59.90664148999604,
-0.5,0,1,left,1,3,0,0,0,0,6,5,53,2,,,,,,,,,133.86014979999982,134.35964739999963,135.0772146999998,None,134.3762939999997,135.06062699999984,135.5781032,None,left,1,0.36613360000001194,135.5781032,None,None,134.3762939999997,135.56144519999998,0.5113384999999653,0.5947900999999547,1.7131116999998994,1.7966277999998965,,,,,anne_2,001,2020_Feb_10_1233,posner,3.1.5,59.90664148999604,
0.5,0,0,right,1,4,0,0,0,0,6,6,54,3,,,,,,,,,135.96277859999964,136.46275449999985,137.1803903,None,136.47929619999968,137.16372759999967,137.6810591999997,138.16509629999973,right,1,0.47910129999991113,137.6810591999997,None,None,136.47929619999968,137.6643296999996,0.511374700000033,0.5944789000000128,1.712932699999783,1.7961535999997977,,,,,anne_2,001,2020_Feb_10_1233,posner,3.1.5,59.90664148999604,
-0.5,180,0,left,2,3,0,0,0,0,6,7,55,4,,,,,,,,,138.18235399999958,138.6822745999998,139.40001279999979,None,138.69899369999985,139.3833193999999,139.90066509999997,None,left,1,0.4117207999997845,139.90066509999997,None,None,138.69899369999985,139.8841081999999,0.5113971000000674,0.5947971999999027,1.713211400000091,1.796416600000157,,,,,anne_2,001,2020_Feb_10_1233,posner,3.1.5,59.90664148999604,
0.5,180,1,right,2,4,0,0,0,0,7,0,56,7,,,,,,,,,140.3350862999996,140.83547849999968,141.55297629999995,None,140.85196009999981,141.5361195999999,142.05371339999965,None,right,1,0.3624442000000272,142.05371339999965,None,None,140.85196009999981,142.03683079999973,0.5119776999999885,0.5951038999996854,1.7133148999996592,1.7969356999997217,,,,,anne_2,001,2020_Feb_10_1233,posner,3.1.5,59.90664148999604,
0.5,0,0,right,1,4,0,0,0,0,7,1,57,3,,,,,,,,,142.43816070000003,142.93815629999972,143.65584229999968,None,142.9549960999998,143.63908899999979,144.1563710999999,None,right,1,0.4357447000002139,144.1563710999999,None,None,142.9549960999998,144.13978659999975,0.5114965000002485,0.5949884999999995,1.7131159999999,1.7966363999998975,,,,,anne_2,001,2020_Feb_10_1233,posner,3.1.5,59.90664148999604,
0.5,180,1,right,2,4,0,0,0,0,7,2,58,5,,,,,,,,,144.60780279999972,145.10779299999967,145.82554609999988,None,145.12464920000002,145.80937939999967,146.32602169999973,None,right,1,0.39407919999985097,146.32602169999973,None,None,145.12464920000002,146.30954069999962,0.5116267000003063,0.5950517000001128,1.7133499000001393,1.7966071000000738,,,,,anne_2,001,2020_Feb_10_1233,posner,3.1.5,59.90664148999604,
-0.5,0,1,left,1,3,0,0,0,0,7,3,59,1,,,,,,,,,146.74412510000002,147.24417829999993,147.96171209999966,None,147.26089269999966,147.9452096,148.46249009999974,None,left,1,0.39364309999973557,148.46249009999974,None,None,147.26089269999966,148.44560899999988,0.5118026999998619,0.595035999999709,1.7132188000000497,1.796829500000058,,,,,anne_2,001,2020_Feb_10_1233,posner,3.1.5,59.90664148999604,
0.5,180,1,right,2,4,0,0,0,0,7,4,60,6,,,,,,,,,148.87981969999964,149.38022069999988,150.0980209999998,None,149.3969460999997,150.08136879999984,150.59857459999967,None,right,1,0.3855695000002015,150.59857459999967,None,None,149.3969460999997,150.58208319999994,0.512284500000078,0.5960942000001523,1.7141234000000622,1.7975147000001925,,,,,anne_2,001,2020_Feb_10_1233,posner,3.1.5,59.90664148999604,
-0.5,180,0,left,2,3,0,0,0,0,7,5,61,4,,,,,,,,,150.9999482999997,151.4998271999998,152.21739239999988,None,151.51645869999993,152.20091729999967,152.71809369999983,None,left,1,0.44192160000011427,152.71809369999983,None,None,151.51645869999993,152.70168539999986,0.5118364999998448,0.5953706999998758,1.7136689999997543,1.7969395000000077,,,,,anne_2,001,2020_Feb_10_1233,posner,3.1.5,59.90664148999604,
-0.5,0,1,left,1,3,0,0,0,0,7,6,62,2,,,,,,,,,153.18620729999975,153.68616509999993,154.40417899999966,None,153.70302429999992,154.38704659999985,154.90479549999964,155.38860109999996,left,1,0.47131050000007235,154.90479549999964,None,None,153.70302429999992,154.8878795999999,0.511535300000105,0.5951507999998285,1.713232799999787,1.796643899999708,,,,,anne_2,001,2020_Feb_10_1233,posner,3.1.5,59.90664148999604,
-0.5,0,1,left,1,3,0,0,0,0,7,7,63,0,,,,,,,,,155.4058759999998,155.90593669999998,156.62373359999992,None,155.9228191999996,156.60688059999984,157.12442669999973,157.6083266999999,left,1,0.5157318000001396,157.12442669999973,None,None,155.9228191999996,157.10754589999988,0.511582499999804,0.5952962999999727,1.7131727999999384,1.7966455000000678,,,,,anne_2,001,2020_Feb_10_1233,posner,3.1.5,59.90664148999604,
0.5,180,1,right,2,4,0,0,0,0,8,0,64,5,,,,,,,,,157.65944659999968,158.15918219999958,158.87669069999993,None,158.17577889999984,158.8600360999999,159.37735159999966,None,right,1,0.3988524999999754,159.37735159999966,None,None,158.17577889999984,159.36083009999993,0.511678800000027,0.5951021999999284,1.7133077999997113,1.7966662999997425,,,,,anne_2,001,2020_Feb_10_1233,posner,3.1.5,59.90664148999604,
0.5,180,1,right,2,4,0,0,0,0,8,1,65,6,,,,,,,,,159.79554280000002,160.29550319999998,161.0131462999998,None,160.31194049999976,160.9963416999999,161.51373049999984,None,right,1,0.390427599999839,161.51373049999984,None,None,160.31194049999976,161.4972515999998,0.5116726000001108,0.5950596000002406,1.7134181000001263,1.7967091999998956,,,,,anne_2,001,2020_Feb_10_1233,posner,3.1.5,59.90664148999604,
0.5,0,0,right,1,4,0,0,0,0,8,2,66,3,,,,,,,,,161.93241689999968,162.43182249999973,163.1494034999996,None,162.44825709999986,163.1327008999997,163.65003009999964,None,right,1,0.45400340000014694,163.65003009999964,None,None,162.44825709999986,163.63324489999968,0.5114975000001323,0.5946660000004158,1.7128936000003705,1.796259000000191,,,,,anne_2,001,2020_Feb_10_1233,posner,3.1.5,59.90664148999604,
-0.5,0,1,left,1,3,0,0,0,0,8,3,67,2,,,,,,,,,164.13460889999988,164.63481759999968,165.35259319999977,None,164.6512029999999,165.33556299999964,165.8531753999996,164.13460889999988,left,1,0.378834900000129,165.8531753999996,None,None,164.6512029999999,165.83622539999988,0.5116647999998349,0.5948837000000822,1.7130584000001363,1.796634499999982,,,,,anne_2,001,2020_Feb_10_1233,posner,3.1.5,59.90664148999604,
0.5,180,1,right,2,4,0,0,0,0,8,4,68,7,,,,,,,,,166.25428169999986,166.75425959999984,167.4719144999999,None,166.77088139999978,167.4552467999997,167.97255499999983,None,right,1,0.3155706000002283,167.97255499999983,None,None,166.77088139999978,167.9558847999997,0.511647300000277,0.5950098000002981,1.7132556999999906,1.7967461000002913,,,,,anne_2,001,2020_Feb_10_1233,posner,3.1.5,59.90664148999604,
-0.5,0,1,left,1,3,0,0,0,0,8,5,69,1,,,,,,,,,168.3072775999999,168.8070677999999,169.52483940000002,None,168.82383359999994,169.5080614999997,170.02528489999986,None,left,1,0.2949247000001378,170.02528489999986,None,None,168.82383359999994,170.0087140999999,0.51156519999995,0.5951657999999043,1.7132289999999557,1.7965470999997706,,,,,anne_2,001,2020_Feb_10_1233,posner,3.1.5,59.90664148999604,
-0.5,0,1,left,1,3,0,0,0,0,8,6,70,0,,,,,,,,,170.3428515999999,170.8432429999998,171.5609669999999,None,170.85984839999992,171.544214,172.06158819999973,None,left,1,0.40244080000002214,172.06158819999973,None,None,170.85984839999992,172.04486459999998,0.5118946000002325,0.59524810000039,1.7134936000002199,1.7968826000001172,,,,,anne_2,001,2020_Feb_10_1233,posner,3.1.5,59.90664148999604,
-0.5,180,0,left,2,3,0,0,0,0,8,7,71,4,,,,,,,,,172.47973649999994,172.97951189999958,173.69705939999994,None,172.99603979999983,173.68059829999993,174.1978098999998,174.68198089999987,left,1,0.47430300000041825,174.1978098999998,None,None,172.99603979999983,174.18118219999997,0.5115794000003007,0.5950232000000142,1.7132234999999127,1.7968332999998893,,,,,anne_2,001,2020_Feb_10_1233,posner,3.1.5,59.90664148999604,
-0.5,180,0,left,2,3,0,0,0,0,9,0,72,4,,,,,,,,,174.6993435999998,175.1990920999997,175.91689580000002,None,175.21573499999977,175.90013999999974,176.41740119999986,None,left,1,0.38262540000005174,176.41740119999986,None,None,175.21573499999977,176.40094709999994,0.5114168999998583,0.5949040999998942,1.7132461999999578,1.7966498999999203,,,,,anne_2,001,2020_Feb_10_1233,posner,3.1.5,59.90664148999604,
0.5,0,0,right,1,4,0,0,0,0,9,1,73,3,,,,,,,,,176.81946749999997,177.31862139999976,178.03639499999963,None,177.33551439999974,178.01978929999996,178.53698229999964,None,right,1,0.4232237000001078,178.53698229999964,None,None,177.33551439999974,178.5204606999996,0.5111001000000215,0.5948070000004009,1.7129091000001608,1.7964798000002702,,,,,anne_2,001,2020_Feb_10_1233,posner,3.1.5,59.90664148999604,
0.5,180,1,right,2,4,0,0,0,0,9,2,74,5,,,,,,,,,178.9887391999996,179.48841939999966,180.20614249999971,None,179.50526279999985,180.18931199999997,180.70664850000003,None,right,1,0.309357899999668,180.70664850000003,None,None,179.50526279999985,180.69005529999959,0.51160020000043,0.5950477000001229,1.7132115000003978,1.7968113000001722,,,,,anne_2,001,2020_Feb_10_1233,posner,3.1.5,59.90664148999604,
0.5,180,1,right,2,4,0,0,0,0,9,3,75,7,,,,,,,,,181.0408508999999,181.54122519999964,182.25885900000003,None,181.55782090000002,182.2420785999998,182.75962879999997,None,right,1,0.3842400000003181,182.75962879999997,None,None,181.55782090000002,182.7434605999997,0.511722099999588,0.5952752999996846,1.7139318999998068,1.7967127999995682,,,,,anne_2,001,2020_Feb_10_1233,posner,3.1.5,59.90664148999604,
-0.5,0,1,left,1,3,0,0,0,0,9,4,76,0,,,,,,,,,183.16035749999992,183.66080429999965,184.37840289999986,None,183.6773822,184.36176639999985,184.8791369999999,185.36313559999962,left,1,0.48895619999984774,184.8791369999999,None,None,183.6773822,184.8625245999997,0.5122814999999719,0.5958780000000843,1.7139753999999812,1.797472199999902,,,,,anne_2,001,2020_Feb_10_1233,posner,3.1.5,59.90664148999604,
-0.5,0,1,left,1,3,0,0,0,0,9,5,77,2,,,,,,,,,185.39676259999987,185.89718979999998,186.61481679999997,None,185.91424879999977,186.5983156999996,187.11571719999984,None,left,1,0.33234119999997347,187.11571719999984,None,None,185.91424879999977,187.0988610999998,0.512268099999801,0.5959794999998849,1.7139176999999108,1.7974482999998145,,,,,anne_2,001,2020_Feb_10_1233,posner,3.1.5,59.90664148999604,
-0.5,0,1,left,1,3,0,0,0,0,9,6,78,1,,,,,,,,,187.46694839999964,187.966719,188.68442189999996,None,187.9835309,188.6676169999996,189.18520489999992,None,left,1,0.3268229000000247,189.18520489999992,None,None,187.9835309,189.16830189999973,0.5115172000000712,0.5950085000004037,1.713078900000255,1.7964942000003248,,,,,anne_2,001,2020_Feb_10_1233,posner,3.1.5,59.90664148999604,
0.5,180,1,right,2,4,0,0,0,0,9,7,79,6,,,,,,,,,189.5360553999999,190.03623179999977,190.75414349999983,None,190.05296389999967,190.7372836999998,191.25456329999997,None,right,1,0.32940099999996164,191.25456329999997,None,None,190.05296389999967,191.2379493999997,0.51192089999995,0.5953896000000896,1.713618100000076,1.7969986999996763,,,,,anne_2,001,2020_Feb_10_1233,posner,3.1.5,59.90664148999604,
0.5,180,1,right,2,4,0,0,0,0,10,0,80,7,,,,,,,,,191.60584259999996,192.10582479999994,192.8233648999999,None,192.1224288999997,192.8066187999998,193.32425179999973,None,right,1,0.36377219999985755,193.32425179999973,None,None,192.1224288999997,193.30745219999972,0.5117310000000543,0.595393999999942,1.7133411999998316,1.7968485999999757,,,,,anne_2,001,2020_Feb_10_1233,posner,3.1.5,59.90664148999604,
-0.5,0,1,left,1,3,0,0,0,0,10,1,81,0,,,,,,,,,193.70912120000003,194.20865619999995,194.9263621,None,194.2255680999997,194.90963459999966,195.42683529999977,None,left,1,0.3171590999995715,195.42683529999977,None,None,194.2255680999997,195.4105394999997,0.5113787999998749,0.5949385999997503,1.7132163000001128,1.7963251000001037,,,,,anne_2,001,2020_Feb_10_1233,posner,3.1.5,59.90664148999604,
-0.5,180,0,left,2,3,0,0,0,0,10,2,82,4,,,,,,,,,195.7616705999999,196.2616065999996,196.97956299999987,None,196.2782946999996,196.96251159999974,197.48003309999967,None,left,1,0.440041199999996,197.48003309999967,None,None,196.2782946999996,197.46317259999978,0.5115491999999904,0.5948917999999139,1.713099499999771,1.7963809999996556,,,,,anne_2,001,2020_Feb_10_1233,posner,3.1.5,59.90664148999604,
0.5,180,1,right,2,4,0,0,0,0,10,3,83,5,,,,,,,,,197.9478156,198.44785409999986,199.16527859999997,None,198.46472529999983,199.14886179999985,199.66613229999984,None,right,1,0.3817572999996628,199.66613229999984,None,None,198.46472529999983,199.64953019999984,0.5117636999998467,0.5952714999998534,1.7134290999997575,1.7967706999997972,,,,,anne_2,001,2020_Feb_10_1233,posner,3.1.5,59.90664148999604,
0.5,180,1,right,2,4,0,0,0,0,10,4,84,6,,,,,,,,,200.06750539999985,200.5673087,201.2849984999998,None,200.58408169999984,201.2683379,201.78567999999996,None,right,1,0.39826399999992645,201.78567999999996,None,None,200.58408169999984,201.76911659999996,0.5113562999999886,0.5949421999998776,1.713137899999765,1.796600600000147,,,,,anne_2,001,2020_Feb_10_1233,posner,3.1.5,59.90664148999604,
-0.5,0,1,left,1,3,0,0,0,0,10,5,85,1,,,,,,,,,202.20398559999967,202.70376339999984,203.42137909999974,None,202.7204511,203.40486459999966,203.92196699999977,None,left,1,0.35000970000010057,203.92196699999977,None,None,202.7204511,203.9052926999998,0.5116060999998808,0.5949261000000661,1.7131133000002592,1.7968807000002016,,,,,anne_2,001,2020_Feb_10_1233,posner,3.1.5,59.90664148999604,
0.5,0,0,right,1,4,0,0,0,0,10,6,86,3,,,,,,,,,204.2902199,204.78979919999983,205.50754359999974,None,204.80657669999982,205.49102099999982,206.00810469999988,206.49209569999994,right,1,0.5197889000000941,206.00810469999988,None,None,204.80657669999982,205.99167999999963,0.5114167000001544,0.5950174999998126,1.7132670000000871,1.7964615000000776,,,,,anne_2,001,2020_Feb_10_1233,posner,3.1.5,59.90664148999604,
-0.5,0,1,left,1,3,0,0,0,0,10,7,87,2,,,,,,,,,206.54361319999998,207.04284169999983,207.76070349999964,None,207.05971299999965,207.7440231999999,208.26136929999984,None,left,1,0.45851760000005015,208.26136929999984,None,None,207.05971299999965,208.2447688999996,0.5112177999999403,0.5946165999998811,1.7131193999998686,1.7963298999998187,,,,,anne_2,001,2020_Feb_10_1233,posner,3.1.5,59.90664148999604,
,,,,,,0,0,0,0,,,,,,,,,,,,,,,,,,,,,,,,,,,,,,,,,208.7460205999996,None,1.9799999790848233e-05,0.9961717999999564,anne_2,001,2020_Feb_10_1233,posner,3.1.5,59.90664148999604,
0.5,0,0,right,1,4,1,0,1,0,0,0,0,3,1.2299999980314169e-05,0.09746029999996608,269.7626793999998,None,1.6700000287528383e-05,0.09767840000040451,271.8654677999998,None,272.1427259999996,272.64984219999997,273.35091439999997,None,272.6665489999996,273.35091439999997,273.8514488999999,None,right,1,0.4523503000000346,273.8514488999999,None,None,272.6665489999996,273.8514488999999,0.516660100000081,0.6001532999998744,1.7015842000000703,1.8018577999996523,,,,,anne_2,001,2020_Feb_10_1233,posner,3.1.5,59.90664148999604,
-0.5,180,0,left,2,3,1,0,1,0,0,1,1,4,,,,,,,,,274.32066769999983,274.8196234999996,275.5370332999996,None,274.8361824999997,275.52063099999987,276.0378741999998,None,left,1,0.38579699999991135,276.0378741999998,None,None,274.8361824999997,276.0210729999999,0.5106774000000769,0.5942110999999386,1.712110699999812,1.7958975999999893,,,,,anne_2,001,2020_Feb_10_1233,posner,3.1.5,59.90664148999604,
0.5,180,1,right,2,4,1,0,1,0,0,2,2,5,,,,,,,,,276.45553389999986,276.9556637999999,277.6735558999999,None,276.9725190999998,277.6567577999999,278.1742839999997,None,right,1,0.40134149999994406,278.1742839999997,None,None,276.9725190999998,278.1574931,0.511495300000206,0.5950245000003633,1.7133080000003247,1.796688300000369,,,,,anne_2,001,2020_Feb_10_1233,posner,3.1.5,59.90664148999604,
0.5,180,1,right,2,4,1,0,1,0,0,3,3,6,,,,,,,,,278.5922609999998,279.0920769999998,279.80984739999985,None,279.108651,279.7930072999998,280.31050389999973,None,right,1,0.36122800000021016,280.31050389999973,None,None,279.108651,280.29383579999967,0.5115900999999212,0.5949999999997999,1.7133291999998619,1.796660299999985,,,,,anne_2,001,2020_Feb_10_1233,posner,3.1.5,59.90664148999604,
-0.5,0,1,left,1,3,1,0,1,0,0,4,4,0,,,,,,,,,280.69501569999966,281.19504579999966,281.91289319999987,None,281.2115937999997,281.89588179999964,282.41386620000003,None,left,1,0.3617292999997517,282.41386620000003,None,None,281.2115937999997,282.3965493999999,0.5114929999999731,0.5946887000000061,1.7129809999996723,1.796566299999995,,,,,anne_2,001,2020_Feb_10_1233,posner,3.1.5,59.90664148999604,
-0.5,0,1,left,1,3,1,0,1,0,0,5,5,2,,,,,,,,,282.7982982999997,283.29778269999997,284.0153769999997,None,283.3145846999996,283.9989349999996,284.51605199999995,None,left,1,0.4035038000001805,284.51605199999995,None,None,283.3145846999996,284.499683,0.5114700999997694,0.5948991000000206,1.7133410999999796,1.7965159000000313,,,,,anne_2,001,2020_Feb_10_1233,posner,3.1.5,59.90664148999604,
0.5,180,1,right,2,4,1,0,1,0,0,6,6,7,,,,,,,,,284.9507574999998,285.4507934999997,286.16846929999974,None,285.4673587999996,286.15191209999966,286.66912609999963,287.1532312999998,right,1,0.47444550000000163,286.66912609999963,None,None,285.4673587999996,286.6525697999996,0.5114350999997441,0.5949878999999783,1.7131881000000249,1.7962976999997409,,,,,anne_2,001,2020_Feb_10_1233,posner,3.1.5,59.90664148999604,
-0.5,0,1,left,1,3,1,0,1,0,0,7,7,1,,,,,,,,,287.1708276999998,287.6705152999998,288.3880575999997,None,287.68715059999977,288.3714249999998,288.8888671999998,289.3728237,left,1,0.5187256999997771,288.8888671999998,None,None,287.68715059999977,288.8722623999997,0.5114918000003854,0.595069500000136,1.7132078000004185,1.7966424000001098,,,,,anne_2,001,2020_Feb_10_1233,posner,3.1.5,59.90664148999604,
0.5,180,1,right,2,4,1,0,1,0,1,0,8,7,,,,,,,,,289.4236913,289.92372399999977,290.6413593999996,None,289.94045519999963,290.6246139,291.141897,None,right,1,0.38557029999992665,291.141897,None,None,289.94045519999963,291.12533779999967,0.5115112999997109,0.5947650999996767,1.713097899999866,1.7965160999997352,,,,,anne_2,001,2020_Feb_10_1233,posner,3.1.5,59.90664148999604,
-0.5,0,1,left,1,3,1,0,1,0,1,1,9,1,,,,,,,,,291.5603708999997,292.05994169999985,292.77740879999965,None,292.0764895999996,292.76102569999966,293.27817959999993,None,left,1,0.4653069000000869,293.27817959999993,None,None,292.0764895999996,293.26171239999985,0.5115990999997848,0.5950133999999707,1.7133586999998442,1.796707399999832,,,,,anne_2,001,2020_Feb_10_1233,posner,3.1.5,59.90664148999604,
-0.5,180,0,left,2,3,1,0,1,0,1,2,10,4,,,,,,,,,293.7630605999998,294.26293069999974,294.98053759999993,None,294.2796785999999,294.9639565999996,295.4812096999999,295.9651915999998,left,1,0.6542865999999776,295.4812096999999,None,None,294.2796785999999,295.4647003,0.5116133000001355,0.5949031000000105,1.7133480000002237,1.79667900000004,,,,,anne_2,001,2020_Feb_10_1233,posner,3.1.5,59.90664148999604,
0.5,180,1,right,2,4,1,0,1,0,1,3,11,6,,,,,,,,,296.16598499999964,296.6661806999996,297.38391869999987,None,296.6830054999996,297.3672257999997,297.88476539999965,None,right,1,0.3546742000003178,297.88476539999965,None,None,296.6830054999996,297.86777189999975,0.5116957000000184,0.5952067000002899,1.713267800000267,1.7968305000003966,,,,,anne_2,001,2020_Feb_10_1233,posner,3.1.5,59.90664148999604,
0.5,180,1,right,2,4,1,0,1,0,1,4,12,5,,,,,,,,,298.2688194999996,298.7691235999996,299.4867340999999,None,298.7858247999998,299.4700921999997,299.98746619999974,None,right,1,0.3320244999999886,299.98746619999974,None,None,298.7858247999998,299.9708370999997,0.5118638999997529,0.5954748999997719,1.7135622000000694,1.797001899999941,,,,,anne_2,001,2020_Feb_10_1233,posner,3.1.5,59.90664148999604,
-0.5,0,1,left,1,3,1,0,1,0,1,5,13,0,,,,,,,,,300.3388654999999,300.8385063999999,301.5563562999996,None,300.85533639999994,301.5396203,302.0569690999996,None,left,1,0.25454080000008616,302.0569690999996,None,None,300.85533639999994,302.04019489999973,0.5114751000000979,0.5949098000000959,1.7131437000002734,1.7967908000000534,,,,,anne_2,001,2020_Feb_10_1233,posner,3.1.5,59.90664148999604,
0.5,0,0,right,1,4,1,0,1,0,1,6,14,3,,,,,,,,,302.3412169999997,302.8414370999999,303.55929369999967,None,302.85795259999986,303.5424929999999,304.05978479999976,None,right,1,0.3877244000000246,304.05978479999976,None,None,302.85795259999986,304.04311089999965,0.5115909999999531,0.594900399999915,1.7132517999998527,1.7965696999999636,,,,,anne_2,001,2020_Feb_10_1233,posner,3.1.5,59.90664148999604,
-0.5,0,1,left,1,3,1,0,1,0,1,7,15,2,,,,,,,,,304.4776001,304.97768289999976,305.69525929999963,None,304.9944765,305.67873039999995,306.1959155999998,None,left,1,0.37953490000018064,306.1959155999998,None,None,304.9944765,306.17943209999976,0.5115904000003866,0.5949683000003461,1.713316400000167,1.7966181000001598,,,,,anne_2,001,2020_Feb_10_1233,posner,3.1.5,59.90664148999604,
-0.5,180,0,left,2,3,1,0,1,0,2,0,16,4,,,,,,,,,306.5977605999997,307.09715519999963,307.81497469999977,None,307.1140714999997,307.7981324999996,308.3155840999998,None,left,1,0.44389179999961925,308.3155840999998,None,None,307.1140714999997,308.2991810999997,0.5112680999995973,0.5947461999999177,1.7132837999997719,1.7965046999997867,,,,,anne_2,001,2020_Feb_10_1233,posner,3.1.5,59.90664148999604,
0.5,180,1,right,2,4,1,0,1,0,2,1,17,6,,,,,,,,,308.7837056999997,309.2836650999998,310.0011977999998,None,309.3004590999999,309.98467319999963,310.50189649999993,None,right,1,0.3936297000000195,310.50189649999993,None,None,309.3004590999999,310.48507659999996,0.5117247999996835,0.595028999999613,1.7131124999996246,1.796848499999669,,,,,anne_2,001,2020_Feb_10_1233,posner,3.1.5,59.90664148999604,
-0.5,0,1,left,1,3,1,0,1,0,2,2,18,0,,,,,,,,,310.9193822999996,311.4199785999999,312.1375205999998,None,311.4364725999999,312.1209405999998,312.63816369999995,None,left,1,0.10547289999976783,312.63816369999995,None,None,311.4364725999999,312.6215462,0.5124699999996665,0.5958489999998164,1.7140237999997225,1.797555299999658,,,,,anne_2,001,2020_Feb_10_1233,posner,3.1.5,59.90664148999604,
0.5,180,1,right,2,4,1,0,1,0,2,3,19,5,,,,,,,,,312.77225299999964,313.27229009999974,313.99011789999986,None,313.2892426999997,313.9733795999996,314.49072279999973,None,right,1,0.38866550000011557,314.49072279999973,None,None,313.2892426999997,314.4742756999999,0.511717100000169,0.5953048999999737,1.713676299999861,1.797068500000023,,,,,anne_2,001,2020_Feb_10_1233,posner,3.1.5,59.90664148999604,
0.5,0,0,right,1,4,1,0,1,0,2,4,20,3,,,,,,,,,314.9086395999998,315.4088698999999,316.12625419999995,None,315.42537969999967,316.1097055,316.6269321999998,None,right,1,0.3884615000001759,316.6269321999998,None,None,315.42537969999967,316.6103060999999,0.5119174000001294,0.5950861999999688,1.713342399999874,1.7968427999999221,,,,,anne_2,001,2020_Feb_10_1233,posner,3.1.5,59.90664148999604,
-0.5,0,1,left,1,3,1,0,1,0,2,5,21,1,,,,,,,,,317.04478689999996,317.54477529999986,318.2626710999998,None,317.5616794999996,318.2458225999999,318.7635436999999,None,left,1,0.3958663999997043,318.7635436999999,None,None,317.5616794999996,318.7466123999998,0.5114757999999711,0.595146399999976,1.7132927000002383,1.796658799999932,,,,,anne_2,001,2020_Feb_10_1233,posner,3.1.5,59.90664148999604,
0.5,180,1,right,2,4,1,0,1,0,2,6,22,7,,,,,,,,,319.1811545999999,319.6812525999999,320.3988884999999,None,319.69793119999986,320.38238349999983,320.89968069999986,None,right,1,0.33988189999990936,320.89968069999986,None,None,319.69793119999986,320.8829204999997,0.5111304000001837,0.5945212000001447,1.712780400000156,1.7960808000002544,,,,,anne_2,001,2020_Feb_10_1233,posner,3.1.5,59.90664148999604,
-0.5,0,1,left,1,3,1,0,1,0,2,7,23,2,,,,,,,,,321.2676127999998,321.76726359999975,322.48499049999964,None,321.78427399999964,322.4684006999996,322.9856450999996,None,left,1,0.325767100000121,322.9856450999996,None,None,321.78427399999964,322.9691064999997,0.5113635000002432,0.5949599999999009,1.7131812000002355,1.7968899000002239,,,,,anne_2,001,2020_Feb_10_1233,posner,3.1.5,59.90664148999604,
-0.5,0,1,left,1,3,1,0,1,0,3,0,24,2,,,,,,,,,323.3370024999999,323.83699439999964,324.5549444999997,None,323.8537071999999,324.53792699999985,325.0552724999998,None,left,1,0.3844077000003381,325.0552724999998,None,None,323.8537071999999,325.0386620999998,0.5116202000003796,0.595022599999993,1.7132682000001296,1.7967173000001821,,,,,anne_2,001,2020_Feb_10_1233,posner,3.1.5,59.90664148999604,
0.5,0,0,right,1,4,1,0,1,0,3,1,25,3,,,,,,,,,325.4562979999996,325.95656689999987,326.6743124999998,None,325.97322299999996,326.65749589999996,327.1747117,327.6588909999996,right,1,0.49670240000023114,327.1747117,None,None,325.97322299999996,327.1581093,0.5118954999998095,0.5952665999998317,1.7134172999999464,1.7969709999997576,,,,,anne_2,001,2020_Feb_10_1233,posner,3.1.5,59.90664148999604,
0.5,180,1,right,2,4,1,0,1,0,3,2,26,5,,,,,,,,,327.6930855999999,328.19296829999985,328.9110174999996,None,328.2097338999997,328.89406029999964,329.41156999999976,None,right,1,0.4198357999998734,329.41156999999976,None,None,328.2097338999997,329.3947774999997,0.5117043000000194,0.5952133000000686,1.7134894999999233,1.7966120999999475,,,,,anne_2,001,2020_Feb_10_1233,posner,3.1.5,59.90664148999604,
0.5,180,1,right,2,4,1,0,1,0,3,3,27,7,,,,,,,,,329.86232999999993,330.3626492999997,331.0802638,None,330.3793289,331.0636142999997,331.5814929999997,None,right,1,0.31388909999986936,331.5814929999997,None,None,330.3793289,331.56429949999983,0.5117399999999179,0.5949550999998792,1.713372199999867,1.7966699999997218,,,,,anne_2,001,2020_Feb_10_1233,posner,3.1.5,59.90664148999604,
-0.5,0,1,left,1,3,1,0,1,0,3,4,28,1,,,,,,,,,331.9158749999997,332.41575429999966,333.1331637999997,None,332.4320499999999,333.11623929999996,333.6339214999998,None,left,1,0.3575978000003488,333.6339214999998,None,None,332.4320499999999,333.6168810999998,0.5118886000000202,0.5948990000001686,1.7129978000002666,1.7967461000002913,,,,,anne_2,001,2020_Feb_10_1233,posner,3.1.5,59.90664148999604,
0.5,180,1,right,2,4,1,0,1,0,3,5,29,6,,,,,,,,,334.0177956999996,334.5181186,335.23582959999976,None,334.5346903999998,335.21913559999984,335.7365990999997,None,right,1,0.2707279999999628,335.7365990999997,None,None,334.5346903999998,335.72005379999973,0.5117956999997659,0.595368100000087,1.713702099999864,1.7967604000000392,,,,,anne_2,001,2020_Feb_10_1233,posner,3.1.5,59.90664148999604,
-0.5,0,1,left,1,3,1,0,1,0,3,6,30,0,,,,,,,,,336.0378781999998,336.53785019999987,337.2554435999996,None,336.5543967999997,337.2388369,337.7560647,None,left,1,0.3632814000002327,337.7560647,None,None,336.5543967999997,337.7393141999996,0.5116668999999092,0.5947962000000189,1.713110499999857,1.796587400000135,,,,,anne_2,001,2020_Feb_10_1233,posner,3.1.5,59.90664148999604,
-0.5,180,0,left,2,3,1,0,1,0,3,7,31,4,,,,,,,,,338.1408411999996,338.6406941,339.3582231999999,None,338.6572742999997,339.3416768999996,339.85894789999975,340.3431092999999,left,1,0.47639459999982137,339.85894789999975,None,None,338.6572742999997,339.84233589999985,0.511563500000193,0.5949691999999231,1.7131782999999814,1.7965195000001586,,,,,anne_2,001,2020_Feb_10_1233,posner,3.1.5,59.90664148999604,
-0.5,0,1,left,1,3,1,0,1,0,4,0,32,2,,,,,,,,,340.3605217999998,340.86026939999965,341.57799799999975,None,340.8770046999998,341.56125989999964,342.0788702,None,left,1,0.3447658000000047,342.0788702,None,None,340.8770046999998,342.0624479999997,0.5114636000002974,0.5951352000001862,1.713636100000258,1.7966582000003655,,,,,anne_2,001,2020_Feb_10_1233,posner,3.1.5,59.90664148999604,
-0.5,0,1,left,1,3,1,0,1,0,4,1,33,0,,,,,,,,,342.4469399999998,342.9465919999998,343.66416919999983,None,342.9633094999999,343.64741579999964,344.16487819999975,None,left,1,0.402476299999762,344.16487819999975,None,None,342.9633094999999,344.1485389999998,0.5112590000003365,0.5947219000004225,1.7131878000000142,1.7963031000003866,,,,,anne_2,001,2020_Feb_10_1233,posner,3.1.5,59.90664148999604,
0.5,180,1,right,2,4,1,0,1,0,4,2,34,7,,,,,,,,,344.5994171999996,345.0996700999999,345.81710829999975,None,345.1162499999996,345.8005052999997,346.3177295999999,None,right,1,0.36953630000016346,346.3177295999999,None,None,345.1162499999996,346.30126359999986,0.5116909999997006,0.5950680999999349,1.713271299999633,1.7967195999999603,,,,,anne_2,001,2020_Feb_10_1233,posner,3.1.5,59.90664148999604,
0.5,180,1,right,2,4,1,0,1,0,4,3,35,5,,,,,,,,,346.7188868999997,347.2191902999998,347.9366861999997,None,347.2357049999996,347.9201410999999,348.4374796999996,None,right,1,0.37778679999973974,348.4374796999996,None,None,347.2357049999996,348.4207096,0.5116342999999688,0.5951466999999866,1.7131422000002203,1.7968335999998999,,,,,anne_2,001,2020_Feb_10_1233,posner,3.1.5,59.90664148999604,
0.5,180,1,right,2,4,1,0,1,0,4,4,36,6,,,,,,,,,348.83876459999965,349.3385948,350.0564625999996,None,349.35532769999963,350.03960419999976,350.5569518999996,None,right,1,0.3942053999999189,350.5569518999996,None,None,349.35532769999963,350.54037470000003,0.5117033000001356,0.5949464000000262,1.7132071000000906,1.7967532000002393,,,,,anne_2,001,2020_Feb_10_1233,posner,3.1.5,59.90664148999604,
-0.5,180,0,left,2,3,1,0,1,0,4,5,37,4,,,,,,,,,350.97487079999974,351.4749995999996,352.19258679999984,None,351.49174479999965,352.17609159999984,352.69328789999963,353.1772283999999,left,1,0.5300038000000313,352.69328789999963,None,None,351.49174479999965,352.67649729999994,0.5116503000003831,0.5952335000001767,1.7131272999999965,1.7966128000002755,,,,,anne_2,001,2020_Feb_10_1233,posner,3.1.5,59.90664148999604,
-0.5,0,1,left,1,3,1,0,1,0,4,6,38,1,,,,,,,,,353.24489989999984,353.74481579999974,354.4623609999999,None,353.76139319999993,354.4456181999999,354.9631936999999,355.4469901999996,left,1,0.5401627000001099,354.9631936999999,None,None,353.76139319999993,354.9463278999997,0.5115887000001749,0.5948373000001084,1.7130883999998332,1.7966608000001543,,,,,anne_2,001,2020_Feb_10_1233,posner,3.1.5,59.90664148999604,
0.5,0,0,right,1,4,1,0,1,0,4,7,39,3,,,,,,,,,355.5314220999999,356.0312465999996,356.7488479999997,None,356.0478919999996,356.7322658999997,357.2496951999997,None,right,1,0.4455944000001182,357.2496951999997,None,None,356.0478919999996,357.23299309999993,0.5113185999998677,0.5946290000001682,1.7130505999998604,1.7963936000001013,,,,,anne_2,001,2020_Feb_10_1233,posner,3.1.5,59.90664148999604,
0.5,180,1,right,2,4,1,0,1,0,5,0,40,5,,,,,,,,,357.71751489999997,358.2174771,358.9350550999998,None,358.2341534999996,358.918451,359.4357836999998,None,right,1,0.3475239999997939,359.4357836999998,None,None,358.2341534999996,359.4192155999999,0.5114177000000382,0.5950044000001071,1.7131395000001248,1.7968184999999721,,,,,anne_2,001,2020_Feb_10_1233,posner,3.1.5,59.90664148999604,
-0.5,0,1,left,1,3,1,0,1,0,5,1,41,2,,,,,,,,,359.804032,360.30394959999967,361.02154679999967,None,360.3204685999999,361.0048253,361.5220978999996,362.0060546999998,left,1,0.5012609000000339,361.5220978999996,None,None,360.3204685999999,361.5054169,0.5116376999999375,0.594977100000051,1.7130887999996958,1.7965964999998505,,,,,anne_2,001,2020_Feb_10_1233,posner,3.1.5,59.90664148999604,
-0.5,180,0,left,2,3,1,0,1,0,5,2,42,4,,,,,,,,,362.0404589999998,362.5401230999996,363.2578741999996,None,362.5567063999997,363.2412339999996,363.7584036999997,None,left,1,0.4088418000001184,363.7584036999997,None,None,362.5567063999997,363.7419206999998,0.5114876000002369,0.5950514000001021,1.7132584000000861,1.7966559000001325,,,,,anne_2,001,2020_Feb_10_1233,posner,3.1.5,59.90664148999604,
-0.5,0,1,left,1,3,1,0,1,0,5,3,43,1,,,,,,,,,364.1929521999996,364.6931110999999,365.41097869999976,None,364.7099429,365.39430719999973,365.91185359999963,None,left,1,0.3754279999998289,365.91185359999963,None,None,364.7099429,365.8949558999998,0.5117756000004192,0.5951182000003428,1.7135965000002216,1.7970287000002827,,,,,anne_2,001,2020_Feb_10_1233,posner,3.1.5,59.90664148999604,
-0.5,0,1,left,1,3,1,0,1,0,5,4,44,0,,,,,,,,,366.3125611999999,366.812821,367.5304629999996,None,366.8295135999997,367.5137719999998,368.0309849999999,None,left,1,0.4563279999997576,368.0309849999999,None,None,366.8295135999997,368.0143754999999,0.5119460999999319,0.5951890999999705,1.713482699999986,1.7969207999999526,,,,,anne_2,001,2020_Feb_10_1233,posner,3.1.5,59.90664148999604,
0.5,180,1,right,2,4,1,0,1,0,5,5,45,6,,,,,,,,,368.5158105999999,369.0156628,369.73348020000003,None,369.0325346999998,369.7167508999996,370.2341580999996,368.5158105999999,right,1,0.349094199999854,370.2341580999996,None,None,369.0325346999998,370.2173711999999,0.5116634999999405,0.5951333999996677,1.7133501999996952,1.7969088999998348,,,,,anne_2,001,2020_Feb_10_1233,posner,3.1.5,59.90664148999604,
0.5,180,1,right,2,4,1,0,1,0,5,6,46,7,,,,,,,,,370.60219099999995,371.1021639999999,371.81966109999985,None,371.11861729999964,371.8030217999999,372.3203647,None,right,1,0.35078629999998157,372.3203647,None,None,371.11861729999964,372.30377789999966,0.5116772999999739,0.5947031999999126,1.7132447999997567,1.7964917999997851,,,,,anne_2,001,2020_Feb_10_1233,posner,3.1.5,59.90664148999604,
0.5,0,0,right,1,4,1,0,1,0,5,7,47,3,,,,,,,,,372.68804679999994,373.18807709999965,373.905843,None,373.20513189999974,373.88903419999997,374.4065891,374.89059989999987,right,1,0.48067400000036287,374.4065891,None,None,373.20513189999974,374.3899462999998,0.5116496000000552,0.595122100000026,1.7134972999997444,1.7969121000000996,,,,,anne_2,001,2020_Feb_10_1233,posner,3.1.5,59.90664148999604,
0.5,0,0,right,1,4,1,0,1,0,6,0,48,3,,,,,,,,,374.90805899999987,375.40799749999996,376.1253864,None,375.4246152999999,376.1087534999997,376.6260511999999,None,right,1,0.43715820000034,376.6260511999999,None,None,375.4246152999999,376.60955699999977,0.5119512999999642,0.5950921000003291,1.7132200000000921,1.796702699999969,,,,,anne_2,001,2020_Feb_10_1233,posner,3.1.5,59.90664148999604,
-0.5,0,1,left,1,3,1,0,1,0,6,1,49,2,,,,,,,,,377.09419479999997,377.5941641999998,378.31184859999985,None,377.6109296999998,378.2951230999997,378.8125358999996,None,left,1,0.37890909999987343,378.8125358999996,None,None,377.6109296999998,378.79583249999996,0.5115381999999045,0.5949930000001586,1.7131881999998768,1.7967748999999458,,,,,anne_2,001,2020_Feb_10_1233,posner,3.1.5,59.90664148999604,
0.5,180,1,right,2,4,1,0,1,0,6,2,50,5,,,,,,,,,379.21383609999975,379.71384439999974,380.4315262,None,379.7305087,380.4150887999999,380.9320352999998,None,right,1,0.34714489999987563,380.9320352999998,None,None,379.7305087,380.9158430999996,0.5115919999998368,0.5949352999996336,1.71356969999988,1.7965821999996479,,,,,anne_2,001,2020_Feb_10_1233,posner,3.1.5,59.90664148999604,
-0.5,0,1,left,1,3,1,0,1,0,6,3,51,0,,,,,,,,,381.30003339999985,381.79992539999967,382.5175362,None,381.81669799999963,382.5009355999996,383.0183683,None,left,1,0.3891494999998031,383.0183683,None,None,381.81669799999963,383.00177799999983,0.5114877999999408,0.5950804999997672,1.7133146999999553,1.79668700000002,,,,,anne_2,001,2020_Feb_10_1233,posner,3.1.5,59.90664148999604,
0.5,180,1,right,2,4,1,0,1,0,6,4,52,6,,,,,,,,,383.4356120999996,383.93624329999966,384.65415689999963,None,383.9531551,384.6370297999997,385.15446919999977,None,right,1,0.2846641000001,385.15446919999977,None,None,383.9531551,385.1378405999999,0.5123993999995946,0.5959092999996756,1.713976499999717,1.7974863999997979,,,,,anne_2,001,2020_Feb_10_1233,posner,3.1.5,59.90664148999604,
-0.5,0,1,left,1,3,1,0,1,0,6,5,53,1,,,,,,,,,385.4556570999998,385.9557092,386.6735374,None,385.97230809999974,386.6566321999999,387.1740262999997,None,left,1,0.44102799999973286,387.1740262999997,None,None,385.97230809999974,387.15735129999985,0.5117182000003595,0.5952981000000364,1.713336199999958,1.7968331000001854,,,,,anne_2,001,2020_Feb_10_1233,posner,3.1.5,59.90664148999604,
-0.5,180,0,left,2,3,1,0,1,0,6,6,54,4,,,,,,,,,387.64196159999983,388.1420241999999,388.85988929999985,None,388.1588829999996,388.84313189999966,389.36046529999976,None,left,1,0.40679769999997006,389.36046529999976,None,None,388.1588829999996,389.3437491999998,0.5116972000000715,0.5951482000000397,1.713396599999669,1.7968763999997464,,,,,anne_2,001,2020_Feb_10_1233,posner,3.1.5,59.90664148999604,
0.5,180,1,right,2,4,1,0,1,0,6,7,55,7,,,,,,,,,389.7949265999996,390.2948954999997,391.0127556999996,None,390.3116864999997,390.9958270999996,391.51329659999965,None,right,1,0.41391840000005686,391.51329659999965,None,None,390.3116864999997,391.49664789999997,0.5116767999998046,0.5952311000000918,1.713407400000051,1.7968633999998929,,,,,anne_2,001,2020_Feb_10_1233,posner,3.1.5,59.90664148999604,
0.5,180,1,right,2,4,1,0,1,0,7,0,56,7,,,,,,,,,391.9483077,392.4479795999996,393.1656589999998,None,392.4646620999997,393.1489744999999,393.6663110999998,None,right,1,0.3729717000001074,393.6663110999998,None,None,392.4646620999997,393.6499179999996,0.5116427999996631,0.5951671999996506,1.7135231999995995,1.7967110999998113,,,,,anne_2,001,2020_Feb_10_1233,posner,3.1.5,59.90664148999604,
0.5,180,1,right,2,4,1,0,1,0,7,1,57,5,,,,,,,,,394.06763039999987,394.56759889999967,395.28517939999983,None,394.58412659999976,395.2685518999997,395.7859404999999,None,right,1,0.39721049999980096,395.7859404999999,None,None,394.58412659999976,395.7692354999999,0.5117687000001752,0.5950882000001911,1.7133527999999387,1.7970470000000205,,,,,anne_2,001,2020_Feb_10_1233,posner,3.1.5,59.90664148999604,
-0.5,0,1,left,1,3,1,0,1,0,7,2,58,2,,,,,,,,,396.2037811,396.7040327999998,397.4216013,None,396.7205217999999,397.4047820999999,397.9222405999999,None,left,1,0.34892760000002454,397.9222405999999,None,None,396.7205217999999,397.90550919999987,0.5118290999998862,0.5951132000000143,1.7132924000002276,1.7967948000000433,,,,,anne_2,001,2020_Feb_10_1233,posner,3.1.5,59.90664148999604,
-0.5,0,1,left,1,3,1,0,1,0,7,3,59,1,,,,,,,,,398.29015249999975,398.7900950999997,399.50770409999996,None,398.8067802999999,399.4909253999999,400.00842349999994,None,left,1,0.39079589999983,400.00842349999994,None,None,398.8067802999999,399.9917882,0.5114686000001711,0.5948924000003899,1.7131414000000404,1.796541800000341,,,,,anne_2,001,2020_Feb_10_1233,posner,3.1.5,59.90664148999604,
0.5,180,1,right,2,4,1,0,1,0,7,4,60,6,,,,,,,,,400.42635029999974,400.9263517999998,401.64396769999985,None,400.94296929999973,401.6272985999999,402.14466459999994,None,right,1,0.28641209999977946,402.14466459999994,None,None,400.94296929999973,402.1279934999998,0.5116244000000734,0.5951006999998754,1.713244499999746,1.7967134000000442,,,,,anne_2,001,2020_Feb_10_1233,posner,3.1.5,59.90664148999604,
0.5,0,0,right,1,4,1,0,1,0,7,5,61,3,,,,,,,,,402.46221939999987,402.9625367999997,403.68016979999993,None,402.97922949999975,403.6637421999999,404.1805338999998,None,right,1,0.43453569999974206,404.1805338999998,None,None,402.97922949999975,404.16423799999984,0.5118647999997847,0.5950975000000653,1.713546800000131,1.7967377999998462,,,,,anne_2,001,2020_Feb_10_1233,posner,3.1.5,59.90664148999604,
-0.5,180,0,left,2,3,1,0,1,0,7,6,62,4,,,,,,,,,404.6321375999996,405.1322363999998,405.84992969999985,None,405.148729,405.83303019999994,406.3505126,None,left,1,0.46459490000006554,406.3505126,None,None,405.148729,406.33377029999974,0.5116129000002729,0.59484620000012,1.7131265000002713,1.796514500000285,,,,,anne_2,001,2020_Feb_10_1233,posner,3.1.5,59.90664148999604,
-0.5,0,1,left,1,3,1,0,1,0,7,7,63,0,,,,,,,,,406.8356120999997,407.3351564999998,408.0527975,None,407.3518823999998,408.0360034,408.5536487999998,406.8356120999997,left,1,0.3655508000001646,408.5536487999998,None,None,407.3518823999998,408.5366805999997,0.5113369999999122,0.5948257000000012,1.7128453000000263,1.7963869999998678,,,,,anne_2,001,2020_Feb_10_1233,posner,3.1.5,59.90664148999604,
-0.5,0,1,left,1,3,1,0,1,0,8,0,64,0,,,,,,,,,408.93840769999997,409.4379992999998,410.1556489999998,None,409.4548884999999,410.1389171999999,410.65636419999964,None,left,1,0.3027641999997286,410.65636419999964,None,None,409.4548884999999,410.63969899999984,0.5115264999999454,0.5949540999999954,1.7132053999998789,1.7967862999998943,,,,,anne_2,001,2020_Feb_10_1233,posner,3.1.5,59.90664148999604,
-0.5,180,0,left,2,3,1,0,1,0,8,1,65,4,,,,,,,,,410.99082629999975,411.4908697999999,412.20843449999984,None,411.50753239999995,412.19175210000003,412.7091704999998,None,left,1,0.46590710000009494,412.7091704999998,None,None,411.50753239999995,412.69275419999985,0.5115132999999332,0.5949107999999796,1.7133750000002692,1.7964523000000554,,,,,anne_2,001,2020_Feb_10_1233,posner,3.1.5,59.90664148999604,
-0.5,0,1,left,1,3,1,0,1,0,8,2,66,1,,,,,,,,,413.1942052999998,413.6939349999998,414.4119326,None,413.7104989999998,414.39485739999964,414.91256299999986,413.1942052999998,left,1,0.3507510999997976,414.91256299999986,None,None,413.7104989999998,414.8954002999999,0.5115498999998636,0.59477969999989,1.7129947999997057,1.7965613999999732,,,,,anne_2,001,2020_Feb_10_1233,posner,3.1.5,59.90664148999604,
0.5,180,1,right,2,4,1,0,1,0,8,3,67,7,,,,,,,,,415.28009529999963,415.78018539999994,416.4976213,None,415.7966312999997,416.48113349999994,416.9984195999996,None,right,1,0.43270599999959813,416.9984195999996,None,None,415.7966312999997,416.98185639999974,0.5117663000000903,0.5952290999998695,1.7134194999998726,1.7965669000000162,,,,,anne_2,001,2020_Feb_10_1233,posner,3.1.5,59.90664148999604,
0.5,180,1,right,2,4,1,0,1,0,8,4,68,5,,,,,,,,,417.44940959999985,417.9496557999996,418.6672693999999,None,417.9662942,418.6508053999996,419.1680916999999,None,right,1,0.35086379999984274,419.1680916999999,None,None,417.9662942,419.15135059999966,0.5116407000000436,0.5952077000001736,1.7133097000000816,1.7966632000002392,,,,,anne_2,001,2020_Feb_10_1233,posner,3.1.5,59.90664148999604,
0.5,0,0,right,1,4,1,0,1,0,8,5,69,3,,,,,,,,,419.5353345999997,420.0358463999996,420.75350469999967,None,420.05275729999994,420.7368001,421.2544143,None,right,1,0.4166740000000573,421.2544143,None,None,420.05275729999994,421.23753199999965,0.5121012000004157,0.5956921000001785,1.7137618000001567,1.7972792000000481,,,,,anne_2,001,2020_Feb_10_1233,posner,3.1.5,59.90664148999604,
0.5,180,1,right,2,4,1,0,1,0,8,6,70,6,,,,,,,,,421.68938279999975,422.1890166999997,422.906516,None,422.20561,422.8900058999998,423.4072573999997,None,right,1,0.3116814999998496,423.4072573999997,None,None,422.20561,423.39049399999976,0.5114876000002369,0.5949204000003192,1.7129515999999967,1.796549099999993,,,,,anne_2,001,2020_Feb_10_1233,posner,3.1.5,59.90664148999604,
-0.5,0,1,left,1,3,1,0,1,0,8,7,71,2,,,,,,,,,423.7412962999997,424.24197849999973,424.95933909999985,None,424.2582825999998,424.94280549999985,425.4600763999997,None,left,1,0.4108645000001161,425.4600763999997,None,None,424.2582825999998,425.4433454,0.5121383999999125,0.5954425999998421,1.713490499999807,1.7969012999997176,,,,,anne_2,001,2020_Feb_10_1233,posner,3.1.5,59.90664148999604,
-0.5,0,1,left,1,3,1,0,1,0,9,0,72,1,,,,,,,,,425.8948078999997,426.39457969999967,427.1123128999998,None,426.41179809999994,427.0955108999997,427.6132938999999,None,left,1,0.4177018999998836,427.6132938999999,None,None,426.41179809999994,427.5962123999998,0.5114263000000392,0.5950526000001446,1.7130434999999125,1.7967201999999816,,,,,anne_2,001,2020_Feb_10_1233,posner,3.1.5,59.90664148999604,
0.5,0,0,right,1,4,1,0,1,0,9,1,73,3,,,,,,,,,428.0477409,428.5474982999999,429.26505929999985,None,428.5641741999998,429.24853159999975,429.7658609,None,right,1,0.43315660000007483,429.7658609,None,None,428.5641741999998,429.74916129999974,0.5115182000004097,0.5950660000003154,1.7131520000002638,1.7967364000000998,,,,,anne_2,001,2020_Feb_10_1233,posner,3.1.5,59.90664148999604,
0.5,180,1,right,2,4,1,0,1,0,9,2,74,5,,,,,,,,,430.21762899999976,430.71736379999993,431.43470479999996,None,430.7339812,431.4182888,431.93549619999976,None,right,1,0.319450400000278,431.93549619999976,None,None,430.7339812,431.9189222,0.5115845999998783,0.5949980999998843,1.7131125999999313,1.7966112999997677,,,,,anne_2,001,2020_Feb_10_1233,posner,3.1.5,59.90664148999604,
-0.5,180,0,left,2,3,1,0,1,0,9,3,75,4,,,,,,,,,432.27037189999965,432.77022149999993,433.4876482999998,None,432.7868163999997,433.4710551999997,433.98872519999986,None,left,1,0.42621939999980896,433.98872519999986,None,None,432.7868163999997,433.9715583999996,0.5114808000002995,0.5950204000000667,1.7128030000003491,1.7964759000001322,,,,,anne_2,001,2020_Feb_10_1233,posner,3.1.5,59.90664148999604,
-0.5,0,1,left,1,3,1,0,1,0,9,4,76,0,,,,,,,,,434.43987769999967,434.93985669999984,435.6573051999999,None,434.9564498999998,435.6405966999996,436.1580838,None,left,1,0.4011468000003333,436.1580838,None,None,434.9564498999998,436.1414410999996,0.5117100999996183,0.5953054999999949,1.7132778999998663,1.7965716999997312,,,,,anne_2,001,2020_Feb_10_1233,posner,3.1.5,59.90664148999604,
0.5,180,1,right,2,4,1,0,1,0,9,5,77,6,,,,,,,,,436.57592109999996,437.07595649999985,437.7937503999997,None,437.09266039999966,437.77696769999966,438.2944048999998,None,right,1,0.30446130000018456,438.2944048999998,None,None,437.09266039999966,438.2777059,0.5116699999998673,0.5951912000000448,1.7133973999998489,1.7967165000000023,,,,,anne_2,001,2020_Feb_10_1233,posner,3.1.5,59.90664148999604,
-0.5,0,1,left,1,3,1,0,1,0,9,6,78,2,,,,,,,,,438.6288187,439.1288519,439.8463962999999,None,439.14551319999964,439.8299081,440.3470582,None,left,1,0.26779579999993075,440.3470582,None,None,439.14551319999964,440.3304326999996,0.5116115999999238,0.5953807000000779,1.7131790000003093,1.7969425999999658,,,,,anne_2,001,2020_Feb_10_1233,posner,3.1.5,59.90664148999604,
0.5,180,1,right,2,4,1,0,1,0,9,7,79,7,,,,,,,,,440.6318431999998,441.1316354999999,441.8492695,None,441.1485743999997,441.8326511999999,442.3499305999999,None,right,1,0.26504419999992024,442.3499305999999,None,None,441.1485743999997,442.3332639,0.5115657999999712,0.5948138000003382,1.7131804000000557,1.7967834000000948,,,,,anne_2,001,2020_Feb_10_1233,posner,3.1.5,59.90664148999604,
0.5,180,1,right,2,4,1,0,1,0,10,0,80,5,,,,,,,,,442.6337914999999,443.1342897999998,443.8521212999999,None,443.1510882999996,443.8352326999998,444.35289339999963,None,right,1,0.33396159999983865,444.35289339999963,None,None,443.1510882999996,444.3360690999998,0.5122639999999592,0.5956175999999687,1.7140215999997963,1.7973699999997734,,,,,anne_2,001,2020_Feb_10_1233,posner,3.1.5,59.90664148999604,
-0.5,0,1,left,1,3,1,0,1,0,10,1,81,1,,,,,,,,,444.7038712999997,445.20405159999973,445.92161229999965,None,445.2205328,445.9048813999998,446.4222608,None,left,1,0.28875590000006923,446.4222608,None,None,445.2205328,446.40557979999994,0.511920999999802,0.5954059999999117,1.7134358999996948,1.7967565999997532,,,,,anne_2,001,2020_Feb_10_1233,posner,3.1.5,59.90664148999604,
0.5,180,1,right,2,4,1,0,1,0,10,2,82,6,,,,,,,,,446.7402122999997,447.2400018999997,447.9577638999999,None,447.2567454,447.94094289999975,448.45846459999984,None,right,1,0.39649510000026567,448.45846459999984,None,None,447.2567454,448.4415684999999,0.5114282999998068,0.5947763999997733,1.7129777999998623,1.7965040999997655,,,,,anne_2,001,2020_Feb_10_1233,posner,3.1.5,59.90664148999604,
0.5,0,0,right,1,4,1,0,1,0,10,3,83,3,,,,,,,,,448.87649759999977,449.3762118999998,450.0941393999997,None,449.3929642999997,450.0771708999996,450.5944489999997,None,right,1,0.3884394000001521,450.5944489999997,None,None,449.3929642999997,450.5777740999997,0.51149869999972,0.595109699999739,1.7130584999999883,1.7964959999999337,,,,,anne_2,001,2020_Feb_10_1233,posner,3.1.5,59.90664148999604,
-0.5,0,1,left,1,3,1,0,1,0,10,4,84,0,,,,,,,,,451.01236919999974,451.51278509999975,452.230047,None,451.5291438999998,452.2136730999996,452.73089329999993,None,left,1,0.46787970000013956,452.73089329999993,None,None,451.5291438999998,452.71424929999966,0.5119500000000698,0.595053900000039,1.7133976000000075,1.7967328999998244,,,,,anne_2,001,2020_Feb_10_1233,posner,3.1.5,59.90664148999604,
0.5,180,1,right,2,4,1,0,1,0,10,5,85,7,,,,,,,,,453.2154115999997,453.7156216999997,454.4331782999998,None,453.7322924,454.41670209999984,454.9338637999999,453.2154115999997,right,1,0.24895510000033028,454.9338637999999,None,None,453.7322924,454.91774469999973,0.5118145000001277,0.5952087000000574,1.7139181000002282,1.797781600000235,,,,,anne_2,001,2020_Feb_10_1233,posner,3.1.5,59.90664148999604,
-0.5,180,0,left,2,3,1,0,1,0,10,6,86,4,,,,,,,,,455.20083969999996,455.70169989999977,456.4192962999996,None,455.7184682999996,456.4028384999997,456.9201317999996,None,left,1,0.4147044999999707,456.9201317999996,None,None,455.7184682999996,456.90365459999975,0.5117976000001363,0.5949777000000722,1.7137400000001435,1.7967039000000113,,,,,anne_2,001,2020_Feb_10_1233,posner,3.1.5,59.90664148999604,
-0.5,0,1,left,1,3,1,0,1,0,10,7,87,2,,,,,,,,,457.3543969999996,457.8544339,458.5721590999997,None,457.8714436999999,458.5556443999999,459.07296899999983,None,left,1,0.33386190000010174,459.07296899999983,None,None,457.8714436999999,459.05622509999966,0.5115645000000768,0.5950971000002028,1.7133389000000534,1.7968476999999439,,,,,anne_2,001,2020_Feb_10_1233,posner,3.1.5,59.90664148999604,
,,,,,,1,0,1,0,,,,,,,,,,,,,,,,,,,,,,,,,,,,,,,,,459.42358809999996,None,1.8199999885837315e-05,0.9957564000001184,anne_2,001,2020_Feb_10_1233,posner,3.1.5,59.90664148999604,
-0.5,0,1,left,1,3,2,0,2,0,0,0,0,0,1.2299999980314169e-05,0.0977631000000656,520.4407575,None,1.5499999790336005e-05,0.09769209999967643,522.5435211999998,None,522.8273425999996,523.3280748999996,524.0454966999996,None,523.3445788999998,524.0289447999999,524.5462040999996,None,left,1,0.34064130000024306,524.5462040999996,None,None,523.3445788999998,524.5296742999999,0.5102445000002263,0.5939496000000872,1.711833100000149,1.7952204000002894,,,,,anne_2,001,2020_Feb_10_1233,posner,3.1.5,59.90664148999604,
0.5,180,1,right,2,4,2,0,2,0,0,1,1,7,,,,,,,,,524.9158216999999,525.4144417999996,526.1319230999998,None,525.4308370999997,526.1152613999998,526.6325600999999,None,right,1,0.35795920000009573,526.6325600999999,None,None,525.4308370999997,526.6157994999999,0.5108713999998145,0.594101099999989,1.7122207000002163,1.7957298000001174,,,,,anne_2,001,2020_Feb_10_1233,posner,3.1.5,59.90664148999604,
0.5,180,1,right,2,4,2,0,2,0,0,2,2,6,,,,,,,,,527.0168067,527.5169529999998,528.2345811999999,None,527.5338023999998,528.2181048999996,528.7353651999997,None,right,1,0.34314119999999093,528.7353651999997,None,None,527.5338023999998,528.7187703,0.5116015999997217,0.5951280999997834,1.7133922999996685,1.7970833999997922,,,,,anne_2,001,2020_Feb_10_1233,posner,3.1.5,59.90664148999604,
0.5,180,1,right,2,4,2,0,2,0,0,3,3,5,,,,,,,,,529.1032326999998,529.6033932999999,530.3208463999999,None,529.6201222,530.3041822,530.8216266,None,right,1,0.3210060000001249,530.8216266,None,None,529.6201222,530.8049738999998,0.5117262999997365,0.5950582999998915,1.7132908999997198,1.7968423999996048,,,,,anne_2,001,2020_Feb_10_1233,posner,3.1.5,59.90664148999604,
-0.5,0,1,left,1,3,2,0,2,0,0,4,4,1,,,,,,,,,531.1725299,531.6728839999996,532.3905752999999,None,531.6895496999996,532.3737917999997,532.8910266999997,None,left,1,0.3958474999999453,532.8910266999997,None,None,531.6895496999996,532.8744275999998,0.5118784999999662,0.5952627000001485,1.7134000000000924,1.7970303000001877,,,,,anne_2,001,2020_Feb_10_1233,posner,3.1.5,59.90664148999604,
0.5,0,0,right,1,4,2,0,2,0,0,5,5,3,,,,,,,,,533.3096321999997,533.8091986999998,534.5265528,None,533.8256277999999,534.5100696999998,535.0275204999998,535.5114798999998,right,1,0.5792360999998891,535.0275204999998,None,None,533.8256277999999,535.0106060999997,0.5112876999996843,0.5945212999999967,1.7126762999996572,1.7961620999999468,,,,,anne_2,001,2020_Feb_10_1233,posner,3.1.5,59.90664148999604,
-0.5,180,0,left,2,3,2,0,2,0,0,6,6,4,,,,,,,,,535.6292329999997,536.1291275999997,536.8464796999997,None,536.1455136999998,536.8299453,537.3472331999997,537.8314468999997,left,1,0.659311500000058,537.3472331999997,None,None,536.1455136999998,537.3305091999996,0.5116561999998339,0.5948579000000791,1.713021900000058,1.7970172999998795,,,,,anne_2,001,2020_Feb_10_1233,posner,3.1.5,59.90664148999604,
-0.5,0,1,left,1,3,2,0,2,0,0,7,7,2,,,,,,,,,538.0323652999996,538.5321810999999,539.2498913,None,538.5489260999998,539.2331919999997,539.7506487999999,None,left,1,0.2719538999999713,539.7506487999999,None,None,538.5489260999998,539.7339270999996,0.5116090999999869,0.5949745999996594,1.7133365999998205,1.7967813999998725,,,,,anne_2,001,2020_Feb_10_1233,posner,3.1.5,59.90664148999604,
0.5,0,0,right,1,4,2,0,2,0,1,0,8,3,,,,,,,,,540.0516974999996,540.5516595999998,541.2695024999998,None,540.5684173999998,541.252712,541.7699206999996,None,right,1,0.37274740000020756,541.7699206999996,None,None,540.5684173999998,541.7535233999997,0.511760900000354,0.5952390000002197,1.7136012000000846,1.7969026000000667,,,,,anne_2,001,2020_Feb_10_1233,posner,3.1.5,59.90664148999604,
-0.5,0,1,left,1,3,2,0,2,0,1,1,9,0,,,,,,,,,542.1712684999998,542.6712161999999,543.3889968999997,None,542.6882002999996,543.3723317999998,543.8895395,None,left,1,0.30109829999992144,543.8895395,None,None,542.6882002999996,543.8728959999999,0.5116382000001067,0.5949980999998843,1.7132934999999634,1.7968458000000282,,,,,anne_2,001,2020_Feb_10_1233,posner,3.1.5,59.90664148999604,
0.5,180,1,right,2,4,2,0,2,0,1,2,10,6,,,,,,,,,544.2075332,544.7074805999996,545.4251211999999,None,544.7243466,545.4084364,545.9257723999999,None,right,1,0.24069069999995918,545.9257723999999,None,None,544.7243466,545.9092943999999,0.5117248999999902,0.5951146000002154,1.7135177000000112,1.796683099999882,,,,,anne_2,001,2020_Feb_10_1233,posner,3.1.5,59.90664148999604,
-0.5,180,0,left,2,3,2,0,2,0,1,3,11,4,,,,,,,,,546.1933374999999,546.6933769999996,547.4116033999999,None,546.7103020999998,547.3944545999998,547.9121633,None,left,1,0.326333799999702,547.9121633,None,None,546.7103020999998,547.8951380999997,0.5116069000000607,0.5950318000000152,1.7133469999998852,1.7968323000000055,,,,,anne_2,001,2020_Feb_10_1233,posner,3.1.5,59.90664148999604,
0.5,180,1,right,2,4,2,0,2,0,1,4,12,7,,,,,,,,,548.2629815999999,548.7630746999998,549.4806771999997,None,548.7796283999996,549.4638843999996,549.9814612,None,right,1,0.2971695000001091,549.9814612,None,None,548.7796283999996,549.9645081999997,0.5117783999999119,0.5950626999997439,1.7131910999996762,1.796822599999814,,,,,anne_2,001,2020_Feb_10_1233,posner,3.1.5,59.90664148999604,
0.5,180,1,right,2,4,2,0,2,0,1,5,13,5,,,,,,,,,550.2991340999997,550.7991789999996,551.5167336999998,None,550.8156922999997,551.5000886999997,552.0175872,None,right,1,0.27687269999978525,552.0175872,None,None,550.8156922999997,552.0006837999999,0.5115986000000703,0.5950842000002012,1.7130872000002455,1.796614000000318,,,,,anne_2,001,2020_Feb_10_1233,posner,3.1.5,59.90664148999604,
-0.5,0,1,left,1,3,2,0,2,0,1,6,14,1,,,,,,,,,552.3180865999998,552.8185147999998,553.5361518999998,None,552.8351511999999,553.5197215999997,554.0368120999997,None,left,1,0.30581009999968956,554.0368120999997,None,None,552.8351511999999,554.0201979999997,0.512249200000042,0.5957022000002326,1.7139169000001857,1.7974702999999863,,,,,anne_2,001,2020_Feb_10_1233,posner,3.1.5,59.90664148999604,
-0.5,0,1,left,1,3,2,0,2,0,1,7,15,2,,,,,,,,,554.3714001999997,554.8714831999996,555.5891942999997,None,554.8880993999996,555.5723478,556.0898858999999,None,left,1,0.27658889999975145,556.0898858999999,None,None,554.8880993999996,556.0731271,0.5118363000001409,0.5952320000001237,1.713461599999846,1.796882099999948,,,,,anne_2,001,2020_Feb_10_1233,posner,3.1.5,59.90664148999604,
0.5,180,1,right,2,4,2,0,2,0,2,0,16,5,,,,,,,,,556.3908187999996,556.8907429999999,557.6085578999996,None,556.9075278999999,557.5916900999996,558.1092479999998,None,right,1,0.28931280000006154,558.1092479999998,None,None,556.9075278999999,558.0925978999999,0.5114972999999736,0.5948665999999321,1.713328399999682,1.7966954999997142,,,,,anne_2,001,2020_Feb_10_1233,posner,3.1.5,59.90664148999604,
-0.5,0,1,left,1,3,2,0,2,0,2,1,17,1,,,,,,,,,558.4277319999997,558.9267710999998,559.6446349999997,None,558.9435145999996,559.6279239999999,560.1452474999996,None,left,1,0.25316590000011274,560.1452474999996,None,None,558.9435145999996,560.1285650999998,0.5109717000000273,0.5945913999998993,1.71274910000011,1.7963009000000056,,,,,anne_2,001,2020_Feb_10_1233,posner,3.1.5,59.90664148999604,
0.5,180,1,right,2,4,2,0,2,0,2,2,18,6,,,,,,,,,560.4298310999998,560.9298325,561.6471929999998,None,560.9463213999998,561.6306566999997,562.1481024999998,None,right,1,0.2585001000002194,562.1481024999998,None,None,560.9463213999998,562.1313341,0.5115425999997569,0.5948777999997219,1.7130296000000271,1.796319399999902,,,,,anne_2,001,2020_Feb_10_1233,posner,3.1.5,59.90664148999604,
0.5,180,1,right,2,4,2,0,2,0,2,3,19,7,,,,,,,,,562.4326931999999,562.9325251999999,563.6501469,None,562.9491294,563.6335335999997,564.1507678999997,None,right,1,0.303643799999918,564.1507678999997,None,None,562.9491294,564.1340611999999,0.5115203999998812,0.5948530000000574,1.713032199999816,1.7965432999999393,,,,,anne_2,001,2020_Feb_10_1233,posner,3.1.5,59.90664148999604,
0.5,0,0,right,1,4,2,0,2,0,2,4,20,3,,,,,,,,,564.4847679999998,564.9852038999998,565.7029316999997,None,565.0023677999998,565.6862744999999,566.2038138999997,566.6876229999998,right,1,0.6265974999996615,566.2038138999997,None,None,565.0023677999998,566.1869494999996,0.5118264000002455,0.5954082000002927,1.7135521000000153,1.796914800000195,,,,,anne_2,001,2020_Feb_10_1233,posner,3.1.5,59.90664148999604,
-0.5,180,0,left,2,3,2,0,2,0,2,5,21,4,,,,,,,,,566.8547332999997,567.3552599999998,568.0731541,None,567.3718501999997,568.0561559999996,568.5737104999998,None,left,1,0.3607508999998572,568.5737104999998,None,None,567.3718501999997,568.5568401999999,0.512263399999938,0.5956712999995943,1.7138178000000153,1.7972884999999224,,,,,anne_2,001,2020_Feb_10_1233,posner,3.1.5,59.90664148999604,
-0.5,0,1,left,1,3,2,0,2,0,2,6,22,2,,,,,,,,,568.9584310999999,569.4581963999999,570.1756556,None,569.4746318999996,570.1590272999997,570.6766420999998,None,left,1,0.40172830000028625,570.6766420999998,None,None,569.4746318999996,570.6600392,0.5114775000001828,0.5948112000000947,1.7132939000002807,1.7965075000001889,,,,,anne_2,001,2020_Feb_10_1233,posner,3.1.5,59.90664148999604,
-0.5,0,1,left,1,3,2,0,2,0,2,7,23,0,,,,,,,,,571.0944018999999,571.594392,572.3120335999997,None,571.6111329999999,572.2951773,572.8127654999998,None,left,1,0.25769960000025094,572.8127654999998,None,None,571.6111329999999,572.7958478999999,0.5117537000000993,0.5950755000003483,1.7131944000002477,1.7969162000003962,,,,,anne_2,001,2020_Feb_10_1233,posner,3.1.5,59.90664148999604,
0.5,180,1,right,2,4,2,0,2,0,3,0,24,6,,,,,,,,,573.0970175999996,573.5973775999996,574.3145132,None,573.6138333999997,574.2981500999999,574.8154574999999,None,right,1,0.3189096999999492,574.8154574999999,None,None,573.6138333999997,574.7986916999998,0.5118778999999449,0.5949776999996175,1.7131772999996429,1.796918199999709,,,,,anne_2,001,2020_Feb_10_1233,posner,3.1.5,59.90664148999604,
-0.5,180,0,left,2,3,2,0,2,0,3,1,25,4,,,,,,,,,575.1500854999999,575.6499139999996,576.3673798,None,575.6666145999998,576.3510577999996,576.8682887,None,left,1,0.314125100000183,576.8682887,None,None,575.6666145999998,576.8516212999998,0.5112985999999182,0.5945530999997573,1.7129861999997047,1.7962997999998151,,,,,anne_2,001,2020_Feb_10_1233,posner,3.1.5,59.90664148999604,
0.5,180,1,right,2,4,2,0,2,0,3,2,26,7,,,,,,,,,577.2029984999999,577.7029811999996,578.4203890999997,None,577.719474,578.4035568999998,578.9210991,None,right,1,0.3734238000001824,578.9210991,None,None,577.719474,578.9043070999996,0.5118031000001793,0.5949212999998963,1.7131128999999419,1.7967063000000962,,,,,anne_2,001,2020_Feb_10_1233,posner,3.1.5,59.90664148999604,
-0.5,0,1,left,1,3,2,0,2,0,3,3,27,1,,,,,,,,,579.3221937999997,579.8223414999998,580.5399427999996,None,579.8390534999999,580.5232355999997,581.0406562999997,None,left,1,0.2699300000003859,581.0406562999997,None,None,579.8390534999999,581.0239014999997,0.5118489999999838,0.5952961000002688,1.7133833000002596,1.7970534999999472,,,,,anne_2,001,2020_Feb_10_1233,posner,3.1.5,59.90664148999604,
0.5,180,1,right,2,4,2,0,2,0,3,4,28,5,,,,,,,,,581.3416586999997,581.8418859999997,582.5596145999998,None,581.8584423999996,582.5429452999997,583.0600231999997,None,right,1,0.3143403999997645,583.0600231999997,None,None,581.8584423999996,583.0434587999998,0.5116914999998698,0.5950057999998535,1.7132393000001684,1.796618800000033,,,,,anne_2,001,2020_Feb_10_1233,posner,3.1.5,59.90664148999604,
0.5,0,0,right,1,4,2,0,2,0,3,5,29,3,,,,,,,,,583.3946028,583.8945801999998,584.6122768,None,583.9118395999999,584.5954721999997,585.1129652,None,right,1,0.4615299000001869,585.1129652,None,None,583.9118395999999,585.0961531999997,0.5115679999998974,0.5951215000000047,1.7131242999998904,1.7966242999996211,,,,,anne_2,001,2020_Feb_10_1233,posner,3.1.5,59.90664148999604,
-0.5,0,1,left,1,3,2,0,2,0,3,6,30,0,,,,,,,,,585.5981748999998,586.097663,586.8152931999998,None,586.1143331999997,586.7986241999997,587.3160085,585.5981748999998,left,1,0.2503731000001608,587.3160085,None,None,586.1143331999997,587.2993472999997,0.5113240000000587,0.594547600000169,1.712990400000308,1.7964341000001696,,,,,anne_2,001,2020_Feb_10_1233,posner,3.1.5,59.90664148999604,
-0.5,0,1,left,1,3,2,0,2,0,3,7,31,2,,,,,,,,,587.5840346999998,588.083686,588.801442,None,588.1004571999997,588.7846012,589.3020374999996,None,left,1,0.26429300000017975,589.3020374999996,None,None,588.1004571999997,589.2853467,0.511446199999682,0.5948413000000983,1.7130849999998645,1.7966538000000583,,,,,anne_2,001,2020_Feb_10_1233,posner,3.1.5,59.90664148999604,
-0.5,180,0,left,2,3,2,0,2,0,4,0,32,4,,,,,,,,,589.5870196999999,590.0863194999997,590.8041218999997,None,590.1033632999997,590.7873290999996,591.3048341999997,None,left,1,0.3015040999998746,591.3048341999997,None,None,590.1033632999997,591.2882655999997,0.5113391999998385,0.5949052999999367,1.7132590999999593,1.7965995999998086,,,,,anne_2,001,2020_Feb_10_1233,posner,3.1.5,59.90664148999604,
-0.5,0,1,left,1,3,2,0,2,0,4,1,33,0,,,,,,,,,591.622813,592.1226179999999,592.8401160999997,None,592.1393693,592.8236646,593.3409058999996,None,left,1,0.26547149999987596,593.3409058999996,None,None,592.1393693,593.3240761999996,0.5115740999999616,0.5950942000004034,1.7130172000001949,1.796688400000221,,,,,anne_2,001,2020_Feb_10_1233,posner,3.1.5,59.90664148999604,
-0.5,0,1,left,1,3,2,0,2,0,4,2,34,1,,,,,,,,,593.6253138999996,594.1252823999998,594.8430850999998,None,594.1420988999998,594.8262228999997,595.3436889,None,left,1,0.25461360000008426,595.3436889,None,None,594.1420988999998,595.3268040999997,0.5115196000001561,0.595031199999994,1.7130157999999938,1.7969201999999314,,,,,anne_2,001,2020_Feb_10_1233,posner,3.1.5,59.90664148999604,
0.5,0,0,right,1,4,2,0,2,0,4,3,35,3,,,,,,,,,595.6281949999998,596.1280810999997,596.8456840999997,None,596.1448227999999,596.8290311999999,597.3464546999999,None,right,1,0.4118154000002505,597.3464546999999,None,None,596.1448227999999,597.3298442999999,0.511764200000016,0.5952627000001485,1.7135121999999683,1.797250200000235,,,,,anne_2,001,2020_Feb_10_1233,posner,3.1.5,59.90664148999604,
0.5,180,1,right,2,4,2,0,2,0,4,4,36,7,,,,,,,,,597.7813059,598.2808972999997,598.9987579999997,None,598.2977787,598.9820209,599.4993374999999,None,right,1,0.3548657000001185,599.4993374999999,None,None,598.2977787,599.4828246999996,0.5113799000000654,0.5949193000001287,1.7132814000001417,1.796541100000013,,,,,anne_2,001,2020_Feb_10_1233,posner,3.1.5,59.90664148999604,
0.5,180,1,right,2,4,2,0,2,0,4,5,37,6,,,,,,,,,599.8835037999997,600.3838292999999,601.1017580999996,None,600.4007339,601.0849458999996,601.6024723999999,None,right,1,0.31588100000044506,601.6024723999999,None,None,600.4007339,601.5854513999998,0.5115514999997686,0.5949728999999024,1.7131586000000425,1.7968519999999444,,,,,anne_2,001,2020_Feb_10_1233,posner,3.1.5,59.90664148999604,
0.5,180,1,right,2,4,2,0,2,0,4,6,38,5,,,,,,,,,601.9372128,602.4366980999998,603.1543124999998,None,602.4536024999998,603.1377734999996,603.6552115999998,None,right,1,0.3750586999999541,603.6552115999998,None,None,602.4536024999998,603.6384923999999,0.5112107999998443,0.5948051999998825,1.7129719999998088,1.7965702999999849,,,,,anne_2,001,2020_Feb_10_1233,posner,3.1.5,59.90664148999604,
-0.5,0,1,left,1,3,2,0,2,0,4,7,39,2,,,,,,,,,604.0566489999997,604.5564505999996,605.2740374,None,604.5731079999996,605.2576648999998,605.7746176999999,None,left,1,0.2476795999996284,605.7746176999999,None,None,604.5731079999996,605.7582003999996,0.5115632000001824,0.5949587999998585,1.7132895999998254,1.7965629000000263,,,,,anne_2,001,2020_Feb_10_1233,posner,3.1.5,59.90664148999604,
-0.5,0,1,left,1,3,2,0,2,0,5,0,40,0,,,,,,,,,606.0427221,606.5424491999997,607.2603990999996,None,606.5592594999998,607.2433189999997,607.7608189999996,None,left,1,0.2374259999996866,607.7608189999996,None,None,606.5592594999998,607.7442728999999,0.5116158000000723,0.5949583999999959,1.713403599999765,1.7966000999999778,,,,,anne_2,001,2020_Feb_10_1233,posner,3.1.5,59.90664148999604,
-0.5,0,1,left,1,3,2,0,2,0,5,1,41,2,,,,,,,,,608.0281882999998,608.5285233,609.2460186999997,None,608.5450845,609.2296051999997,609.7468411,None,left,1,0.26748319999978776,609.7468411,None,None,608.5450845,609.7302482999999,0.5116536000000451,0.5951444000002084,1.7133581000002778,1.7966716999999335,,,,,anne_2,001,2020_Feb_10_1233,posner,3.1.5,59.90664148999604,
0.5,180,1,right,2,4,2,0,2,0,5,2,42,5,,,,,,,,,610.0311505,610.5311167,611.2490322999997,None,610.5479664999998,611.232317,611.7494422,None,right,1,0.4088189999997667,611.7494422,None,None,610.5479664999998,611.7328983999996,0.511374799999885,0.594870599999922,1.7131298999997853,1.796480099999826,,,,,anne_2,001,2020_Feb_10_1233,posner,3.1.5,59.90664148999604,
-0.5,0,1,left,1,3,2,0,2,0,5,3,43,1,,,,,,,,,612.1840804999997,612.6841353,613.4020275999997,None,612.7008954999997,613.3850608999996,613.9027285999996,None,left,1,0.3514908000001924,613.9027285999996,None,None,612.7008954999997,613.8857641999998,0.5117157999998199,0.5953228999997009,1.7133344999997462,1.7967601999998806,,,,,anne_2,001,2020_Feb_10_1233,posner,3.1.5,59.90664148999604,
0.5,0,0,right,1,4,2,0,2,0,5,4,44,3,,,,,,,,,614.2707378,614.7704713999997,615.4881360999998,None,614.7869780999999,615.4713748999998,615.9887059999996,None,right,1,0.30557890000000043,615.9887059999996,None,None,614.7869780999999,615.9720496,0.511559799999759,0.5949462999997195,1.7131168999999318,1.7965245999998842,,,,,anne_2,001,2020_Feb_10_1233,posner,3.1.5,59.90664148999604,
0.5,180,1,right,2,4,2,0,2,0,5,5,45,7,,,,,,,,,616.3233143999996,616.8234103999998,617.5407972999997,None,616.8399049999998,617.5241039999996,618.0416898999997,None,right,1,0.43649520000008124,618.0416898999997,None,None,616.8399049999998,618.0247820999998,0.5117857000000186,0.5950270999996974,1.7131422999996175,1.7967773999998826,,,,,anne_2,001,2020_Feb_10_1233,posner,3.1.5,59.90664148999604,
0.5,180,1,right,2,4,2,0,2,0,5,6,46,6,,,,,,,,,618.5095953999999,619.0095507999999,619.7271286999999,None,619.0262264999997,619.7108005999999,620.2279407999999,None,right,1,0.2663857000002281,620.2279407999999,None,None,619.0262264999997,620.2112905999998,0.5114008999998987,0.5949397999997927,1.7131258999997954,1.7965751000001546,,,,,anne_2,001,2020_Feb_10_1233,posner,3.1.5,59.90664148999604,
-0.5,180,0,left,2,3,2,0,2,0,5,7,47,4,,,,,,,,,620.5127081999999,621.0123537,621.7299792999997,None,621.0290135,621.713409,622.2307618,None,left,1,0.431460799999968,622.2307618,None,None,621.0290135,622.2139542,0.5113771000001179,0.594790500000272,1.7129550000004201,1.7963417000000845,,,,,anne_2,001,2020_Feb_10_1233,posner,3.1.5,59.90664148999604,
0.5,180,1,right,2,4,2,0,2,0,6,0,48,7,,,,,,,,,622.6820666999997,623.1821089999999,623.8996066,None,623.1986463999997,623.8829725999999,624.4005699999998,None,right,1,0.3256261999999879,624.4005699999998,None,None,623.1986463999997,624.3840818999997,0.511688999999933,0.5950090999999702,1.7136593999998695,1.7965704999996888,,,,,anne_2,001,2020_Feb_10_1233,posner,3.1.5,59.90664148999604,
-0.5,180,0,left,2,3,2,0,2,0,6,1,49,4,,,,,,,,,624.7512385999999,625.2515447999999,625.9689724,None,625.2681113999997,625.9527744999996,626.4698882999996,None,left,1,0.43240670000022874,626.4698882999996,None,None,625.2681113999997,626.4532766999996,0.5118751999998494,0.5951340999999957,1.7135951000000205,1.7968719999998939,,,,,anne_2,001,2020_Feb_10_1233,posner,3.1.5,59.90664148999604,
0.5,180,1,right,2,4,2,0,2,0,6,2,50,5,,,,,,,,,626.9211642,627.4211664,628.1388070999997,None,627.4378176999999,628.1220823999997,628.6394604999996,None,right,1,0.39868609999984983,628.6394604999996,None,None,627.4378176999999,628.6228880999997,0.5113117000000784,0.5946082000000388,1.713014600000406,1.7964413000004242,,,,,anne_2,001,2020_Feb_10_1233,posner,3.1.5,59.90664148999604,
-0.5,0,1,left,1,3,2,0,2,0,6,3,51,2,,,,,,,,,629.0573135999998,629.5574176999999,630.2748789999996,None,629.5739549,630.2584689999999,630.7758089999998,None,left,1,0.31038760000001275,630.7758089999998,None,None,629.5739549,630.7589558999998,0.5117332999998325,0.5950300999998035,1.7132262000000082,1.7968211000002157,,,,,anne_2,001,2020_Feb_10_1233,posner,3.1.5,59.90664148999604,
0.5,0,0,right,1,4,2,0,2,0,6,4,52,3,,,,,,,,,631.1100689,631.6102245999996,632.3279177,None,631.6268262999997,632.3113656999999,632.8286337,None,right,1,0.4175011000002087,632.8286337,None,None,631.6268262999997,632.8119549999997,0.5116423999998005,0.5950751000000309,1.7133556999997381,1.7966934000000947,,,,,anne_2,001,2020_Feb_10_1233,posner,3.1.5,59.90664148999604,
-0.5,0,1,left,1,3,2,0,2,0,6,5,53,0,,,,,,,,,633.2632047999996,633.7633201999997,634.4809373999997,None,633.7798027999997,634.4640221999998,634.9816861999998,None,left,1,0.3285689000003913,634.9816861999998,None,None,633.7798027999997,634.9648517999999,0.511776099999679,0.5950920999998743,1.713293999999678,1.796817099999771,,,,,anne_2,001,2020_Feb_10_1233,posner,3.1.5,59.90664148999604,
-0.5,0,1,left,1,3,2,0,2,0,6,6,54,1,,,,,,,,,635.3326941,635.8329569999996,636.5502007999999,None,635.8493180999999,636.5336279999997,637.0511082999997,None,left,1,0.4590130000001409,637.0511082999997,None,None,635.8493180999999,637.0342845,0.5118483000001106,0.5952723000000333,1.7131617000000006,1.7966369999999188,,,,,anne_2,001,2020_Feb_10_1233,posner,3.1.5,59.90664148999604,
0.5,180,1,right,2,4,2,0,2,0,6,7,55,6,,,,,,,,,637.5359017999999,638.0357604999999,638.7535528999997,None,638.0525103,638.7365657,639.2541225,637.5359017999999,right,1,0.3282020999999986,639.2541225,None,None,638.0525103,639.2374272999996,0.5115835999999945,0.5949849999997241,1.713482699999986,1.7966410999997606,,,,,anne_2,001,2020_Feb_10_1233,posner,3.1.5,59.90664148999604,
0.5,180,1,right,2,4,2,0,2,0,7,0,56,5,,,,,,,,,639.6056433999997,640.1053092999996,640.8229505999998,None,640.1219065,640.8062161999997,641.3235952999999,None,right,1,0.27450610000005327,641.3235952999999,None,None,640.1219065,641.3069318999997,0.5113125999996555,0.5947001999998065,1.7129205999999613,1.7964147999996385,,,,,anne_2,001,2020_Feb_10_1233,posner,3.1.5,59.90664148999604,
-0.5,0,1,left,1,3,2,0,2,0,7,1,57,1,,,,,,,,,641.6249556999996,642.1245709999998,642.8424092999999,None,642.1412569999998,642.8255563999996,643.3430793999996,None,left,1,0.31095219999997425,643.3430793999996,None,None,642.1412569999998,643.3263683999999,0.511313599999994,0.594917599999917,1.713087799999812,1.7965229999999792,,,,,anne_2,001,2020_Feb_10_1233,posner,3.1.5,59.90664148999604,
0.5,180,1,right,2,4,2,0,2,0,7,2,58,6,,,,,,,,,643.6778563999997,644.1776328999999,644.8951938999999,None,644.1940178999998,644.8785779999998,645.3957473999999,None,right,1,0.29837329999963913,645.3957473999999,None,None,644.1940178999998,645.3792581999996,0.5115121999997427,0.5949741999997968,1.7131196000000273,1.7965076999998928,,,,,anne_2,001,2020_Feb_10_1233,posner,3.1.5,59.90664148999604,
0.5,180,1,right,2,4,2,0,2,0,7,3,59,7,,,,,,,,,645.7138222999997,646.2138845,646.9313265999999,None,646.2302366999998,646.9148375,647.4320756999996,None,right,1,0.3179610000001958,647.4320756999996,None,None,646.2302366999998,647.4154881,0.511667899999793,0.5947139999998399,1.7132560000000012,1.7965018999998392,,,,,anne_2,001,2020_Feb_10_1233,posner,3.1.5,59.90664148999604,
-0.5,0,1,left,1,3,2,0,2,0,7,4,60,0,,,,,,,,,647.7667438999997,648.2664510999998,648.9839741999999,None,648.2833440999998,648.9674103999996,649.4847370999996,None,left,1,0.3213103000002775,649.4847370999996,None,None,648.2833440999998,649.4681971,0.5115170999997645,0.5949920999996721,1.7132293999998183,1.7967914000000746,,,,,anne_2,001,2020_Feb_10_1233,posner,3.1.5,59.90664148999604,
-0.5,0,1,left,1,3,2,0,2,0,7,5,61,2,,,,,,,,,649.8355577999996,650.3359750999998,651.0535958999999,None,650.3528687999997,651.0368874999999,651.5542396999999,None,left,1,0.2677370000001247,651.5542396999999,None,None,650.3528687999997,651.5377255999997,0.5116797000000588,0.5953115000002072,1.7134062000000085,1.7967220000000452,,,,,anne_2,001,2020_Feb_10_1233,posner,3.1.5,59.90664148999604,
0.5,0,0,right,1,4,2,0,2,0,7,6,62,3,,,,,,,,,651.8383617999998,652.3386458999998,653.0564197999997,None,652.3554841999999,653.0398241999997,653.5570106999999,None,right,1,0.4571415000000343,653.5570106999999,None,None,652.3554841999999,653.5406799999996,0.5120407999997951,0.5957195999999385,1.7140485999998418,1.7971631000000343,,,,,anne_2,001,2020_Feb_10_1233,posner,3.1.5,59.90664148999604,
-0.5,180,0,left,2,3,2,0,2,0,7,7,63,4,,,,,,,,,654.0417358999998,654.5417447,655.2593182999999,None,654.5585031999999,655.2428852999997,655.7603111999997,654.0417358999998,left,1,0.37380750000011176,655.7603111999997,None,None,654.5585031999999,655.7435787999998,0.5116239000003588,0.5950119000003724,1.71344020000015,1.796690099999978,,,,,anne_2,001,2020_Feb_10_1233,posner,3.1.5,59.90664148999604,
0.5,0,0,right,1,4,2,0,2,0,8,0,64,3,,,,,,,,,656.1614310999998,656.6614427,657.3791679999999,None,656.6780672,657.3623248999997,657.8797135,None,right,1,0.334300500000154,657.8797135,None,None,656.6780672,657.8632770999998,0.5116477000001396,0.5949648999999226,1.7134602000000996,1.7967595999998593,,,,,anne_2,001,2020_Feb_10_1233,posner,3.1.5,59.90664148999604,
0.5,180,1,right,2,4,2,0,2,0,8,1,65,7,,,,,,,,,658.2307999,658.7308757999999,659.4485049,None,658.7476239999996,659.4320711999999,659.9492685999999,None,right,1,0.42492289999972854,659.9492685999999,None,None,658.7476239999996,659.9326978999998,0.5115905999996357,0.5948491999997714,1.7133967999998276,1.796592099999998,,,,,anne_2,001,2020_Feb_10_1233,posner,3.1.5,59.90664148999604,
0.5,180,1,right,2,4,2,0,2,0,8,2,66,5,,,,,,,,,660.4005064999997,660.9006323999997,661.6181385,None,660.9171864999998,661.6014832999999,662.1188331999997,None,right,1,0.30321290000028966,662.1188331999997,None,None,660.9171864999998,662.1026217999997,0.511903600000096,0.5950754000000416,1.7138733000001594,1.7968200000000252,,,,,anne_2,001,2020_Feb_10_1233,posner,3.1.5,59.90664148999604,
-0.5,180,0,left,2,3,2,0,2,0,8,3,67,4,,,,,,,,,662.4530895999997,662.9534558,663.6711218999999,None,662.9700005999998,663.6542864999997,664.1715758999999,None,left,1,0.45057390000010855,664.1715758999999,None,None,662.9700005999998,664.1548797999999,0.5118051999997988,0.5950742999998511,1.713210700000218,1.7966637999998056,,,,,anne_2,001,2020_Feb_10_1233,posner,3.1.5,59.90664148999604,
-0.5,0,1,left,1,3,2,0,2,0,8,4,68,1,,,,,,,,,664.6399672999996,665.1396761999999,665.8571614999996,None,665.1563572999999,665.8406421,666.3579885999998,None,left,1,0.42412400000011985,666.3579885999998,None,None,665.1563572999999,666.3412418999997,0.5113688999999795,0.5949421000000257,1.712909800000034,1.796448699999928,,,,,anne_2,001,2020_Feb_10_1233,posner,3.1.5,59.90664148999604,
-0.5,0,1,left,1,3,2,0,2,0,8,5,69,0,,,,,,,,,666.8094668999997,667.3095083999997,668.0268594999998,None,667.3259962999996,668.0103491,668.5276651999998,None,left,1,0.41447610000022905,668.5276651999998,None,None,667.3259962999996,668.5107954,0.5116303000004336,0.5948957000000519,1.712902600000234,1.7963735000002998,,,,,anne_2,001,2020_Feb_10_1233,posner,3.1.5,59.90664148999604,
-0.5,0,1,left,1,3,2,0,2,0,8,6,70,2,,,,,,,,,668.9627796,669.4625951999997,670.1799501999999,None,669.4790939,670.163321,670.6806698999999,None,left,1,0.30932579999989684,670.6806698999999,None,None,669.4790939,670.6639467999998,0.5114823999997498,0.5944870999996965,1.712818199999674,1.7961955000000671,,,,,anne_2,001,2020_Feb_10_1233,posner,3.1.5,59.90664148999604,
0.5,180,1,right,2,4,2,0,2,0,8,7,71,6,,,,,,,,,671.0145223999998,671.5149884999996,672.2328628,None,671.5319501999998,672.2161066999997,672.733385,None,right,1,0.3686581000001752,672.733385,None,None,671.5319501999998,672.7166351999999,0.5123111000002609,0.5958600000003571,1.7139364000004207,1.7976022000002558,,,,,anne_2,001,2020_Feb_10_1233,posner,3.1.5,59.90664148999604,
0.5,180,1,right,2,4,2,0,2,0,9,0,72,5,,,,,,,,,673.1180242999999,673.6180799999997,674.3356827999996,None,673.6346971999997,674.3190433999998,674.8362219999999,None,right,1,0.2657702000001336,674.8362219999999,None,None,673.6346971999997,674.8196730999998,0.5113734999999906,0.5948038999999881,1.7129523000003246,1.7966009000001577,,,,,anne_2,001,2020_Feb_10_1233,posner,3.1.5,59.90664148999604,
-0.5,180,0,left,2,3,2,0,2,0,9,1,73,4,,,,,,,,,675.1210757999997,675.6206989999996,676.3385945999999,None,675.6374621999998,676.3218875999996,676.8391428,None,left,1,0.3908776000002945,676.8391428,None,None,675.6374621999998,676.8225699,0.5113847000002352,0.5948665999999321,1.7132308000000194,1.7965487000001303,,,,,anne_2,001,2020_Feb_10_1233,posner,3.1.5,59.90664148999604,
-0.5,0,1,left,1,3,2,0,2,0,9,2,74,1,,,,,,,,,677.2570627999999,677.7571245999998,678.4747388999999,None,677.7737013999999,678.4581257999998,678.9754670999996,None,left,1,0.39071530000001076,678.9754670999996,None,None,677.7737013999999,678.9588128999999,0.5117645999998786,0.59508679999999,1.7134228999998413,1.796834299999773,,,,,anne_2,001,2020_Feb_10_1233,posner,3.1.5,59.90664148999604,
0.5,0,0,right,1,4,2,0,2,0,9,3,75,3,,,,,,,,,679.3931912999997,679.8934703999998,680.6109819999997,None,679.9100297999998,680.5943156999997,681.1117757999996,None,right,1,0.2782063999998172,681.1117757999996,None,None,679.9100297999998,681.0948619999999,0.5118191999999908,0.5952902000003633,1.713194200000089,1.7969009000003098,,,,,anne_2,001,2020_Feb_10_1233,posner,3.1.5,59.90664148999604,
