targetX,cueOri,congr,corrAns,pin_cue,pin_target,block.thisRepN,block.thisTrialN,block.thisN,block.thisIndex,posner_task.thisRepN,posner_task.thisTrialN,posner_task.thisN,posner_task.thisIndex,port_start_block.started,port_start_block.stopped,text_2.started,text_2.stopped,p_port.started,p_port.stopped,text.started,text.stopped,fixation_1.started,fixation_1.stopped,fixation_2.started,fixation_2.stopped,cue.started,cue.stopped,target.started,target.stopped,correct_key_resp.keys,correct_key_resp.corr,correct_key_resp.rt,correct_key_resp.started,correct_key_resp.stopped,early_resp.keys,early_resp.started,early_resp.stopped,trigger_cue.started,trigger_cue.stopped,trigger_target.started,trigger_target.stopped,early_resp.rt,break_text.started,break_text.stopped,end_port.started,end_port.stopped,participant,session,date,expName,psychopyVersion,frameRate,
-0.5,0,1,left,1,3,0,0,0,0,0,0,0,0,1.6899999536690302e-05,0.09461419999934151,13.69806299999982,None,1.4100000043981709e-05,0.0994300000002113,15.583722400000624,None,15.92708599999969,16.43517780000002,17.13598869999987,None,16.43517780000002,17.13598869999987,17.636734900001102,None,left,1,0.28469049999876006,17.636734900001102,None,None,16.43517780000002,17.636734900001102,0.5003976999996667,0.6009376000001794,1.7021168999999645,1.8025072999989789,,,,,,oren_2,001,2020_Jan_29_1325,posner,3.1.5,59.91859459724376,
0.5,0,0,right,1,4,0,0,0,0,0,1,1,3,,,,,,,,,17.938062799999898,18.437792900000204,19.155369199999768,None,18.45460439999988,19.13893740000094,19.656025899999804,20.140380800001367,right,1,0.6014321999991807,19.656025899999804,None,None,18.45460439999988,19.63953390000097,0.5105364999999438,0.5942900999998528,1.7122555000005377,1.7960917000000336,,,,,,oren_2,001,2020_Jan_29_1325,posner,3.1.5,59.91859459724376,
-0.5,180,0,left,2,3,0,0,0,0,0,2,2,4,,,,,,,,,20.274451500001305,20.774474400001054,21.492180299999745,None,20.791203000000678,21.475451500000418,21.992857500001264,None,left,1,0.2966233999995893,21.992857500001264,None,None,20.791203000000678,21.975942600000053,0.5118322999987868,0.595161499999449,1.7132864999985031,1.797089399999095,,,,,,oren_2,001,2020_Jan_29_1325,posner,3.1.5,59.91859459724376,
-0.5,0,1,left,1,3,0,0,0,0,0,3,3,2,,,,,,,,,22.310664700000416,22.81071080000038,23.52811550000115,None,22.827264200001082,23.511552300000403,24.02872870000101,None,left,1,0.2606799000004685,24.02872870000101,None,None,22.827264200001082,24.012138300000515,0.5114799000002677,0.5951033000001189,1.7129060999996,1.796376500000406,,,,,,oren_2,001,2020_Jan_29_1325,posner,3.1.5,59.91859459724376,
0.5,180,1,right,2,4,0,0,0,0,0,4,4,6,,,,,,,,,24.313192400000844,24.813482600000498,25.53112770000007,None,24.830128000001423,25.51442010000028,26.03166340000098,None,right,1,0.17807270000048447,26.03166340000098,None,None,24.830128000001423,26.01494190000085,0.5118801999997231,0.5950952000002872,1.7133224999997765,1.7967714000005799,,,,,,oren_2,001,2020_Jan_29_1325,posner,3.1.5,59.91859459724376,
0.5,180,1,right,2,4,0,0,0,0,0,5,5,5,,,,,,,,,26.232659400000557,26.7326905000009,27.450250300000334,None,26.749411599999803,27.433695900001112,27.951102200000605,None,right,1,0.4663796999993792,27.951102200000605,None,None,26.749411599999803,27.93437790000098,0.5114857999997184,0.5947799999994459,1.7131618999992497,1.7963958000000275,,,,,,oren_2,001,2020_Jan_29_1325,posner,3.1.5,59.91859459724376,
-0.5,0,1,left,1,3,0,0,0,0,0,6,6,1,,,,,,,,,28.435498500000904,28.935593199999857,29.653553699999975,None,28.952482200000304,29.63652379999985,30.154141900000468,28.435498500000904,left,1,0.24737160000040603,30.154141900000468,None,None,28.952482200000304,30.137177700000393,0.5118110000003071,0.5954347000006237,1.7133819999999105,1.7971049999996467,,,,,,oren_2,001,2020_Jan_29_1325,posner,3.1.5,59.91859459724376,
0.5,180,1,right,2,4,0,0,0,0,0,7,7,7,,,,,,,,,30.422044700000697,30.92173730000104,31.639384100000825,None,30.938384600000063,31.62281350000012,32.14021700000012,None,right,1,0.2292219999999361,32.14021700000012,None,None,30.938384600000063,32.12361849999979,0.5112284999995609,0.5947513999999501,1.7130847000007634,1.7966949000001478,,,,,,oren_2,001,2020_Jan_29_1325,posner,3.1.5,59.91859459724376,
0.5,180,1,right,2,4,0,0,0,0,1,0,8,5,,,,,,,,,32.39116860000104,32.891287600001306,33.60888049999994,None,32.90778880000107,33.59219780000058,34.10966700000063,None,right,1,0.22814269999980752,34.10966700000063,None,None,32.90778880000107,34.09308340000098,0.5115857999990112,0.5950152000004891,1.7133670999992319,1.7965227000004234,,,,,,oren_2,001,2020_Jan_29_1325,posner,3.1.5,59.91859459724376,
-0.5,0,1,left,1,3,0,0,0,0,1,1,9,1,,,,,,,,,34.36077010000008,34.860597300001245,35.57818520000001,None,34.87713520000034,35.56169039999986,36.07877870000084,None,left,1,0.24268190000111645,36.07877870000084,None,None,34.87713520000034,36.062125899999955,0.5114014999999199,0.5949434999984078,1.7129153999994742,1.796279099999083,,,,,,oren_2,001,2020_Jan_29_1325,posner,3.1.5,59.91859459724376,
0.5,180,1,right,2,4,0,0,0,0,1,2,10,7,,,,,,,,,36.34614970000075,36.84653319999961,37.56445280000116,None,36.86345179999989,37.54752590000135,38.06487630000083,None,right,1,0.08065489999899,38.06487630000083,None,None,36.86345179999989,38.04819520000092,0.5119448000004923,0.5957093000015448,1.7135718000008637,1.7971133000010013,,,,,,oren_2,001,2020_Jan_29_1325,posner,3.1.5,59.91859459724376,
-0.5,180,0,left,2,3,0,0,0,0,1,3,11,4,,,,,,,,,38.16551419999996,38.66583499999979,39.38342990000092,None,38.682643300000564,39.36666800000057,39.88429400000132,None,right,0,0.21323200000006182,39.88429400000132,None,None,38.682643300000564,39.86738260000129,0.5115531999999803,0.5951256000007561,1.7130856000003405,1.7967595999998593,,,,,,oren_2,001,2020_Jan_29_1325,posner,3.1.5,59.91859459724376,
0.5,0,0,right,1,4,0,0,0,0,1,4,12,3,,,,,,,,,40.11901630000102,40.618537899999865,41.336007200001404,None,40.63510459999998,41.319696900000054,41.83673369999997,None,right,1,0.2927462999996351,41.83673369999997,None,None,40.63510459999998,41.82024629999978,0.5113167999988946,0.5947242000002007,1.7130092999996123,1.7963063999995939,,,,,,oren_2,001,2020_Jan_29_1325,posner,3.1.5,59.91859459724376,
-0.5,0,1,left,1,3,0,0,0,0,1,5,13,0,,,,,,,,,42.15444329999991,42.65473180000117,43.37250500000118,None,42.6714935,43.35560880000048,43.87318190000042,None,left,1,0.3202973999996175,43.87318190000042,None,None,42.6714935,43.85615190000135,0.5119233000004897,0.5952094000003854,1.7133335000016814,1.797072000001208,,,,,,oren_2,001,2020_Jan_29_1325,posner,3.1.5,59.91859459724376,
0.5,180,1,right,2,4,0,0,0,0,1,6,14,6,,,,,,,,,44.224173300000984,44.72405500000059,45.44210980000025,None,44.74095060000036,45.425184400000944,45.94248080000034,None,right,1,0.1709315999996761,45.94248080000034,None,None,44.74095060000036,45.92587210000056,0.5113454000002093,0.5947713000005024,1.7131403000003047,1.7965488000008918,,,,,,oren_2,001,2020_Jan_29_1325,posner,3.1.5,59.91859459724376,
-0.5,0,1,left,1,3,0,0,0,0,1,7,15,2,,,,,,,,,46.143073999999615,46.64365259999977,47.361273900000015,None,46.66016160000072,47.344594100000904,47.86193319999984,None,right,0,0.18749229999957606,47.86193319999984,None,None,46.66016160000072,47.845181599999705,0.5119859000005818,0.5951934999993682,1.7135091000000102,1.797020899999552,,,,,,oren_2,001,2020_Jan_29_1325,posner,3.1.5,59.91859459724376,
-0.5,0,1,left,1,3,0,0,0,0,2,0,16,0,,,,,,,,,48.07936640000116,48.5795736,49.29698090000056,None,48.596059100000275,49.28041850000045,49.797802500001126,None,left,1,0.283746400000382,49.797802500001126,None,None,48.596059100000275,49.78130220000094,0.5118452000006073,0.5953546000000642,1.7135529999995924,1.796992899999168,,,,,,oren_2,001,2020_Jan_29_1325,posner,3.1.5,59.91859459724376,
0.5,180,1,right,2,4,0,0,0,0,2,1,17,5,,,,,,,,,50.09934930000054,50.598875800000314,51.316518200001155,None,50.61559440000019,51.300054200000886,51.817201200001364,None,right,1,0.3602611000005709,51.817201200001364,None,None,50.61559440000019,51.80077970000093,0.5110410999986925,0.5946235999999772,1.7129057999991346,1.796339499998794,,,,,,oren_2,001,2020_Jan_29_1325,posner,3.1.5,59.91859459724376,
0.5,0,0,right,1,4,0,0,0,0,2,2,18,3,,,,,,,,,52.201581799999985,52.70194509999965,53.419640100000834,None,52.71854110000095,53.402731300000596,53.920222800001284,54.4041511000014,right,1,0.5132565000003524,53.920222800001284,None,None,52.71854110000095,53.903718700001264,0.5115135000014561,0.5947749000006297,1.7132724000002781,1.7965562999997928,,,,,,oren_2,001,2020_Jan_29_1325,posner,3.1.5,59.91859459724376,
0.5,180,1,right,2,4,0,0,0,0,2,3,19,6,,,,,,,,,54.45520940000097,54.954893000000084,55.67277819999981,None,54.971766700000444,55.65580840000075,56.17344690000027,56.657206300000325,right,1,0.5321438999999373,56.17344690000027,None,None,54.971766700000444,56.15659520000008,0.5113848000000871,0.5949366999993799,1.7130667000001267,1.7968082000006689,,,,,,oren_2,001,2020_Jan_29_1325,posner,3.1.5,59.91859459724376,
-0.5,180,0,left,2,3,0,0,0,0,2,4,20,4,,,,,,,,,56.725338700000066,57.224843500000134,57.942283399999724,None,57.24151660000098,57.92582150000089,58.44326499999988,None,left,1,0.37415320000036445,58.44326499999988,None,None,57.24151660000098,58.42635270000028,0.5114178999992873,0.5948783000003459,1.7129096999997273,1.7964720999989368,,,,,,oren_2,001,2020_Jan_29_1325,posner,3.1.5,59.91859459724376,
-0.5,0,1,left,1,3,0,0,0,0,2,5,21,1,,,,,,,,,58.84419880000132,59.34452380000039,60.062005400001,None,59.36121450000064,60.045355300000665,60.56279100000029,None,left,1,0.302662699999928,60.56279100000029,None,None,59.36121450000064,60.545876100000896,0.5118492999990849,0.5950380999984191,1.7131897999988723,1.796836199999234,,,,,,oren_2,001,2020_Jan_29_1325,posner,3.1.5,59.91859459724376,
0.5,180,1,right,2,4,0,0,0,0,2,6,22,7,,,,,,,,,60.89668239999992,61.397162400000525,62.11501970000063,None,61.41389710000112,62.098289900000964,62.615452000000005,None,right,1,0.23416160000124364,62.615452000000005,None,None,61.41389710000112,62.59901180000088,0.5121803000001819,0.595681799999511,1.714013499999055,1.7974945999994816,,,,,,oren_2,001,2020_Jan_29_1325,posner,3.1.5,59.91859459724376,
-0.5,0,1,left,1,3,0,0,0,0,2,7,23,2,,,,,,,,,62.86621399999967,63.36656210000001,64.08424399999967,None,63.383420000000115,64.06748700000026,64.58510230000138,None,left,1,0.2164823000002798,64.58510230000138,None,None,63.383420000000115,64.56813930000135,0.5119197999993048,0.5954992999995739,1.7134917999992467,1.7970160999993823,,,,,,oren_2,001,2020_Jan_29_1325,posner,3.1.5,59.91859459724376,
-0.5,180,0,left,2,3,0,0,0,0,3,0,24,4,,,,,,,,,64.81981819999965,65.31951780000054,66.03686730000118,None,65.33587439999974,66.0203216000009,66.53752290000011,None,left,1,0.31203389999973297,66.53752290000011,None,None,65.33587439999974,66.52105389999997,0.5118230000007316,0.5947003000001132,1.7130815000000439,1.796559200000047,,,,,,oren_2,001,2020_Jan_29_1325,posner,3.1.5,59.91859459724376,
0.5,0,0,right,1,4,0,0,0,0,3,1,25,3,,,,,,,,,66.87215190000097,67.3720831999999,68.08987789999992,None,67.38882580000063,68.0731463000011,68.59065480000027,None,right,1,0.30701070000031905,68.59065480000027,None,None,67.38882580000063,68.57394000000022,0.5114236999997956,0.5947938999997859,1.713270399999601,1.796547500000088,,,,,,oren_2,001,2020_Jan_29_1325,posner,3.1.5,59.91859459724376,
-0.5,0,1,left,1,3,0,0,0,0,3,2,26,0,,,,,,,,,68.92480109999997,69.4248821000001,70.14266239999961,None,69.44185300000026,70.12601410000025,70.64325640000061,None,left,1,0.28626400000030117,70.64325640000061,None,None,69.44185300000026,70.62660119999964,0.5115212000000611,0.5948456000005535,1.7132213000004413,1.7972379000002547,,,,,,oren_2,001,2020_Jan_29_1325,posner,3.1.5,59.91859459724376,
-0.5,0,1,left,1,3,0,0,0,0,3,3,27,1,,,,,,,,,70.96075040000142,71.46125100000063,72.17876410000099,None,71.47778950000065,72.16225060000033,72.67954129999998,None,left,1,0.29800629999954253,72.67954129999998,None,None,71.47778950000065,72.66275029999997,0.5117611999994551,0.5956668999988324,1.713245699998879,1.7964878999991925,,,,,,oren_2,001,2020_Jan_29_1325,posner,3.1.5,59.91859459724376,
-0.5,0,1,left,1,3,0,0,0,0,3,4,28,2,,,,,,,,,72.99724659999993,73.4973074999998,74.21492920000128,None,73.51407240000117,74.19824429999971,74.7155500000008,None,left,1,0.2940091000000393,74.7155500000008,None,None,73.51407240000117,74.69886349999979,0.5114362000003894,0.5949174999987008,1.713273899998967,1.7965438999999606,,,,,,oren_2,001,2020_Jan_29_1325,posner,3.1.5,59.91859459724376,
0.5,180,1,right,2,4,0,0,0,0,3,5,29,6,,,,,,,,,75.03319960000044,75.53348850000111,76.25123820000044,None,75.55028620000121,76.23432630000025,76.75168190000113,None,left,0,0.40180549999968207,76.75168190000113,None,None,75.55028620000121,76.73524910000015,0.5117165999999997,0.5946480999991763,1.713455699999031,1.7968708999997034,,,,,,oren_2,001,2020_Jan_29_1325,posner,3.1.5,59.91859459724376,
0.5,180,1,right,2,4,0,0,0,0,3,6,30,7,,,,,,,,,77.16959510000015,77.66982800000005,78.38718830000107,None,77.68628210000134,78.37079850000009,78.88782069999979,None,right,1,0.26583410000057484,78.88782069999979,None,None,77.68628210000134,78.87135590000071,0.5119283999993058,0.5952660999992077,1.7134472999987338,1.7969869999997172,,,,,,oren_2,001,2020_Jan_29_1325,posner,3.1.5,59.91859459724376,
0.5,180,1,right,2,4,0,0,0,0,3,7,31,5,,,,,,,,,79.172451800001,79.67267370000081,80.39027390000047,None,79.68910810000125,80.37342030000036,80.89088919999995,None,right,1,0.45470690000001923,80.89088919999995,None,None,79.68910810000125,80.8740730999998,0.5118022999995446,0.5949153000001388,1.7132007000000158,1.796665199999552,,,,,,oren_2,001,2020_Jan_29_1325,posner,3.1.5,59.91859459724376,
-0.5,0,1,left,1,3,0,0,0,0,4,0,32,2,,,,,,,,,81.37507800000094,81.87549910000052,82.59332689999974,None,81.89247930000056,82.57647050000014,83.0938898000004,81.37507800000094,left,1,0.34769559999949706,83.0938898000004,None,right,81.89247930000056,83.07705180000085,0.5116436000007525,0.5950905000008788,1.7131867000007333,1.7968337000002066,0.8610512000013841,,,,,oren_2,001,2020_Jan_29_1325,posner,3.1.5,59.91859459724376,
0.5,180,1,right,2,4,0,0,0,0,4,1,33,5,,,,,,,,,83.46192840000003,83.96182940000108,84.67942930000027,None,83.97823430000062,84.66267630000038,85.18002400000114,None,right,1,0.3897464999990916,85.18002400000114,None,None,83.97823430000062,85.16366589999961,0.5113793000000442,0.5947636999990209,1.7131993000002694,1.7962284999994154,,,,,,oren_2,001,2020_Jan_29_1325,posner,3.1.5,59.91859459724376,
0.5,180,1,right,2,4,0,0,0,0,4,2,34,6,,,,,,,,,85.59753920000003,86.09786390000045,86.81561220000003,None,86.1146606000002,86.79895510000097,87.31630720000067,87.80050090000077,right,1,0.7013931000001321,87.31630720000067,None,None,86.1146606000002,87.29998420000084,0.5118597000000591,0.5954982000002929,1.7139613999988796,1.7971763000005012,,,,,,oren_2,001,2020_Jan_29_1325,posner,3.1.5,59.91859459724376,
-0.5,0,1,left,1,3,0,0,0,0,4,3,35,0,,,,,,,,,88.03474579999965,88.534732600001,89.25234319999981,None,88.55128010000044,89.23569710000083,89.75329580000107,None,left,1,0.1842553999995289,89.75329580000107,None,None,88.55128010000044,89.73634350000066,0.5115633000004891,0.594899699999587,1.7131616000006034,1.7968085000011342,,,,,,oren_2,001,2020_Jan_29_1325,posner,3.1.5,59.91859459724376,
0.5,180,1,right,2,4,0,0,0,0,4,4,36,7,,,,,,,,,89.95377809999991,90.45418600000085,91.1718836,None,90.47077610000088,91.15501930000028,91.67235230000006,92.15625320000072,None,0,,91.67235230000006,None,None,90.47077610000088,91.65553329999966,0.5119868999991013,0.5951764999990701,1.713312500000029,1.7971548000004987,,,,,,oren_2,001,2020_Jan_29_1325,posner,3.1.5,59.91859459724376,
-0.5,180,0,left,2,3,0,0,0,0,4,5,37,4,,,,,,,,,92.65700690000085,93.15780170000107,93.87546600000132,92.65700690000085,93.17460949999986,93.85862009999983,94.37594750000062,None,left,1,0.313748200000191,94.37594750000062,None,None,93.17460949999986,94.35931940000046,0.5136987999994744,0.5971783999993932,1.715478099999018,1.7986784999993688,,,,,,oren_2,001,2020_Jan_29_1325,posner,3.1.5,59.91859459724376,
0.5,0,0,right,1,4,0,0,0,0,4,6,38,3,,,,,,,,,94.71084580000024,95.2109332,95.92821259999982,None,95.22719380000126,95.91156840000076,96.42893189999995,None,right,1,0.32463690000076895,96.42893189999995,None,None,95.22719380000126,96.41230460000043,0.5118213000005198,0.5948948000004748,1.7131702000006044,1.7963565000009112,,,,,,oren_2,001,2020_Jan_29_1325,posner,3.1.5,59.91859459724376,
-0.5,0,1,left,1,3,0,0,0,0,4,7,39,1,,,,,,,,,96.78023340000072,97.28010660000109,97.99754190000021,None,97.2965632000014,97.98091770000065,98.49832059999972,None,left,1,0.3511670000007143,98.49832059999972,None,None,97.2965632000014,98.4817593000007,0.5115574999999808,0.5950020999989647,1.713192600000184,1.79656359999899,,,,,,oren_2,001,2020_Jan_29_1325,posner,3.1.5,59.91859459724376,
-0.5,0,1,left,1,3,0,0,0,0,5,0,40,0,,,,,,,,,98.86614499999996,99.3662691999998,100.08413110000038,None,99.3832198,100.06716410000081,100.58479340000122,None,left,1,0.3449300000011135,100.58479340000122,None,None,99.3832198,100.56788820000111,0.5117453999991994,0.5952182999990328,1.7133469000000332,1.7968894000005093,,,,,,oren_2,001,2020_Jan_29_1325,posner,3.1.5,59.91859459724376,
0.5,180,1,right,2,4,0,0,0,0,5,1,41,7,,,,,,,,,100.9524278000008,101.45244040000034,102.17027210000015,None,101.46926739999981,102.15365240000028,102.67090590000043,None,right,1,0.3866765000002488,102.67090590000043,None,right,101.46926739999981,102.65435450000041,0.5114673999996739,0.5948602999997092,1.7133604000009655,1.7965696000010212,0.6126440999996703,,,,,oren_2,001,2020_Jan_29_1325,posner,3.1.5,59.91859459724376,
0.5,180,1,right,2,4,0,0,0,0,5,2,42,6,,,,,,,,,103.08889950000048,103.5886644000002,104.30630740000015,None,103.60543630000029,104.28985490000014,104.80709230000139,None,right,1,0.28263929999957327,104.80709230000139,None,None,103.60543630000029,104.79055570000128,0.5113003999995271,0.5948802000002615,1.7131307999989076,1.7965789999998378,,,,,,oren_2,001,2020_Jan_29_1325,posner,3.1.5,59.91859459724376,
-0.5,0,1,left,1,3,0,0,0,0,5,3,43,1,,,,,,,,,105.10748680000142,105.60819620000075,106.3256351,None,105.62492680000105,106.30921219999982,106.82648510000035,None,left,1,0.4071746000008716,106.82648510000035,None,None,105.62492680000105,106.80997650000063,0.5115724999996019,0.595178699999451,1.71333119999872,1.7968079000002035,,,,,,oren_2,001,2020_Jan_29_1325,posner,3.1.5,59.91859459724376,
0.5,0,0,right,1,4,0,0,0,0,5,4,44,3,,,,,,,,,107.26132090000101,107.76149860000078,108.478896300001,None,107.77783620000082,108.46229930000118,108.9796951999997,None,right,1,0.33397340000010445,108.9796951999997,None,None,107.77783620000082,108.96283700000095,0.5117384999994101,0.5950847000003705,1.7130620999996609,1.7964580999996542,,,,,,oren_2,001,2020_Jan_29_1325,posner,3.1.5,59.91859459724376,
0.5,180,1,right,2,4,0,0,0,0,5,5,45,5,,,,,,,,,109.33059510000021,109.83086830000138,110.54829059999975,None,109.8473924000009,110.5318169000002,111.04909840000073,None,left,0,0.29650199999923643,111.04909840000073,None,None,109.8473924000009,111.03239460000077,0.5117205000005924,0.5952760000000126,1.7132344000001467,1.7966871000007814,,,,,,oren_2,001,2020_Jan_29_1325,posner,3.1.5,59.91859459724376,
-0.5,180,0,left,2,3,0,0,0,0,5,6,46,4,,,,,,,,,111.36756810000043,111.86677130000135,112.58454080000047,None,111.883710600001,112.56777470000088,113.08545220000087,None,right,0,0.21213150000039604,113.08545220000087,None,None,111.883710600001,113.0684708000008,0.5112348999991809,0.5949449999989156,1.7129251999995176,1.7966323999989982,,,,,,oren_2,001,2020_Jan_29_1325,posner,3.1.5,59.91859459724376,
-0.5,0,1,left,1,3,0,0,0,0,5,7,47,2,,,,,,,,,113.32025609999982,113.81980430000112,114.53721519999999,None,113.83611949999977,114.52065760000005,115.03788259999965,None,left,1,0.4037316000012652,115.03788259999965,None,None,113.83611949999977,115.02130109999962,0.5115435999996407,0.5947888999999122,1.71302839999953,1.796497499999532,,,,,,oren_2,001,2020_Jan_29_1325,posner,3.1.5,59.91859459724376,
-0.5,0,1,left,1,3,0,0,0,0,6,0,48,1,,,,,,,,,115.47243010000057,115.97291120000045,116.69036940000115,None,115.98927510000067,116.67361210000126,117.19118080000044,None,left,1,0.33042399999976624,117.19118080000044,None,None,115.98927510000067,117.17436930000076,0.5117468000007648,0.5947584999994433,1.713188199999422,1.796499899999617,,,,,,oren_2,001,2020_Jan_29_1325,posner,3.1.5,59.91859459724376,
-0.5,180,0,left,2,3,0,0,0,0,6,1,49,4,,,,,,,,,117.5419794999998,118.04208170000129,118.759872300001,None,118.05869900000107,118.74316540000109,119.26070410000102,None,left,1,0.34098140000060084,119.26070410000102,None,None,118.05869900000107,119.24385880000045,0.5114816000004794,0.5950534000003245,1.7132300000012037,1.796571100001529,,,,,,oren_2,001,2020_Jan_29_1325,posner,3.1.5,59.91859459724376,
-0.5,0,1,left,1,3,0,0,0,0,6,2,50,2,,,,,,,,,119.6277140000002,120.1282099,120.84585350000089,None,120.14507690000028,120.82944700000007,121.3465527999997,121.83071060000111,left,1,0.5270480999988649,121.3465527999997,None,None,120.14507690000028,121.33002579999993,0.5118191000001389,0.595455699998638,1.713629599998967,1.7971557999990182,,,,,,oren_2,001,2020_Jan_29_1325,posner,3.1.5,59.91859459724376,
0.5,180,1,right,2,4,0,0,0,0,6,3,51,6,,,,,,,,,121.89809249999962,122.39806630000021,123.11560960000133,None,122.41489809999985,123.09921480000048,123.61639550000109,None,right,1,0.33718899999985297,123.61639550000109,None,None,122.41489809999985,123.59999790000074,0.5115168000011181,0.5949522000009893,1.7134266000011849,1.7967849000015121,,,,,,oren_2,001,2020_Jan_29_1325,posner,3.1.5,59.91859459724376,
0.5,180,1,right,2,4,0,0,0,0,6,4,52,7,,,,,,,,,123.98413410000103,124.48418660000061,125.20221029999993,None,124.50118339999972,125.18542789999992,125.70264860000134,None,right,1,0.37888659999953234,125.70264860000134,None,None,124.50118339999972,125.68585460000031,0.5115863999999419,0.5950502999985474,1.71323399999892,1.797111899999436,,,,,,oren_2,001,2020_Jan_29_1325,posner,3.1.5,59.91859459724376,
0.5,180,1,right,2,4,0,0,0,0,6,5,53,5,,,,,,,,,126.10379790000115,126.60378350000065,127.32165710000118,None,126.62078939999992,127.30497470000046,127.82235960000071,None,right,1,0.2752490000002581,127.82235960000071,None,None,126.62078939999992,127.80553820000023,0.5114558999994188,0.594854299999497,1.7131891000008181,1.7965113000009296,,,,,,oren_2,001,2020_Jan_29_1325,posner,3.1.5,59.91859459724376,
0.5,0,0,right,1,4,0,0,0,0,6,6,54,3,,,,,,,,,128.12330079999992,128.62360960000115,129.34108519999972,None,128.64017480000075,129.32439890000023,129.84170860000086,None,left,0,0.22394859999985783,129.84170860000086,None,None,128.64017480000075,129.82491990000017,0.5120396000002074,0.5955749999993714,1.71333869999944,1.7969372999996267,,,,,,oren_2,001,2020_Jan_29_1325,posner,3.1.5,59.91859459724376,
-0.5,0,1,left,1,3,0,0,0,0,6,7,55,0,,,,,,,,,130.09273329999996,130.59269230000064,131.31053340000108,None,130.6093434000013,131.2939103000008,131.81106240000008,None,left,1,0.27055570000084117,131.81106240000008,None,None,130.6093434000013,131.79454390000137,0.5114912999997614,0.5949755999990884,1.7133211999989726,1.796731099999306,,,,,,oren_2,001,2020_Jan_29_1325,posner,3.1.5,59.91859459724376,
-0.5,180,0,left,2,3,0,0,0,0,7,0,56,4,,,,,,,,,132.11191270000018,132.61220870000034,133.3299103999998,None,132.62889350000114,133.31342500000028,133.83064290000038,None,left,1,0.31497850000050676,133.83064290000038,None,None,132.62889350000114,133.81417160000092,0.51154409999981,0.594841300000553,1.7134809999988647,1.7964854999991076,,,,,,oren_2,001,2020_Jan_29_1325,posner,3.1.5,59.91859459724376,
-0.5,0,1,left,1,3,0,0,0,0,7,1,57,0,,,,,,,,,134.16512739999962,134.66513590000068,135.38273130000016,None,134.68195060000107,135.36586230000103,135.88334990000112,None,left,1,0.31013290000009874,135.88334990000112,None,None,134.68195060000107,135.86673760000122,0.5114238999994996,0.5946450999999797,1.713017600000967,1.796336200000951,,,,,,oren_2,001,2020_Jan_29_1325,posner,3.1.5,59.91859459724376,
0.5,180,1,right,2,4,0,0,0,0,7,2,58,6,,,,,,,,,136.21728230000008,136.71777210000073,137.43540190000022,None,136.73450080000111,137.41885019999972,137.9360144000002,None,right,1,0.12954290000016044,137.9360144000002,None,None,136.73450080000111,137.91960370000015,0.5120809000000008,0.5958078000003297,1.7139053999999305,1.797531700000036,,,,,,oren_2,001,2020_Jan_29_1325,posner,3.1.5,59.91859459724376,
-0.5,0,1,left,1,3,0,0,0,0,7,3,59,1,,,,,,,,,138.08719569999994,138.58704089999992,139.3047606,None,138.60382589999972,139.28814690000036,139.80550260000018,None,left,1,0.22822200000155135,139.80550260000018,None,None,138.60382589999972,139.7886466,0.511309400000755,0.5949641999995947,1.7129120999998122,1.7965855000002193,,,,,,oren_2,001,2020_Jan_29_1325,posner,3.1.5,59.91859459724376,
0.5,180,1,right,2,4,0,0,0,0,7,4,60,5,,,,,,,,,140.05645280000135,140.55648720000136,141.2742431000006,None,140.57338700000037,141.25739020000037,141.77490510000098,None,right,1,0.21063970000068366,141.77490510000098,None,None,140.57338700000037,141.75820870000098,0.5115781999993487,0.595193899998776,1.7132874999988417,1.7966103999988263,,,,,,oren_2,001,2020_Jan_29_1325,posner,3.1.5,59.91859459724376,
-0.5,0,1,left,1,3,0,0,0,0,7,5,61,2,,,,,,,,,142.0090968000004,142.50914230000126,143.22678460000134,None,142.52581520000058,143.2106571000004,143.7274849000005,None,left,1,0.24216530000012426,143.7274849000005,None,None,142.52581520000058,143.71112730000095,0.5112913000011758,0.5949784000004001,1.713257400000657,1.7965217000000848,,,,,,oren_2,001,2020_Jan_29_1325,posner,3.1.5,59.91859459724376,
0.5,180,1,right,2,4,0,0,0,0,7,6,62,7,,,,,,,,,143.99535760000072,144.49562440000045,145.2131119000005,None,144.51198810000096,145.19632380000075,145.71370200000092,None,right,1,0.20794089999981225,145.71370200000092,None,None,144.51198810000096,145.69692730000133,0.5120198000004166,0.5951217000001634,1.7132976000011695,1.7968474000008428,,,,,,oren_2,001,2020_Jan_29_1325,posner,3.1.5,59.91859459724376,
0.5,0,0,right,1,4,0,0,0,0,7,7,63,3,,,,,,,,,145.9479721000007,146.44786039999963,147.16561990000082,None,146.46473479999986,147.14891160000116,147.66622310000093,None,left,0,0.2874255999995512,147.66622310000093,None,None,146.46473479999986,147.64974620000066,0.511462999998912,0.5950702999998612,1.7133279999998194,1.7965492000002996,,,,,,oren_2,001,2020_Jan_29_1325,posner,3.1.5,59.91859459724376,
-0.5,180,0,left,2,3,0,0,0,0,8,0,64,4,,,,,,,,,147.9838096000003,148.48434070000076,149.20181250000132,None,148.5008807000013,149.18520910000007,149.70265050000125,None,left,1,0.3471343999990495,149.70265050000125,None,None,148.5008807000013,149.68559260000075,0.511978900000031,0.5950921000003291,1.7132168999996793,1.7969341000007262,,,,,,oren_2,001,2020_Jan_29_1325,posner,3.1.5,59.91859459724376,
0.5,180,1,right,2,4,0,0,0,0,8,1,65,6,,,,,,,,,150.07075220000115,150.57064080000055,151.28786030000083,None,150.58688580000126,151.27141719999963,151.78861099999995,None,right,1,0.2930507999990368,151.78861099999995,None,None,150.58688580000126,151.77226380000138,0.5117219999992813,0.5951143000002048,1.7133297999989736,1.796346999999514,,,,,,oren_2,001,2020_Jan_29_1325,posner,3.1.5,59.91859459724376,
-0.5,0,1,left,1,3,0,0,0,0,8,2,66,0,,,,,,,,,152.1063234000012,152.60641080000096,153.32429729999967,None,152.62319279999974,153.3073903000004,153.824885,None,left,1,0.35279480000099284,153.824885,None,None,152.62319279999974,153.80805429999964,0.5117007000008016,0.5952304000002187,1.7133250999995653,1.7969795999997586,,,,,,oren_2,001,2020_Jan_29_1325,posner,3.1.5,59.91859459724376,
0.5,0,0,right,1,4,0,0,0,0,8,3,67,3,,,,,,,,,154.20961820000048,154.70982350000122,155.42685040000106,None,154.726042100001,155.4106001,155.92772979999972,None,right,1,0.3140034999996715,155.92772979999972,None,None,154.726042100001,155.91133210000044,0.512154099998952,0.5951672999999573,1.7136413999996876,1.7968721999986883,,,,,,oren_2,001,2020_Jan_29_1325,posner,3.1.5,59.91859459724376,
0.5,180,1,right,2,4,0,0,0,0,8,4,68,7,,,,,,,,,156.2623808999997,156.7624790000009,157.47989210000014,None,156.7787911000014,157.46339340000122,157.98052540000026,None,right,1,0.24523890000091342,157.98052540000026,None,None,156.7787911000014,157.96392510000078,0.5115968000009161,0.5945879000009882,1.713032600000588,1.7964069999998173,,,,,,oren_2,001,2020_Jan_29_1325,posner,3.1.5,59.91859459724376,
0.5,180,1,right,2,4,0,0,0,0,8,5,69,5,,,,,,,,,158.24838679999993,158.74820420000106,159.46588970000084,None,158.76495140000043,159.44925400000102,159.96660690000135,None,right,1,0.25906989999930374,159.96660690000135,None,None,158.76495140000043,159.9500235000014,0.5112606000002415,0.5947737000005873,1.7130707000014809,1.7964994000012666,,,,,,oren_2,001,2020_Jan_29_1325,posner,3.1.5,59.91859459724376,
-0.5,0,1,left,1,3,0,0,0,0,8,6,70,1,,,,,,,,,160.2512755000007,160.75106680000135,161.46874860000025,None,160.76765950000117,161.45222009999998,161.9699399000001,None,left,1,0.3197096000003512,161.9699399000001,None,None,160.76765950000117,161.9529164000014,0.5114264999992884,0.5951454999994894,1.7132533000003605,1.7963283000008232,,,,,,oren_2,001,2020_Jan_29_1325,posner,3.1.5,59.91859459724376,
-0.5,0,1,left,1,3,0,0,0,0,8,7,71,2,,,,,,,,,162.32026720000067,162.82071830000132,163.5382926000002,None,162.83720800000083,163.52166060000127,164.0389851,None,left,1,0.25076439999975264,164.0389851,None,None,162.83720800000083,164.02248110000073,0.5124038000012661,0.5959682000011526,1.7141502000013134,1.797383400000399,,,,,,oren_2,001,2020_Jan_29_1325,posner,3.1.5,59.91859459724376,
0.5,0,0,right,1,4,0,0,0,0,9,0,72,3,,,,,,,,,164.30652360000022,164.80663650000133,165.52453670000068,None,164.82354810000106,165.50762550000036,166.02504650000083,None,right,1,0.312651399999595,166.02504650000083,None,None,164.82354810000106,166.00838889999977,0.5116120000002411,0.5952536000004329,1.7133454000013444,1.7967173000015464,,,,,,oren_2,001,2020_Jan_29_1325,posner,3.1.5,59.91859459724376,
0.5,180,1,right,2,4,0,0,0,0,9,1,73,5,,,,,,,,,166.35955250000006,166.85950260000027,167.57708880000064,None,166.87621050000052,167.5606028000002,168.07780690000072,None,right,1,0.2757382999989204,168.07780690000072,None,None,166.87621050000052,168.06115780000073,0.5113578000000416,0.5948660000012751,1.7129912000000331,1.796733099999983,,,,,,oren_2,001,2020_Jan_29_1325,posner,3.1.5,59.91859459724376,
0.5,180,1,right,2,4,0,0,0,0,9,2,74,7,,,,,,,,,168.3786841000001,168.87903630000073,169.59657189999962,None,168.89564410000094,169.58010600000125,170.09729619999962,None,right,1,0.24054059999980382,170.09729619999962,None,None,168.89564410000094,170.0806444000009,0.5119493999991391,0.5954177000003256,1.7135309000004781,1.797106599999097,,,,,,oren_2,001,2020_Jan_29_1325,posner,3.1.5,59.91859459724376,
-0.5,0,1,left,1,3,0,0,0,0,9,3,75,1,,,,,,,,,170.36493020000125,170.86518820000128,171.58351140000013,None,170.88198710000142,171.5659969999997,172.08361220000006,None,left,1,0.28605679999964195,172.08361220000006,None,None,170.88198710000142,172.06660770000053,0.5117823000000499,0.5949887000006129,1.7132003999995504,1.7968698000004224,,,,,,oren_2,001,2020_Jan_29_1325,posner,3.1.5,59.91859459724376,
-0.5,0,1,left,1,3,0,0,0,0,9,4,76,2,,,,,,,,,172.40108979999968,172.9012730000013,173.6188990999999,None,172.91803849999997,173.60227280000072,174.11980010000116,None,left,1,0.3458717000012257,174.11980010000116,None,None,172.91803849999997,174.10286910000104,0.5116352000004554,0.5950905999998213,1.7132192999997642,1.796493100000589,,,,,,oren_2,001,2020_Jan_29_1325,posner,3.1.5,59.91859459724376,
0.5,180,1,right,2,4,0,0,0,0,9,5,77,6,,,,,,,,,174.48673600000075,174.987441700001,175.70509599999968,None,175.00407600000108,175.68836100000044,176.20619480000096,None,right,1,0.24349360000087472,176.20619480000096,None,None,175.00407600000108,176.18902020000132,0.5123333000010462,0.5958200000004581,1.713901300001453,1.7975925999999163,,,,,,oren_2,001,2020_Jan_29_1325,posner,3.1.5,59.91859459724376,
-0.5,180,0,left,2,3,0,0,0,0,9,6,78,4,,,,,,,,,176.47383249999984,176.97365230000105,177.69134200000008,None,176.99028010000075,177.67446630000086,178.19188880000002,None,right,0,0.14578880000044592,178.19188880000002,None,None,176.99028010000075,178.17525430000023,0.5117871999991621,0.5948294999998325,1.71337130000029,1.796656399999847,,,,,,oren_2,001,2020_Jan_29_1325,posner,3.1.5,59.91859459724376,
-0.5,0,1,left,1,3,0,0,0,0,9,7,79,0,,,,,,,,,178.3592408000004,178.8594505000001,179.5770158000014,None,178.87606489999962,179.5605555000002,180.07767270000113,None,left,1,0.32424279999941064,180.07767270000113,None,None,178.87606489999962,180.0614088000002,0.5115548000012495,0.5952042000008078,1.7134966000012355,1.796884700001101,,,,,,oren_2,001,2020_Jan_29_1325,posner,3.1.5,59.91859459724376,
-0.5,0,1,left,1,3,0,0,0,0,10,0,80,2,,,,,,,,,180.42933640000047,180.92886999999973,181.6464941000013,None,180.94565800000055,181.62987620000058,182.14743799999997,None,left,1,0.28628349999962666,182.14743799999997,None,None,180.94565800000055,182.13067450000017,0.5113810999991983,0.5949049999999261,1.7131439999993745,1.796551699999327,,,,,,oren_2,001,2020_Jan_29_1325,posner,3.1.5,59.91859459724376,
0.5,180,1,right,2,4,0,0,0,0,10,1,81,5,,,,,,,,,182.46466549999968,182.96531040000082,183.68284550000135,None,182.9818353999999,183.66603850000138,184.18354329999966,None,right,1,0.33017219999965164,184.18354329999966,None,None,182.9818353999999,184.16664049999963,0.5120127999998658,0.5950501000006625,1.7133401000010053,1.7970626999995147,,,,,,oren_2,001,2020_Jan_29_1325,posner,3.1.5,59.91859459724376,
-0.5,180,0,left,2,3,0,0,0,0,10,2,82,4,,,,,,,,,184.53457880000133,185.034728300001,185.75229779999972,None,185.05151360000127,185.73582650000026,186.2531293000011,None,left,1,0.2925388000003295,186.2531293000011,None,None,185.05151360000127,186.2361531000006,0.5118029999994178,0.5951538999997865,1.7132406000000628,1.7969949999987875,,,,,,oren_2,001,2020_Jan_29_1325,posner,3.1.5,59.91859459724376,
0.5,180,1,right,2,4,0,0,0,0,10,3,83,7,,,,,,,,,186.57110280000052,187.0709521000008,187.78875870000047,None,187.08741350000128,187.77187539999977,188.28903460000038,None,right,1,0.22466539999913948,188.28903460000038,None,None,187.08741350000128,188.27255289999994,0.5116414000003715,0.5950654000007489,1.7132221000010759,1.7965184999993653,,,,,,oren_2,001,2020_Jan_29_1325,posner,3.1.5,59.91859459724376,
-0.5,0,1,left,1,3,0,0,0,0,10,4,84,1,,,,,,,,,188.54054240000005,189.04022040000018,189.75789150000128,None,189.0566859999999,189.7412886000002,190.25847489999978,None,left,1,0.27117809999981546,190.25847489999978,None,None,189.0566859999999,190.24190950000047,0.5114570000005187,0.5947343000007095,1.7131298999993305,1.7963906999993924,,,,,,oren_2,001,2020_Jan_29_1325,posner,3.1.5,59.91859459724376,
-0.5,0,1,left,1,3,0,0,0,0,10,5,85,0,,,,,,,,,190.5595032000001,191.0596783000001,191.77716549999968,None,191.07621010000003,191.7606194,192.27785070000027,None,left,1,0.31602919999932055,192.27785070000027,None,None,191.07621010000003,192.2613837000008,0.51185439999972,0.5952139000000898,1.7135448000008182,1.7969737000003079,,,,,,oren_2,001,2020_Jan_29_1325,posner,3.1.5,59.91859459724376,
0.5,0,0,right,1,4,0,0,0,0,10,6,86,3,,,,,,,,,192.6129376000008,193.1125204,193.8301793999999,None,193.12916910000058,193.81342940000104,194.33093550000012,None,right,1,0.3268015000012383,194.33093550000012,None,None,193.12916910000058,194.31425900000067,0.5112982000009652,0.5945398999992904,1.7130142000005435,1.7963820999993914,,,,,,oren_2,001,2020_Jan_29_1325,posner,3.1.5,59.91859459724376,
0.5,180,1,right,2,4,0,0,0,0,10,7,87,6,,,,,,,,,194.68146309999975,195.1818617000008,195.8996517000014,None,195.19841050000105,195.88314770000034,196.40013490000092,None,right,1,0.3057599999992817,196.40013490000092,None,None,195.19841050000105,196.38356530000055,0.5114849999990838,0.5948607999998785,1.7131660999984888,1.7969281999994564,,,,,,oren_2,001,2020_Jan_29_1325,posner,3.1.5,59.91859459724376,
,,,,,,0,0,0,0,,,,,,,,,,,,,,,,,,,,,,,,,,,,,,,,,,196.73506000000089,None,1.990000055229757e-05,0.9958535999994638,oren_2,001,2020_Jan_29_1325,posner,3.1.5,59.91859459724376,
0.5,180,1,right,2,4,1,0,1,0,0,0,0,6,1.0399999155197293e-05,0.09713989999909245,257.75158329999977,None,1.4900000678608194e-05,0.09783920000154467,259.85459660000015,None,260.1345091000003,260.63896660000137,261.3566079000011,None,260.6557155999999,261.34031180000056,261.8577984000003,None,right,1,0.38395090000085474,261.8577984000003,None,None,260.6557155999999,261.8410007000002,0.5143588999999338,0.5981809000004432,1.7163751000007323,1.7997439000009763,,,,,,oren_2,001,2020_Jan_29_1325,posner,3.1.5,59.91859459724376,
0.5,180,1,right,2,4,1,0,1,0,0,1,1,7,,,,,,,,,262.2594777000013,262.7584671000004,263.47623770000064,None,262.77509780000037,263.4597336000006,263.97684710000067,None,right,1,0.3131282000013016,263.97684710000067,None,None,262.77509780000037,263.96036470000035,0.5105938999986392,0.5943671999993967,1.712472199998956,1.7959109999992506,,,,,,oren_2,001,2020_Jan_29_1325,posner,3.1.5,59.91859459724376,
0.5,0,0,right,1,4,1,0,1,0,0,2,2,3,,,,,,,,,264.3115577000008,264.81164660000104,265.52899869999965,None,264.8280474000003,265.51254979999976,266.02980709999974,None,right,1,0.2922395999994478,266.02980709999974,None,None,264.8280474000003,266.01334080000015,0.5114670000002661,0.5946583999993891,1.7131454999998823,1.7962656999989122,,,,,,oren_2,001,2020_Jan_29_1325,posner,3.1.5,59.91859459724376,
-0.5,0,1,left,1,3,1,0,1,0,0,3,3,1,,,,,,,,,266.3475715000004,266.84753850000016,267.5651018000008,None,266.86436800000047,267.5485004000002,268.0659811000005,None,left,1,0.35190589999911026,268.0659811000005,None,None,266.86436800000047,268.04937229999996,0.5114625999995042,0.5950118999990082,1.7132745999988401,1.7968228999998246,,,,,,oren_2,001,2020_Jan_29_1325,posner,3.1.5,59.91859459724376,
0.5,180,1,right,2,4,1,0,1,0,0,4,4,5,,,,,,,,,268.43364590000056,268.9338968000011,269.65151610000066,None,268.95058640000025,269.6348556000012,270.1522566000003,None,right,1,0.2335782999998628,270.1522566000003,None,None,268.95058640000025,270.13540960000137,0.5117064000005485,0.5950049000002764,1.7132096000004822,1.7966892999993433,,,,,,oren_2,001,2020_Jan_29_1325,posner,3.1.5,59.91859459724376,
-0.5,0,1,left,1,3,1,0,1,0,0,5,5,2,,,,,,,,,270.4029480999998,270.9032127999999,271.6214508000012,None,270.92008950000127,271.6043621000008,272.1216113999999,None,left,1,0.26430160000018077,272.1216113999999,None,None,270.92008950000127,272.10475580000093,0.5119529999992665,0.5955622000001313,1.7134855999993306,1.7970986000000266,,,,,,oren_2,001,2020_Jan_29_1325,posner,3.1.5,59.91859459724376,
-0.5,0,1,left,1,3,1,0,1,0,0,6,6,0,,,,,,,,,272.4060877000011,272.90588260000004,273.6237610999997,None,272.92286220000096,273.60687640000106,274.12430310000127,None,left,1,0.26161990000036894,274.12430310000127,None,None,272.92286220000096,274.1074687,0.5114028999996663,0.5949572999998054,1.712986099999398,1.7965852999986964,,,,,,oren_2,001,2020_Jan_29_1325,posner,3.1.5,59.91859459724376,
-0.5,180,0,left,2,3,1,0,1,0,0,7,7,4,,,,,,,,,274.40891470000133,274.9087918000005,275.62637220000033,None,274.92572760000076,275.60966440000084,276.1270390999998,None,left,1,0.33894040000086534,276.1270390999998,None,None,274.92572760000076,276.1103770999998,0.5114816999994218,0.5948026000005484,1.713060800000676,1.7966741000000184,,,,,,oren_2,001,2020_Jan_29_1325,posner,3.1.5,59.91859459724376,
0.5,180,1,right,2,4,1,0,1,0,1,0,8,6,,,,,,,,,276.4950265000007,276.99507300000005,277.712594300001,None,277.01175370000055,277.6957758999997,278.21334279999974,None,right,1,0.2844842000013159,278.21334279999974,None,None,277.01175370000055,278.19667149999987,0.5116092999996908,0.594914900000731,1.7131989000008616,1.7966856000002736,,,,,,oren_2,001,2020_Jan_29_1325,posner,3.1.5,59.91859459724376,
-0.5,180,0,left,2,3,1,0,1,0,1,1,9,4,,,,,,,,,278.5137112000011,279.0144541000009,279.7320743,None,279.0314360000011,279.7153451000013,280.2326291999998,None,left,1,0.32920630000080564,280.2326291999998,None,None,279.0314360000011,280.2158990000007,0.5126306000001932,0.5959691000007297,1.714055800001006,1.7976619000000937,,,,,,oren_2,001,2020_Jan_29_1325,posner,3.1.5,59.91859459724376,
-0.5,0,1,left,1,3,1,0,1,0,1,2,10,1,,,,,,,,,280.5839111000005,281.08404510000037,281.8018109000004,None,281.1006586000003,281.7851033000006,282.3024760999997,None,left,1,0.27539140000044426,282.3024760999997,None,None,281.1006586000003,282.2857057000001,0.5117411999999604,0.5949586000006093,1.7133859000005032,1.7971020999993925,,,,,,oren_2,001,2020_Jan_29_1325,posner,3.1.5,59.91859459724376,
-0.5,0,1,left,1,3,1,0,1,0,1,3,11,2,,,,,,,,,282.6032542000012,283.10352690000036,283.82126170000083,None,283.12019070000133,283.8044103000011,284.32191729999977,None,left,1,0.2560864999995829,284.32191729999977,None,None,283.12019070000133,284.30505300000004,0.5118454999992537,0.5950775999990583,1.7133567999990191,1.7967496999990544,,,,,,oren_2,001,2020_Jan_29_1325,posner,3.1.5,59.91859459724376,
-0.5,0,1,left,1,3,1,0,1,0,1,4,12,0,,,,,,,,,284.6059045000002,285.10600410000006,285.8239647999999,None,285.122983700001,285.8070539,286.3246971000008,None,left,1,0.26915680000092834,286.3246971000008,None,None,285.122983700001,286.30770180000036,0.5115972000003239,0.5953590999997687,1.7132811000010406,1.7970210000003135,,,,,,oren_2,001,2020_Jan_29_1325,posner,3.1.5,59.91859459724376,
0.5,0,0,right,1,4,1,0,1,0,1,5,13,3,,,,,,,,,286.6253355000008,287.1257604000002,287.8434722000002,None,287.14238920000025,287.8267071999999,288.3440556000005,None,left,0,0.10587449999911769,288.3440556000005,None,None,287.14238920000025,288.3272018000007,0.5118872000002739,0.5955221000003803,1.7133161000001564,1.7970384000000195,,,,,,oren_2,001,2020_Jan_29_1325,posner,3.1.5,59.91859459724376,
0.5,180,1,right,2,4,1,0,1,0,1,6,14,5,,,,,,,,,288.4779146000001,288.978163400001,289.6957555000008,None,288.9949620999996,289.67941600000086,290.19635820000076,None,right,1,0.445620799999233,290.19635820000076,None,None,288.9949620999996,290.179728000001,0.511487899999338,0.5951585999991948,1.7132884999991802,1.7966605999990861,,,,,,oren_2,001,2020_Jan_29_1325,posner,3.1.5,59.91859459724376,
0.5,180,1,right,2,4,1,0,1,0,1,7,15,7,,,,,,,,,290.66446180000094,291.16468890000033,291.88223670000116,None,291.181378700001,291.86552330000086,292.382999200001,None,left,0,0.2588657999986026,292.382999200001,None,None,291.181378700001,292.3661521000013,0.5116608000007545,0.5947919999998703,1.7131079999999201,1.7965686000006826,,,,,,oren_2,001,2020_Jan_29_1325,posner,3.1.5,59.91859459724376,
-0.5,0,1,left,1,3,1,0,1,0,2,0,16,0,,,,,,,,,292.66709900000023,293.1672030000009,293.88508790000014,None,293.1842059999999,293.8682867999996,294.3855046000008,None,left,1,0.33631160000004456,294.3855046000008,None,None,293.1842059999999,294.3691755,0.5115215000005264,0.5951574000009714,1.7134863000010228,1.7966254000002664,,,,,,oren_2,001,2020_Jan_29_1325,posner,3.1.5,59.91859459724376,
-0.5,180,0,left,2,3,1,0,1,0,2,1,17,4,,,,,,,,,294.7530873000014,295.25346250000075,295.97132950000014,None,295.27034790000107,295.95462190000035,296.4719916000013,None,left,1,0.3299363000005542,296.4719916000013,None,None,295.27034790000107,296.45524450000084,0.5117144999985612,0.5951503999986016,1.7134700999995403,1.7968133999984275,,,,,,oren_2,001,2020_Jan_29_1325,posner,3.1.5,59.91859459724376,
0.5,180,1,right,2,4,1,0,1,0,2,2,18,5,,,,,,,,,296.8232289000007,297.3230670000012,298.0408659000004,None,297.3397137000011,298.0240627000003,298.54150910000135,None,right,1,0.32434159999866097,298.54150910000135,None,None,297.3397137000011,298.5247911000006,0.5114073000004282,0.5945967000006931,1.7131203999997524,1.796407600000748,,,,,,oren_2,001,2020_Jan_29_1325,posner,3.1.5,59.91859459724376,
-0.5,0,1,left,1,3,1,0,1,0,2,3,19,1,,,,,,,,,298.8925479999998,299.3926300000003,300.1103699000014,None,299.4093847000004,300.09359530000074,300.6110256000011,None,left,1,0.2549529000007169,300.6110256000011,None,None,299.4093847000004,300.59430260000045,0.5114250000005995,0.5947185000004538,1.7130967000011879,1.7963314999997237,,,,,,oren_2,001,2020_Jan_29_1325,posner,3.1.5,59.91859459724376,
0.5,180,1,right,2,4,1,0,1,0,2,4,20,7,,,,,,,,,300.89500640000006,301.3953151000005,302.11303790000056,None,301.4122067999997,302.0961306999998,302.61395340000126,None,right,1,0.22003860000040731,302.61395340000126,None,None,301.4122067999997,302.5970233000007,0.5117092000000412,0.5950109999994311,1.7133998999997857,1.7968361000002915,,,,,,oren_2,001,2020_Jan_29_1325,posner,3.1.5,59.91859459724376,
0.5,180,1,right,2,4,1,0,1,0,2,5,21,6,,,,,,,,,302.8644626000005,303.3647235999997,304.08250920000137,None,303.3815927000014,304.0656197999997,304.58301630000096,None,right,1,0.20286160000068776,304.58301630000096,None,None,303.3815927000014,304.56633150000016,0.5116636000002472,0.5949897999998939,1.7132473000001482,1.7969912999997177,,,,,,oren_2,001,2020_Jan_29_1325,posner,3.1.5,59.91859459724376,
-0.5,0,1,left,1,3,1,0,1,0,2,6,22,2,,,,,,,,,304.8171080000011,305.3175286000005,306.0352629000008,None,305.33431569999993,306.0184042000001,306.535872800001,None,left,1,0.2019880000007106,306.535872800001,None,None,305.33431569999993,306.5191629000001,0.5117327000007208,0.5951673000017763,1.713355900001261,1.7967715000013413,,,,,,oren_2,001,2020_Jan_29_1325,posner,3.1.5,59.91859459724376,
0.5,0,0,right,1,4,1,0,1,0,2,7,23,3,,,,,,,,,306.7699542999999,307.2701732000005,307.98782779999965,None,307.28681440000037,307.9712873999997,308.4883969000002,None,right,1,0.3615183000001707,308.4883969000002,None,None,307.28681440000037,308.47184259999995,0.5116345999995247,0.5952553000006446,1.713288900000407,1.7968297000006714,,,,,,oren_2,001,2020_Jan_29_1325,posner,3.1.5,59.91859459724376,
-0.5,180,0,left,2,3,1,0,1,0,3,0,24,4,,,,,,,,,308.872914900001,309.37301579999985,310.09078109999973,None,309.3897820000002,310.0740053999998,310.591322100001,None,left,1,0.35457920000044396,310.591322100001,None,None,309.3897820000002,310.5748070000009,0.511607999998887,0.5949158999992505,1.713373499998852,1.796600399999079,,,,,,oren_2,001,2020_Jan_29_1325,posner,3.1.5,59.91859459724376,
0.5,180,1,right,2,4,1,0,1,0,3,1,25,5,,,,,,,,,310.97565100000065,311.47589739999967,312.1938054000002,None,311.4926028000009,312.1768635999997,312.6944516000003,None,right,1,0.3956784999991214,312.6944516000003,None,None,311.4926028000009,312.67751580000004,0.5117475999995804,0.595126899999741,1.7133522000003722,1.7969860000011977,,,,,,oren_2,001,2020_Jan_29_1325,posner,3.1.5,59.91859459724376,
-0.5,0,1,left,1,3,1,0,1,0,3,2,26,2,,,,,,,,,313.1124322000014,313.61220780000076,314.3301439000006,None,313.62892420000026,314.31335840000065,314.8306822000013,None,left,1,0.2752187000005506,314.8306822000013,None,None,313.62892420000026,314.81385990000126,0.51124770000024,0.5947550000000774,1.7128747000006115,1.7962537000003067,,,,,,oren_2,001,2020_Jan_29_1325,posner,3.1.5,59.91859459724376,
0.5,180,1,right,2,4,1,0,1,0,3,3,27,7,,,,,,,,,315.13196100000096,315.63180830000056,316.3493825000005,None,315.6483853000009,316.332760700001,316.85014500000034,317.33411069999966,right,1,0.6077095000000554,316.85014500000034,None,None,315.6483853000009,316.8332756,0.5114100999999209,0.5948017999999138,1.7128668000004836,1.7969835000003513,,,,,,oren_2,001,2020_Jan_29_1325,posner,3.1.5,59.91859459724376,
0.5,180,1,right,2,4,1,0,1,0,3,4,28,6,,,,,,,,,317.4845866000014,317.9850819000003,318.7025687000005,None,318.0016718000006,318.6859636999998,319.20337199999994,None,right,1,0.3025902999997925,319.20337199999994,None,None,318.0016718000006,319.1864947000013,0.5120397000009689,0.5951951999995799,1.7134370999992825,1.797040699999343,,,,,,oren_2,001,2020_Jan_29_1325,posner,3.1.5,59.91859459724376,
-0.5,0,1,left,1,3,1,0,1,0,3,5,29,1,,,,,,,,,319.53754409999965,320.03765680000106,320.7553346000004,None,320.0545044999999,320.73871429999963,321.25609260000056,None,left,1,0.3138527000010072,321.25609260000056,None,None,320.0545044999999,321.2393205999997,0.5113189000003331,0.5949928999998519,1.7129659000001993,1.7967595999998593,,,,,,oren_2,001,2020_Jan_29_1325,posner,3.1.5,59.91859459724376,
0.5,0,0,right,1,4,1,0,1,0,3,6,30,3,,,,,,,,,321.5906235000002,322.0907502000009,322.80812650000007,None,322.1070381999998,322.7916204000012,323.3088281,None,right,1,0.3572389999990264,323.3088281,None,None,322.1070381999998,323.29230989999996,0.5115920999996888,0.5949117999989539,1.7131367999991198,1.796580799998992,,,,,,oren_2,001,2020_Jan_29_1325,posner,3.1.5,59.91859459724376,
-0.5,0,1,left,1,3,1,0,1,0,3,7,31,0,,,,,,,,,323.6932360999999,324.1937671000014,324.91114200000084,None,324.21067349999976,324.89449720000084,325.41196579999996,None,left,1,0.3341132000005018,325.41196579999996,None,None,324.21067349999976,325.39513570000054,0.5118522999982815,0.5948417999989033,1.713213099999848,1.7965078999986872,,,,,,oren_2,001,2020_Jan_29_1325,posner,3.1.5,59.91859459724376,
0.5,180,1,right,2,4,1,0,1,0,4,0,32,7,,,,,,,,,325.7625340000013,326.26286360000086,326.9807552000002,None,326.2796479000008,326.96403199999986,327.481393,None,right,1,0.2326083000007202,327.481393,None,None,326.2796479000008,327.464814500001,0.5115837000012107,0.5951982000005955,1.7135115000000951,1.796956100000898,,,,,,oren_2,001,2020_Jan_29_1325,posner,3.1.5,59.91859459724376,
0.5,180,1,right,2,4,1,0,1,0,4,1,33,6,,,,,,,,,327.73235230000137,328.2323320000014,328.9501553000009,None,328.2488589000004,328.93344100000104,329.4508654000001,None,right,1,0.24708900000041467,329.4508654000001,None,None,328.2488589000004,329.43432589999975,0.5112117000007856,0.5947240000004967,1.713190399999803,1.7962700000007317,,,,,,oren_2,001,2020_Jan_29_1325,posner,3.1.5,59.91859459724376,
-0.5,0,1,left,1,3,1,0,1,0,4,2,34,1,,,,,,,,,329.71877830000085,330.21844190000047,330.936041500001,None,330.2352984999998,330.9195388999997,331.4366662000011,None,left,1,0.2452951999985089,331.4366662000011,None,None,330.2352984999998,331.4202776000002,0.5115224000001035,0.5949947000008251,1.7133375000012165,1.7965884000004735,,,,,,oren_2,001,2020_Jan_29_1325,posner,3.1.5,59.91859459724376,
-0.5,0,1,left,1,3,1,0,1,0,4,3,35,0,,,,,,,,,331.7045699999999,332.2045224000012,332.9223106999998,None,332.2215890000007,332.9054372999999,333.4230903000007,None,left,1,0.2748506999996607,333.4230903000007,None,None,332.2215890000007,333.40614319999986,0.5116141999988031,0.5949306999991677,1.7132134999992559,1.7965960999990784,,,,,,oren_2,001,2020_Jan_29_1325,posner,3.1.5,59.91859459724376,
-0.5,180,0,left,2,3,1,0,1,0,4,4,36,4,,,,,,,,,333.7243419000006,334.22418800000014,334.94163930000104,None,334.2408770000002,334.9250677,335.4424304000004,None,left,1,0.4155303000006825,335.4424304000004,None,None,334.2408770000002,335.42554310000014,0.5115932999997312,0.5947142000004533,1.71294620000117,1.7964279000007082,,,,,,oren_2,001,2020_Jan_29_1325,posner,3.1.5,59.91859459724376,
-0.5,0,1,left,1,3,1,0,1,0,4,5,37,2,,,,,,,,,335.8762437000005,336.37703950000105,337.09464480000133,None,336.3939253999997,337.0778955000005,337.5953945000001,None,left,1,0.29479560000072524,337.5953945000001,None,None,336.3939253999997,337.5786272000005,0.5117983000000095,0.5951547000004211,1.7133501999996952,1.7969790999995894,,,,,,oren_2,001,2020_Jan_29_1325,posner,3.1.5,59.91859459724376,
0.5,180,1,right,2,4,1,0,1,0,4,6,38,5,,,,,,,,,337.9130782000011,338.41332180000063,339.13097130000097,None,338.42983450000065,339.11419380000007,339.63155519999964,None,right,1,0.25842089999969176,339.63155519999964,None,None,338.42983450000065,339.6148740999997,0.5118000000002212,0.5948177999998734,1.7133288999993965,1.7966371000002255,,,,,,oren_2,001,2020_Jan_29_1325,posner,3.1.5,59.91859459724376,
0.5,0,0,right,1,4,1,0,1,0,4,7,39,3,,,,,,,,,339.91589230000136,340.4157445000001,341.13373280000087,None,340.4326875000006,341.11676050000096,341.63431760000094,None,right,1,0.39974570000049425,341.63431760000094,None,None,340.4326875000006,341.61745940000037,0.5113696000007621,0.5948884000008547,1.7130658000005496,1.7966267000010703,,,,,,oren_2,001,2020_Jan_29_1325,posner,3.1.5,59.91859459724376,
0.5,0,0,right,1,4,1,0,1,0,5,0,40,3,,,,,,,,,342.0524495999998,342.5521421000012,343.27001759999985,None,342.568994700001,343.25326850000056,343.7707268000013,344.2547310000009,None,0,,343.7707268000013,None,None,342.568994700001,343.7538332000004,0.5113328999996156,0.5949746000005689,1.7130125000003318,1.7963325999990047,,,,,,oren_2,001,2020_Jan_29_1325,posner,3.1.5,59.91859459724376,
-0.5,0,1,left,1,3,1,0,1,0,5,1,41,0,,,,,,,,,344.7551557000006,345.2560215000012,345.9736861000001,344.7551557000006,345.2728442000007,345.95690430000104,346.4743438000005,None,left,1,0.35964720000083616,346.4743438000005,None,None,345.2728442000007,346.45757760000015,0.5137654000009206,0.5972875999996177,1.7153061000008165,1.7987983000002714,,,,,,oren_2,001,2020_Jan_29_1325,posner,3.1.5,59.91859459724376,
-0.5,180,0,left,2,3,1,0,1,0,5,2,42,4,,,,,,,,,346.8587028000002,347.3587580000003,348.0763525000002,None,347.3756623999998,348.0597198000014,348.5770255999996,None,left,1,0.4650225000004866,348.5770255999996,None,None,347.3756623999998,348.56045300000005,0.5116068000006635,0.595052200000282,1.713280300000406,1.7967435999998997,,,,,,oren_2,001,2020_Jan_29_1325,posner,3.1.5,59.91859459724376,
0.5,180,1,right,2,4,1,0,1,0,5,3,43,7,,,,,,,,,349.0619731000006,349.56194140000116,350.27943609999966,None,349.5784784999996,350.2628722999998,350.78029419999984,349.0619731000006,right,1,0.3737319000010757,350.78029419999984,None,None,349.5784784999996,350.7632988000005,0.5111517000004824,0.5945769999998447,1.7125008999992133,1.7960585999990144,,,,,,oren_2,001,2020_Jan_29_1325,posner,3.1.5,59.91859459724376,
-0.5,0,1,left,1,3,1,0,1,0,5,4,44,2,,,,,,,,,351.18163040000036,351.681523700001,352.39901780000037,None,351.6980128000014,352.3825972000013,352.9000397,None,left,1,0.35014740000042366,352.9000397,None,None,351.6980128000014,352.8831114000004,0.5115230000010342,0.5947795000010956,1.7131090000002587,1.7963591000007,,,,,,oren_2,001,2020_Jan_29_1325,posner,3.1.5,59.91859459724376,
0.5,180,1,right,2,4,1,0,1,0,5,5,45,6,,,,,,,,,353.2677440000007,353.76749180000115,354.4856713999998,None,353.7844676000004,354.4686649000014,354.98603490000096,None,right,1,0.15192729999944277,354.98603490000096,None,None,353.7844676000004,354.9695599000006,0.5111858999989636,0.5947082999991835,1.7132313000001886,1.796607899999799,,,,,,oren_2,001,2020_Jan_29_1325,posner,3.1.5,59.91859459724376,
-0.5,0,1,left,1,3,1,0,1,0,5,6,46,1,,,,,,,,,355.1535074000003,355.6534775,356.3713953000006,None,355.6702863999999,356.3546612000009,356.8719667000005,None,left,1,0.29812780000065686,356.8719667000005,None,None,355.6702863999999,356.855387900001,0.5114246000011917,0.5949044999997568,1.713312699999733,1.796672899999976,,,,,,oren_2,001,2020_Jan_29_1325,posner,3.1.5,59.91859459724376,
0.5,180,1,right,2,4,1,0,1,0,5,7,47,5,,,,,,,,,357.1894167999999,357.68975090000094,358.40730450000046,None,357.7063986000012,358.3908921000002,358.90798130000076,None,right,1,0.230020400000285,358.90798130000076,None,None,357.7063986000012,358.8914908000006,0.5113021000015578,0.5947938000008435,1.7130275000017718,1.796498800000336,,,,,,oren_2,001,2020_Jan_29_1325,posner,3.1.5,59.91859459724376,
0.5,180,1,right,2,4,1,0,1,0,6,0,48,5,,,,,,,,,359.15891139999985,359.6591733000005,360.3765695000002,None,359.6756846999997,360.3601976000009,360.87748660000034,361.3617752000009,None,0,,360.87748660000034,None,None,359.6756846999997,360.8607023000004,0.5120730999988155,0.5950070999988384,1.7132219999984954,1.7968722999994498,,,,,,oren_2,001,2020_Jan_29_1325,posner,3.1.5,59.91859459724376,
-0.5,0,1,left,1,3,1,0,1,0,6,1,49,1,,,,,,,,,361.86228140000094,362.3629950000013,363.0804556000003,361.86228140000094,362.3795504999998,363.0639929000008,363.58139389999997,None,left,1,0.27683149999938905,363.58139389999997,None,None,362.3795504999998,363.5645192000011,0.5137429000005795,0.5969091999995726,1.7152569999998377,1.7985948999994434,,,,,,oren_2,001,2020_Jan_29_1325,posner,3.1.5,59.91859459724376,
0.5,180,1,right,2,4,1,0,1,0,6,2,50,7,,,,,,,,,363.88210400000025,364.3825164000009,365.1001229000012,None,364.398895100001,365.08327740000095,365.6008658999999,None,right,1,0.22514410000076168,365.6008658999999,None,None,364.398895100001,365.5842173000001,0.5116474999995262,0.5947966000003362,1.7133340999989741,1.796406499999648,,,,,,oren_2,001,2020_Jan_29_1325,posner,3.1.5,59.91859459724376,
0.5,180,1,right,2,4,1,0,1,0,6,3,51,6,,,,,,,,,365.8516400999997,366.3517818,367.0694435000005,None,366.36843469999985,367.0527422000014,367.57011840000087,None,right,1,0.20822989999942365,367.57011840000087,None,None,366.36843469999985,367.5533903000014,0.5116720000005444,0.5950869000007515,1.713265100001081,1.7965531000008923,,,,,,oren_2,001,2020_Jan_29_1325,posner,3.1.5,59.91859459724376,
-0.5,180,0,left,2,3,1,0,1,0,6,4,52,4,,,,,,,,,367.80426590000025,368.30455989999973,369.02228560000003,None,368.32116700000006,369.0053392000009,369.5229706000009,None,left,1,0.35099540000010165,369.5229706000009,None,None,368.32116700000006,369.50618159999976,0.5118816000012885,0.594960300000821,1.713483700001234,1.7970657000005303,,,,,,oren_2,001,2020_Jan_29_1325,posner,3.1.5,59.91859459724376,
0.5,0,0,right,1,4,1,0,1,0,6,5,53,3,,,,,,,,,369.8909628000001,370.390945000001,371.1082987000009,None,370.40737590000026,371.0916108000001,371.60896590000084,None,right,1,0.29705789999934495,371.60896590000084,None,None,370.40737590000026,371.5923294000004,0.5116481000004569,0.5948891000007279,1.713015400000586,1.7963872000000265,,,,,,oren_2,001,2020_Jan_29_1325,posner,3.1.5,59.91859459724376,
-0.5,0,1,left,1,3,1,0,1,0,6,6,54,2,,,,,,,,,371.9268038000009,372.42657429999963,373.1444680000004,None,372.44345630000134,373.12760230000094,373.6453111999999,None,left,1,0.38883239999995567,373.6453111999999,None,None,372.44345630000134,373.6284185000004,0.5114386000004743,0.5951158000007126,1.7132746999996016,1.796914900000047,,,,,,oren_2,001,2020_Jan_29_1325,posner,3.1.5,59.91859459724376,
-0.5,0,1,left,1,3,1,0,1,0,6,7,55,0,,,,,,,,,374.06283559999974,374.5631807000009,375.2808449000004,None,374.57982410000113,375.2641530000001,375.7815049000001,None,left,1,0.39651880000019446,375.7815049000001,None,None,374.57982410000113,375.7648418000008,0.5118392000003951,0.5950527000004513,1.713472699999329,1.7966558999996778,,,,,,oren_2,001,2020_Jan_29_1325,posner,3.1.5,59.91859459724376,
0.5,180,1,right,2,4,1,0,1,0,7,0,56,7,,,,,,,,,376.19917800000076,376.69923840000047,377.41687620000084,None,376.71610280000095,377.4009274,377.91751860000113,None,right,1,0.22848739999972167,377.91751860000113,None,None,376.71610280000095,377.90095010000005,0.5117698000012751,0.5952116000007663,1.7134447999997064,1.7970715000010387,,,,,,oren_2,001,2020_Jan_29_1325,posner,3.1.5,59.91859459724376,
-0.5,0,1,left,1,3,1,0,1,0,7,1,57,2,,,,,,,,,378.16840290000073,378.6686580000005,379.38624300000083,None,378.68544219999967,379.36967900000127,379.88694750000104,380.3711948,None,0,,379.88694750000104,None,None,378.68544219999967,379.8704624000002,0.5115582999987964,0.5950187999987975,1.7133445999988908,1.7969729999986157,,,,,,oren_2,001,2020_Jan_29_1325,posner,3.1.5,59.91859459724376,
0.5,180,1,right,2,4,1,0,1,0,7,2,58,5,,,,,,,,,380.8719032000008,381.37254310000026,382.0900393000011,380.8719032000008,381.389003100001,382.0735488999999,382.59088580000025,None,right,1,0.38714489999983925,382.59088580000025,None,None,381.389003100001,382.5741076000013,0.513811099999657,0.5969227000005048,1.715375199999471,1.7987155999999231,,,,,,oren_2,001,2020_Jan_29_1325,posner,3.1.5,59.91859459724376,
0.5,180,1,right,2,4,1,0,1,0,7,3,59,6,,,,,,,,,383.008170000001,383.5085646000007,384.22631680000086,None,383.5254289000004,384.2099897999997,384.7270014000005,None,right,1,0.411001500000566,384.7270014000005,None,None,383.5254289000004,384.71098189999975,0.511427299999923,0.5949636999994254,1.7138226999995823,1.7966082000002643,,,,,,oren_2,001,2020_Jan_29_1325,posner,3.1.5,59.91859459724376,
-0.5,0,1,left,1,3,1,0,1,0,7,4,60,1,,,,,,,,,385.16178050000053,385.6618857000012,386.37935260000086,None,385.67829789999996,386.3627422999998,386.87994830000025,387.3640510000005,right,0,0.5779684999997698,386.87994830000025,None,None,385.67829789999996,386.86351040000045,0.5115709999990941,0.5947942000002513,1.7131797000001825,1.7964971000001242,,,,,,oren_2,001,2020_Jan_29_1325,posner,3.1.5,59.91859459724376,
0.5,0,0,right,1,4,1,0,1,0,7,5,61,3,,,,,,,,,387.4811157000004,387.9817170000006,388.69919930000106,None,387.9981562000012,388.6825183000001,389.19989859999987,None,right,1,0.258094799999526,389.19989859999987,None,None,387.9981562000012,389.1833112000004,0.5125064000003476,0.5959264000011899,1.714085100000375,1.7973868999997649,,,,,,oren_2,001,2020_Jan_29_1325,posner,3.1.5,59.91859459724376,
-0.5,180,0,left,2,3,1,0,1,0,7,6,62,4,,,,,,,,,389.48494589999973,389.98431789999995,390.7018877999999,None,390.00109320000047,390.6854535000002,391.20272269999987,None,left,1,0.36743659999956435,391.20272269999987,None,None,390.00109320000047,391.1857994000002,0.5115261999999348,0.5948678999993717,1.712993600000118,1.796818999999232,,,,,,oren_2,001,2020_Jan_29_1325,posner,3.1.5,59.91859459724376,
-0.5,0,1,left,1,3,1,0,1,0,7,7,63,0,,,,,,,,,391.58665050000127,392.0871597000005,392.8049566999998,None,392.1040401999999,392.7882131000006,393.3056348000009,None,left,1,0.008426700000200071,393.3056348000009,None,None,392.1040401999999,393.28881320000073,0.5121405000008963,0.595907900000384,1.7137749000012263,None,,,,,,oren_2,001,2020_Jan_29_1325,posner,3.1.5,59.91859459724376,
-0.5,0,1,left,1,3,1,0,1,0,8,0,64,2,,,,,,,,,393.3399163000013,393.83992899999976,394.55724569999984,None,393.85623880000094,394.54075320000084,395.0579585000014,None,left,1,0.2562675000008312,395.0579585000014,None,None,393.85623880000094,395.04142740000134,0.5116758999993181,0.5949701999998069,1.7131611999993765,1.7967795000004116,,,,,,oren_2,001,2020_Jan_29_1325,posner,3.1.5,59.91859459724376,
-0.5,180,0,left,2,3,1,0,1,0,8,1,65,4,,,,,,,,,395.34226390000003,395.84247700000014,396.56022810000104,None,395.8590858000007,396.54339530000107,397.06088869999985,None,right,0,0.1251804000003176,397.06088869999985,None,None,395.8590858000007,397.0441799,0.5114620999993349,0.5949865000002319,1.71315709999908,1.7963640999987547,,,,,,oren_2,001,2020_Jan_29_1325,posner,3.1.5,59.91859459724376,
0.5,180,1,right,2,4,1,0,1,0,8,2,66,6,,,,,,,,,397.21149810000134,397.7119429000013,398.42923540000083,None,397.7282445000001,398.4128773000011,398.9303015000005,None,right,1,0.3517284000008658,398.9303015000005,None,None,397.7282445000001,398.9132700000009,0.5124114000009286,0.5957032000005711,1.7137273999996978,1.7969694000003074,,,,,,oren_2,001,2020_Jan_29_1325,posner,3.1.5,59.91859459724376,
0.5,0,0,right,1,4,1,0,1,0,8,3,67,3,,,,,,,,,399.29783099999986,399.7977804000002,400.5155388000003,None,399.8145316000009,400.49869390000094,401.01616880000074,None,right,1,0.3938428000001295,401.01616880000074,None,None,399.8145316000009,400.99960400000055,0.5113931999985653,0.5949655999993411,1.7132095999986632,1.796727999999348,,,,,,oren_2,001,2020_Jan_29_1325,posner,3.1.5,59.91859459724376,
-0.5,0,1,left,1,3,1,0,1,0,8,4,68,0,,,,,,,,,401.43407750000006,401.9341277000003,402.6518584000005,None,401.95100960000127,402.6353216999996,403.15248840000095,None,left,1,0.30575940000017,403.15248840000095,None,None,401.95100960000127,403.1359313000012,0.5117623999994976,0.5951162000001204,1.71355069999845,1.7972113999985595,,,,,,oren_2,001,2020_Jan_29_1325,posner,3.1.5,59.91859459724376,
-0.5,0,1,left,1,3,1,0,1,0,8,5,69,1,,,,,,,,,403.4870636000014,403.9870590999999,404.7048305999997,None,404.00380120000045,404.6879174000005,405.20571930000006,None,left,1,0.36432439999953203,405.20571930000006,None,None,404.00380120000045,405.18867970000065,0.5115982000006625,0.595203600001696,1.7132138000015402,1.7967544000002817,,,,,,oren_2,001,2020_Jan_29_1325,posner,3.1.5,59.91859459724376,
0.5,180,1,right,2,4,1,0,1,0,8,6,70,5,,,,,,,,,405.59035890000087,406.08999890000086,406.8074923000004,None,406.1064118000013,406.7909930000005,407.3081361000004,None,right,1,0.261863199999425,407.3081361000004,None,None,406.1064118000013,407.29169920000095,0.5115106999983254,0.5949024999990797,1.7131970999998885,1.7965855999991618,,,,,,oren_2,001,2020_Jan_29_1325,posner,3.1.5,59.91859459724376,
0.5,180,1,right,2,4,1,0,1,0,8,7,71,7,,,,,,,,,407.5924835000005,408.09282950000124,408.81048120000014,None,408.1093278999997,408.79377170000043,409.3112495000005,None,right,1,0.17880719999993744,409.3112495000005,None,None,408.1093278999997,409.29437810000127,0.5115341999990051,0.594852099999116,1.7130722000001697,1.7964752999996563,,,,,,oren_2,001,2020_Jan_29_1325,posner,3.1.5,59.91859459724376,
-0.5,180,0,left,2,3,1,0,1,0,9,0,72,4,,,,,,,,,409.5120723,410.0122474,410.7295681000014,None,410.0285836000003,410.71285400000124,411.23043770000004,None,left,1,0.17962359999910404,411.23043770000004,None,None,410.0285836000003,411.2138747000008,0.5116278000004968,0.595060800000283,1.713235799999893,1.796392600001127,,,,,,oren_2,001,2020_Jan_29_1325,posner,3.1.5,59.91859459724376,
-0.5,0,1,left,1,3,1,0,1,0,9,1,73,0,,,,,,,,,411.43173370000113,411.93136030000096,412.6488663,None,411.9479177000012,412.6325143000013,413.14974489999986,None,left,1,0.3404977999998664,413.14974489999986,None,None,411.9479177000012,413.1331663000001,0.5112508000001981,0.5946581000007427,1.7130345000005036,1.7963121000011597,,,,,,oren_2,001,2020_Jan_29_1325,posner,3.1.5,59.91859459724376,
0.5,180,1,right,2,4,1,0,1,0,9,2,74,5,,,,,,,,,413.51709930000106,414.01751850000073,414.73535000000084,None,414.03448600000047,414.7184655000001,415.23577860000114,415.720111300001,None,0,,415.23577860000114,None,None,414.03448600000047,415.21940990000076,0.5119589999994787,0.5954832000006718,1.7138328999990335,1.7972124999996595,,,,,,oren_2,001,2020_Jan_29_1325,posner,3.1.5,59.91859459724376,
-0.5,0,1,left,1,3,1,0,1,0,9,3,75,2,,,,,,,,,416.22068130000116,416.7212978999996,417.4387938,416.22068130000116,416.7379154999999,417.4223808000006,417.93955280000046,None,left,1,0.22261219999927562,417.93955280000046,None,None,416.7379154999999,417.92305020000094,0.5134804999997868,0.5970801999992545,1.7152108999998745,1.7985556999992696,,,,,,oren_2,001,2020_Jan_29_1325,posner,3.1.5,59.91859459724376,
0.5,0,0,right,1,4,1,0,1,0,9,4,76,3,,,,,,,,,418.1902983,418.69093240000075,419.40817960000095,None,418.70766730000105,419.3916747000003,419.9088647999997,420.3930324000012,None,0,,419.9088647999997,None,None,418.70766730000105,419.89233090000016,0.5125895000001037,0.595979100000477,1.7139686000009533,1.7973650000003545,,,,,,oren_2,001,2020_Jan_29_1325,posner,3.1.5,59.91859459724376,
-0.5,0,1,left,1,3,1,0,1,0,9,5,77,1,,,,,,,,,420.8937829000006,421.3944097000003,422.1121488000008,420.8937829000006,421.4111950000006,422.095299300001,422.61283080000067,None,left,1,0.2692542000004323,422.61283080000067,None,None,421.4111950000006,422.5958451000006,0.5144263000001956,0.5978869000009581,1.715841300001557,1.7997827000017423,,,,,,oren_2,001,2020_Jan_29_1325,posner,3.1.5,59.91859459724376,
0.5,180,1,right,2,4,1,0,1,0,9,6,78,6,,,,,,,,,422.91341550000107,423.41388410000036,424.1316732000014,None,423.43071690000033,424.1151329000004,424.6321458000002,None,right,1,0.18601900000066962,424.6321458000002,None,None,423.43071690000033,424.61575340000127,0.511844700000438,0.5951480000003357,1.7136914000002434,1.7967532000002393,,,,,,oren_2,001,2020_Jan_29_1325,posner,3.1.5,59.91859459724376,
0.5,180,1,right,2,4,1,0,1,0,9,7,79,7,,,,,,,,,424.8496984000012,425.34995040000103,426.06732660000125,None,425.3664269000001,426.050862600001,426.5679968000004,None,right,1,0.26613910000014585,426.5679968000004,None,None,425.3664269000001,426.55169320000095,0.5118373000004794,0.5952202999997098,1.7135658000006515,1.7967652000006638,,,,,,oren_2,001,2020_Jan_29_1325,posner,3.1.5,59.91859459724376,
0.5,180,1,right,2,4,1,0,1,0,10,0,80,6,,,,,,,,,426.85276859999976,427.3529455000007,428.0706210999997,None,427.3692850999996,428.0537675000014,428.5711506000007,None,right,1,0.24709939999956987,428.5711506000007,None,None,427.3692850999996,428.55437880000136,0.5116863000002922,0.5946721999989677,1.713104899999962,1.7963431999996828,,,,,,oren_2,001,2020_Jan_29_1325,posner,3.1.5,59.91859459724376,
-0.5,180,0,left,2,3,1,0,1,0,10,1,81,4,,,,,,,,,428.8380020000004,429.3386756,430.0562331000001,None,429.3555441999997,430.03962909999973,430.55689800000073,None,right,0,0.19736329999977897,430.55689800000073,None,None,429.3555441999997,430.54039250000096,0.5114515999994182,0.5951857000000018,1.7131465999991633,1.7965096999996604,,,,,,oren_2,001,2020_Jan_29_1325,posner,3.1.5,59.91859459724376,
-0.5,0,1,left,1,3,1,0,1,0,10,2,82,2,,,,,,,,,430.7746096999999,431.27483349999966,431.9925101000008,None,431.29154410000046,431.9757115000011,432.49325320000025,None,left,1,0.32487029999902006,432.49325320000025,None,None,431.29154410000046,432.476329000001,0.5118578000001435,0.5950525999996898,1.7133377000009204,1.7968147000010504,,,,,,oren_2,001,2020_Jan_29_1325,posner,3.1.5,59.91859459724376,
0.5,0,0,right,1,4,1,0,1,0,10,3,83,3,,,,,,,,,432.84407550000105,433.34444860000076,434.06192910000027,None,433.3610048999999,434.04533530000117,434.5625928999998,None,right,1,0.35149810000075377,434.5625928999998,None,None,433.3610048999999,434.5457540999996,0.5120230000011361,0.5951817000004667,1.7133176999996067,1.796911800000089,,,,,,oren_2,001,2020_Jan_29_1325,posner,3.1.5,59.91859459724376,
0.5,180,1,right,2,4,1,0,1,0,10,4,84,5,,,,,,,,,434.93046010000035,435.43062199999986,436.14802560000135,None,435.44705740000063,436.1316125000012,436.6486679999998,None,right,1,0.23345700000027136,436.6486679999998,None,None,435.44705740000063,436.6322170000003,0.5116428999990603,0.5950486999990972,1.713226300000315,1.796789699999863,,,,,,oren_2,001,2020_Jan_29_1325,posner,3.1.5,59.91859459724376,
0.5,180,1,right,2,4,1,0,1,0,10,5,85,7,,,,,,,,,436.8992747000011,437.3997711000011,438.1174721999996,None,437.4164570000012,438.10090409999975,438.6181480000014,None,right,1,0.18410230000154115,438.6181480000014,None,None,437.4164570000012,438.60165919999963,0.5113552999991953,0.5948742000000493,1.7132215000001452,1.7967747999991843,,,,,,oren_2,001,2020_Jan_29_1325,posner,3.1.5,59.91859459724376,
-0.5,0,1,left,1,3,1,0,1,0,10,6,86,1,,,,,,,,,438.8193564000012,439.3192076000014,440.0367814000001,None,439.3358464000012,440.02038470000116,440.53751829999965,None,left,1,0.296712800000023,440.53751829999965,None,None,439.3358464000012,440.52087010000105,0.51171930000055,0.5949495999993815,1.7133754000005865,1.7968505999997433,,,,,,oren_2,001,2020_Jan_29_1325,posner,3.1.5,59.91859459724376,
-0.5,0,1,left,1,3,1,0,1,0,10,7,87,0,,,,,,,,,440.8554015000009,441.35531770000125,442.07295350000095,None,441.3721999999998,442.0563626000003,442.5738099000009,None,left,1,0.2285580999996455,442.5738099000009,None,None,441.3721999999998,442.5569292,0.5116799000006722,0.595120300000417,1.7132799999999406,1.7967691000012564,,,,,,oren_2,001,2020_Jan_29_1325,posner,3.1.5,59.91859459724376,
,,,,,,1,0,1,0,,,,,,,,,,,,,,,,,,,,,,,,,,,,,,,,,,442.82448020000083,None,1.650000012887176e-05,0.995658399999229,oren_2,001,2020_Jan_29_1325,posner,3.1.5,59.91859459724376,
,,,,,,,,,,,,,,1.2099999366910197e-05,0.09764469999936409,503.84165480000047,None,1.5200001143966801e-05,0.09792569999990519,505.94459480000114,None,,,,,,,,,,,,,,,,,,,,,,,,,,,,,,,,
