targetX,cueOri,congr,corrAns,pin_cue,pin_target,block.thisRepN,block.thisTrialN,block.thisN,block.thisIndex,posner_task.thisRepN,posner_task.thisTrialN,posner_task.thisN,posner_task.thisIndex,port_start_block.started,port_start_block.stopped,text_2.started,text_2.stopped,p_port.started,p_port.stopped,text.started,text.stopped,fixation_1.started,fixation_1.stopped,fixation_2.started,fixation_2.stopped,cue.started,cue.stopped,target.started,target.stopped,correct_key_resp.keys,correct_key_resp.corr,correct_key_resp.rt,correct_key_resp.started,correct_key_resp.stopped,early_resp.keys,early_resp.started,early_resp.stopped,trigger_cue.started,trigger_cue.stopped,trigger_target.started,trigger_target.stopped,break_text.started,break_text.stopped,end_port.started,end_port.stopped,early_resp.rt,participant,session,date,expName,psychopyVersion,frameRate,
-0.5,0,1,left,1,3,0,0,0,0,0,0,0,0,1.7700000171316788e-05,0.09861260000070615,33.379382299999634,None,1.3399999261309858e-05,0.09956340000007913,35.24848279999969,None,35.59066609999991,36.09956019999936,36.800619099999494,None,36.09956019999936,36.800619099999494,37.30119370000011,None,left,1,0.3142806000005294,37.30119370000011,None,None,36.09956019999936,37.30119370000011,0.5023216999998112,0.6024209999995946,1.7039355999995678,1.7877072999999655,,,,,,syed_1,001,2020_Feb_07_1524,posner,3.1.5,59.97282031781605,
0.5,0,0,right,1,4,0,0,0,0,0,1,1,3,,,,,,,,,37.636245300000155,38.135800899999595,38.85358519999954,None,38.15247050000016,38.83688600000005,39.3541710999998,None,right,1,0.30925759999990987,39.3541710999998,None,None,38.15247050000016,39.33742639999946,0.5106328000001668,0.5939774999997098,1.7122362999998586,1.7957766999998057,,,,,,syed_1,001,2020_Feb_07_1524,posner,3.1.5,59.97282031781605,
-0.5,0,1,left,1,3,0,0,0,0,0,2,2,2,,,,,,,,,39.68893680000019,40.18876509999973,40.90633819999948,None,40.20536819999961,40.88948280000022,41.40709400000014,None,left,1,0.2804126000000906,41.40709400000014,None,None,40.20536819999961,41.39012180000009,0.5117915999999241,0.595174600000064,1.713130099999944,1.796678300000167,,,,,,syed_1,001,2020_Feb_07_1524,posner,3.1.5,59.97282031781605,
-0.5,180,0,left,2,3,0,0,0,0,0,3,3,4,,,,,,,,,41.70846139999958,42.20809310000004,42.92585809999946,None,42.224893300000076,42.90895199999977,43.42664799999966,None,left,1,0.34884150000016234,43.42664799999966,None,None,42.224893300000076,43.40969820000009,0.5114072000005763,0.5947842000005039,1.7130033000003095,1.7964954999997644,,,,,,syed_1,001,2020_Feb_07_1524,posner,3.1.5,59.97282031781605,
0.5,180,1,right,2,4,0,0,0,0,0,4,4,6,,,,,,,,,43.79457430000002,44.2943336999997,45.01189830000021,None,44.31090529999983,44.99530849999974,45.51268280000022,None,right,1,0.3668473999996422,45.51268280000022,None,None,44.31090529999983,45.49595769999996,0.5113477000004423,0.5947015000001556,1.7129530000001978,1.796377300000131,,,,,,syed_1,001,2020_Feb_07_1524,posner,3.1.5,59.97282031781605,
0.5,180,1,right,2,4,0,0,0,0,0,5,5,5,,,,,,,,,45.897457699999904,46.39742870000009,47.11482969999997,None,46.41379270000016,47.09808410000005,47.61566359999961,None,right,1,0.3518224999997983,47.61566359999961,None,None,46.41379270000016,47.59867729999951,0.51175719999992,0.594950699999572,1.71299689999978,1.7964868999997634,,,,,,syed_1,001,2020_Feb_07_1524,posner,3.1.5,59.97282031781605,
-0.5,0,1,left,1,3,0,0,0,0,0,6,6,1,,,,,,,,,47.983763799999906,48.48339229999965,49.20083429999977,None,48.49997329999951,49.18387619999976,49.701799100000244,None,left,1,0.29762080000000424,49.701799100000244,None,None,48.49997329999951,49.68491979999999,0.5114702999999281,0.5950132000007216,1.712981800000307,1.796498800000336,,,,,,syed_1,001,2020_Feb_07_1524,posner,3.1.5,59.97282031781605,
0.5,180,1,right,2,4,0,0,0,0,0,7,7,7,,,,,,,,,50.019978499999525,50.51950949999991,51.23720609999964,None,50.536131699999714,51.220303399999466,51.73786990000008,None,right,1,0.33372939999935625,51.73786990000008,None,None,50.536131699999714,51.72113720000016,0.5115459999997256,0.595024199999898,1.713139599999522,1.7964901999994254,,,,,,syed_1,001,2020_Feb_07_1524,posner,3.1.5,59.97282031781605,
0.5,180,1,right,2,4,0,0,0,0,1,0,8,7,,,,,,,,,52.08985289999964,52.58884719999969,53.30672869999944,None,52.60578170000008,53.289864399999715,53.807294100000036,None,right,1,0.3282220999999481,53.807294100000036,None,None,52.60578170000008,53.790600299999824,0.5110383000001093,0.5947264000005816,1.7127907000003688,1.7962874000004376,,,,,,syed_1,001,2020_Feb_07_1524,posner,3.1.5,59.97282031781605,
0.5,0,0,right,1,4,0,0,0,0,1,1,9,3,,,,,,,,,54.15841309999996,54.65848310000001,55.37629579999975,None,54.675378299999466,55.35947109999961,55.87710580000021,None,right,1,0.3383266000000731,55.87710580000021,None,None,54.675378299999466,55.86009269999977,0.5120544999999765,0.5955189999995127,1.713650400000006,1.7972325999999157,,,,,,syed_1,001,2020_Feb_07_1524,posner,3.1.5,59.97282031781605,
-0.5,0,1,left,1,3,0,0,0,0,1,2,10,1,,,,,,,,,56.245185599999786,56.74479439999959,57.462328499999785,None,56.76174549999996,57.445845199999894,57.963138199999776,None,left,1,0.33238279999932274,57.963138199999776,None,None,56.76174549999996,57.9464696999994,0.5114078000005975,0.5946334000000206,1.71305940000002,1.7963694000000032,,,,,,syed_1,001,2020_Feb_07_1524,posner,3.1.5,59.97282031781605,
0.5,180,1,right,2,4,0,0,0,0,1,3,11,5,,,,,,,,,58.31480169999941,58.81416730000001,59.532071099999484,None,58.83088229999976,59.51529190000019,60.032692799999495,None,right,1,0.3186279999999897,60.032692799999495,None,None,58.83088229999976,60.01605010000003,0.511268199999904,0.5948547999996663,1.7131274999992456,1.7963214999999764,,,,,,syed_1,001,2020_Feb_07_1524,posner,3.1.5,59.97282031781605,
0.5,180,1,right,2,4,0,0,0,0,1,4,12,6,,,,,,,,,60.367354899999555,60.867451600000095,61.5846475999997,None,60.88377489999948,61.56813340000008,62.08539389999987,None,right,1,0.2979262999997445,62.08539389999987,None,None,60.88377489999948,62.068635200000244,0.5120424000006096,0.5949670999998489,1.7132172000001447,1.7967434000001958,,,,,,syed_1,001,2020_Feb_07_1524,posner,3.1.5,59.97282031781605,
-0.5,0,1,left,1,3,0,0,0,0,1,5,13,2,,,,,,,,,62.403722000000016,62.903112500000134,63.62076049999996,None,62.919783800000005,63.604283300000134,64.12145059999966,None,left,1,0.3259131000004345,64.12145059999966,None,None,62.919783800000005,64.10488780000014,0.51125409999986,0.5948390000003201,1.7130061999996542,1.7965098000004218,,,,,,syed_1,001,2020_Feb_07_1524,posner,3.1.5,59.97282031781605,
-0.5,180,0,left,2,3,0,0,0,0,1,6,14,4,,,,,,,,,64.47275679999984,64.97288119999939,65.6903241,None,64.9891975999999,65.67368160000024,66.19117629999982,None,left,1,0.3522448000003351,66.19117629999982,None,None,64.9891975999999,66.17446370000016,0.5119714000002205,0.5953495000003386,1.71353900000031,1.797082600000067,,,,,,syed_1,001,2020_Feb_07_1524,posner,3.1.5,59.97282031781605,
-0.5,0,1,left,1,3,0,0,0,0,1,7,15,0,,,,,,,,,66.57548700000007,67.0756566,67.79318969999986,None,67.09229189999951,67.77684279999994,68.2938992999998,None,left,1,0.3133876000001692,68.2938992999998,None,None,67.09229189999951,68.27730429999974,0.511825399999907,0.595060900000135,1.7134655999998358,1.7969370999999228,,,,,,syed_1,001,2020_Feb_07_1524,posner,3.1.5,59.97282031781605,
-0.5,180,0,left,2,3,0,0,0,0,2,0,16,4,,,,,,,,,68.6285871,69.12845740000012,69.84609790000013,None,69.14502799999991,69.82936830000017,70.34686640000018,None,left,1,0.3405179000001226,70.34686640000018,None,None,69.14502799999991,70.32997720000003,0.5117127000003165,0.595149599999786,1.7132170000004407,1.7968344999999317,,,,,,syed_1,001,2020_Feb_07_1524,posner,3.1.5,59.97282031781605,
0.5,180,1,right,2,4,0,0,0,0,2,1,17,7,,,,,,,,,70.71480139999949,71.21458230000007,71.93231279999964,None,71.23124610000013,71.91563270000006,72.43310779999956,None,right,1,0.3582462000003943,72.43310779999956,None,None,71.23124610000013,72.41634969999996,0.5111895000000004,0.5947607999996762,1.7129367999996248,1.7963280999993003,,,,,,syed_1,001,2020_Feb_07_1524,posner,3.1.5,59.97282031781605,
-0.5,0,1,left,1,3,0,0,0,0,2,2,18,1,,,,,,,,,72.81770789999973,73.31750740000007,74.03515779999998,None,73.33424670000022,74.01845499999945,74.53584409999985,None,left,1,0.32741119999991497,74.53584409999985,None,None,73.33424670000022,74.5190819999998,0.5116001999995206,0.5949853000001895,1.7131656999999905,1.7967656000000716,,,,,,syed_1,001,2020_Feb_07_1524,posner,3.1.5,59.97282031781605,
0.5,0,0,right,1,4,0,0,0,0,2,3,19,3,,,,,,,,,74.88737429999946,75.38698810000005,76.10473809999985,None,75.4037016000002,76.0879759999998,76.60536279999997,None,right,1,0.3221393000003445,76.60536279999997,None,None,75.4037016000002,76.58851640000012,0.5108273000005283,0.5941904000001159,1.7123349000003145,1.7959703000005902,,,,,,syed_1,001,2020_Feb_07_1524,posner,3.1.5,59.97282031781605,
-0.5,0,1,left,1,3,0,0,0,0,2,4,20,0,,,,,,,,,76.95662689999972,77.45662639999955,78.17435339999975,None,77.47312779999993,78.15754749999996,78.67509379999956,None,left,1,0.2841502999999648,78.67509379999956,None,None,77.47312779999993,78.65818659999968,0.5117835999999443,0.5950153000003411,1.7133309999999256,1.796703900000466,,,,,,syed_1,001,2020_Feb_07_1524,posner,3.1.5,59.97282031781605,
-0.5,0,1,left,1,3,0,0,0,0,2,5,21,2,,,,,,,,,78.97634719999951,79.47613569999976,80.19368070000019,None,79.49270559999968,80.17697119999957,80.6943553000001,None,left,1,0.3209283999995023,80.6943553000001,None,None,79.49270559999968,80.67768220000016,0.5117975000002843,0.5949811999998929,1.7133284999999887,1.7967033000004449,,,,,,syed_1,001,2020_Feb_07_1524,posner,3.1.5,59.97282031781605,
0.5,180,1,right,2,4,0,0,0,0,2,6,22,6,,,,,,,,,81.04554169999938,81.54561300000023,82.26304319999963,None,81.56238389999999,82.24658809999983,82.76381429999947,None,right,1,0.34755670000049577,82.76381429999947,None,None,81.56238389999999,82.74716809999973,0.5115687999996226,0.5949947999997676,1.7131101999993916,1.7965959999992265,,,,,,syed_1,001,2020_Feb_07_1524,posner,3.1.5,59.97282031781605,
0.5,180,1,right,2,4,0,0,0,0,2,7,23,5,,,,,,,,,83.13229150000006,83.63190639999993,84.34926989999985,None,83.64823379999962,84.33279989999937,84.84998919999998,None,right,1,0.3092876000000615,84.84998919999998,None,None,83.64823379999962,84.83342799999991,0.5116541999996116,0.5948514000001524,1.7131649000002653,1.796628199999759,,,,,,syed_1,001,2020_Feb_07_1524,posner,3.1.5,59.97282031781605,
0.5,180,1,right,2,4,0,0,0,0,3,0,24,6,,,,,,,,,85.18476069999997,85.68458209999972,86.40229970000019,None,85.70110229999955,86.38569189999998,86.90299419999974,None,right,1,0.32829690000016853,86.90299419999974,None,None,85.70110229999955,86.8862737999998,0.5115489999998317,0.594978600000104,1.7132250000004206,1.7965045000000828,,,,,,syed_1,001,2020_Feb_07_1524,posner,3.1.5,59.97282031781605,
-0.5,0,1,left,1,3,0,0,0,0,3,1,25,2,,,,,,,,,87.25418869999976,87.75409769999987,88.47170779999942,None,87.77064919999975,88.45506849999947,88.97256740000012,None,left,1,0.30685319999975036,88.97256740000012,None,None,87.77064919999975,88.95563249999941,0.5116195000000516,0.5949672000006103,1.7131411999998818,1.796499500000209,,,,,,syed_1,001,2020_Feb_07_1524,posner,3.1.5,59.97282031781605,
-0.5,0,1,left,1,3,0,0,0,0,3,2,26,1,,,,,,,,,89.30698099999972,89.8069975999997,90.52459459999955,None,89.8235168000001,90.50774469999942,91.02544109999963,None,left,1,0.2618678999997428,91.02544109999963,None,None,89.8235168000001,91.0084740000002,0.5118136000000959,0.5950765999996293,1.713276099999348,1.796810299999379,,,,,,syed_1,001,2020_Feb_07_1524,posner,3.1.5,59.97282031781605,
0.5,180,1,right,2,4,0,0,0,0,3,3,27,7,,,,,,,,,91.30994129999999,91.80949640000017,92.52729939999972,None,91.82645749999938,92.51056879999942,93.0281230999999,None,right,1,0.25116220000018075,93.0281230999999,None,None,91.82645749999938,93.0111821999999,0.5112024000000019,0.5948753999991823,1.7128738999999769,1.7964595999992525,,,,,,syed_1,001,2020_Feb_07_1524,posner,3.1.5,59.97282031781605,
-0.5,0,1,left,1,3,0,0,0,0,3,4,28,0,,,,,,,,,93.29594720000023,93.79582519999985,94.51329009999972,None,93.8123943999999,94.49676679999993,95.01416109999991,None,left,1,0.3290744999994786,95.01416109999991,None,None,93.8123943999999,94.99720689999958,0.5116798999997627,0.5950324999994336,1.7130534999996598,1.7965526999996655,,,,,,syed_1,001,2020_Feb_07_1524,posner,3.1.5,59.97282031781605,
0.5,180,1,right,2,4,0,0,0,0,3,5,29,5,,,,,,,,,95.36584599999969,95.86572269999942,96.58289719999993,None,95.88227659999939,96.56629650000013,97.08364280000023,None,right,1,0.36363150000033784,97.08364280000023,None,None,95.88227659999939,97.06698890000007,0.5120310000002064,0.5948275000000649,1.7132747999994535,1.7965586000000258,,,,,,syed_1,001,2020_Feb_07_1524,posner,3.1.5,59.97282031781605,
0.5,0,0,right,1,4,0,0,0,0,3,6,30,3,,,,,,,,,97.46829669999988,97.96803910000017,98.68586289999985,None,97.9848637999994,98.66897139999946,99.18645629999992,None,right,1,0.3968436000004658,99.18645629999992,None,None,97.9848637999994,99.16961149999952,0.5114258000003247,0.5947955000001457,1.7129879000003712,1.79673879999973,,,,,,syed_1,001,2020_Feb_07_1524,posner,3.1.5,59.97282031781605,
-0.5,180,0,left,2,3,0,0,0,0,3,7,31,4,,,,,,,,,99.60449640000024,100.10435799999959,100.82198369999969,None,100.12103759999991,100.80548290000024,101.32278299999962,None,left,1,0.27637679999952525,101.32278299999962,None,None,100.12103759999991,101.30611119999958,0.5115772999997716,0.5951157999998031,1.7133186999999452,1.7966292999999496,,,,,,syed_1,001,2020_Feb_07_1524,posner,3.1.5,59.97282031781605,
0.5,180,1,right,2,4,0,0,0,0,4,0,32,6,,,,,,,,,101.62407749999966,102.12394479999966,102.84142069999962,None,102.14038189999974,102.82487649999985,103.34234250000009,None,right,1,0.3128305999998702,103.34234250000009,None,None,102.14038189999974,103.32568639999954,0.5115797999997085,0.594898600000306,1.7133051000000705,1.7964309999997568,,,,,,syed_1,001,2020_Feb_07_1524,posner,3.1.5,59.97282031781605,
-0.5,0,1,left,1,3,0,0,0,0,4,1,33,0,,,,,,,,,103.6766878999997,104.17676589999974,104.89437309999994,None,104.19340579999971,104.87762179999936,105.39518260000023,None,left,1,0.33217399999921327,105.39518260000023,None,None,104.19340579999971,105.37810509999963,0.5118129999991652,0.5950505999999223,1.7131379999991623,1.7968983999999182,,,,,,syed_1,001,2020_Feb_07_1524,posner,3.1.5,59.97282031781605,
-0.5,0,1,left,1,3,0,0,0,0,4,2,34,2,,,,,,,,,105.74615369999992,106.24626189999981,106.96377930000017,None,106.26292329999978,106.94726470000023,107.46460979999938,None,left,1,0.342569899999944,107.46460979999938,None,None,106.26292329999978,107.44779199999994,0.5118069000000105,0.5949903000000631,1.7133254000000306,1.7967427000003227,,,,,,syed_1,001,2020_Feb_07_1524,posner,3.1.5,59.97282031781605,
-0.5,180,0,left,2,3,0,0,0,0,4,3,35,4,,,,,,,,,107.83257090000006,108.33235979999972,109.04990120000002,None,108.34895869999946,109.03321039999992,109.54997879999974,None,left,1,0.3295492999995986,109.54997879999974,None,None,108.34895869999946,109.53349739999976,0.5115664999993896,0.5950972999999067,1.712661699999444,1.7961429999995744,,,,,,syed_1,001,2020_Feb_07_1524,posner,3.1.5,59.97282031781605,
0.5,180,1,right,2,4,0,0,0,0,4,4,36,7,,,,,,,,,109.90210200000001,110.40191289999984,111.11949879999975,None,110.4183893999998,111.10293029999957,111.62009489999946,None,right,1,0.291010500000084,111.62009489999946,None,None,110.4183893999998,111.60349739999947,0.5114786000003733,0.5949525000005451,1.7130372999999963,1.7967787000006865,,,,,,syed_1,001,2020_Feb_07_1524,posner,3.1.5,59.97282031781605,
0.5,0,0,right,1,4,0,0,0,0,4,5,37,3,,,,,,,,,111.9383342000001,112.43801559999974,113.1557987999995,None,112.45467680000002,113.1387952999994,113.65653639999982,None,right,1,0.32664550000026793,113.65653639999982,None,None,112.45467680000002,113.63946039999973,0.5117057999996177,0.5951575999997658,1.713136399999712,1.7968590999998924,,,,,,syed_1,001,2020_Feb_07_1524,posner,3.1.5,59.97282031781605,
-0.5,0,1,left,1,3,0,0,0,0,4,6,38,1,,,,,,,,,114.00761319999947,114.50762659999964,115.22529010000017,None,114.52421099999992,115.20839859999978,115.72602499999994,None,left,1,0.3211468999998033,115.72602499999994,None,None,114.52421099999992,115.7090006999997,0.5117988000001787,0.5951617000000624,1.7131578999997146,1.7969025000002148,,,,,,syed_1,001,2020_Feb_07_1524,posner,3.1.5,59.97282031781605,
0.5,180,1,right,2,4,0,0,0,0,4,7,39,5,,,,,,,,,116.07676199999969,116.57713760000024,117.29469729999983,None,116.59377159999985,117.27803179999955,117.79539329999989,None,right,1,0.3157529000000068,117.79539329999989,None,None,116.59377159999985,117.77858079999987,0.5118910000001051,0.5951532999997653,1.7133158000006006,1.7968046000005415,,,,,,syed_1,001,2020_Feb_07_1524,posner,3.1.5,59.97282031781605,
-0.5,0,1,left,1,3,0,0,0,0,5,0,40,2,,,,,,,,,118.13041479999993,118.62970499999938,119.34757480000007,None,118.64671959999941,119.3307691,119.8483268,None,left,1,0.27880199999981414,119.8483268,None,None,118.64671959999941,119.83147529999951,0.5112361000001329,0.5947372999999061,1.7129804000005606,1.7964952000002086,,,,,,syed_1,001,2020_Feb_07_1524,posner,3.1.5,59.97282031781605,
0.5,180,1,right,2,4,0,0,0,0,5,1,41,5,,,,,,,,,120.14957359999971,120.64919989999999,121.3672934999995,None,120.66603289999966,121.35033860000021,121.8681803999998,None,right,1,0.38693200000034267,121.8681803999998,None,None,120.66603289999966,121.85085900000013,0.5112025999997059,0.5946893999998792,1.7128480000001218,1.7966071000000738,,,,,,syed_1,001,2020_Feb_07_1524,posner,3.1.5,59.97282031781605,
0.5,0,0,right,1,4,0,0,0,0,5,2,42,3,,,,,,,,,122.28563320000012,122.78556209999988,123.50327430000016,None,122.80235660000017,123.48664199999985,124.00391059999947,124.48801529999946,right,1,0.5152225000001636,124.00391059999947,None,None,122.80235660000017,123.98730129999967,0.5115912000001117,0.5950550999996267,1.7133097999994789,1.7966519999999946,,,,,,syed_1,001,2020_Feb_07_1524,posner,3.1.5,59.97282031781605,
0.5,180,1,right,2,4,0,0,0,0,5,3,43,7,,,,,,,,,124.53895730000022,125.03867350000019,125.75654320000012,None,125.05539899999985,125.73961099999997,126.25703659999999,126.74105259999942,right,1,0.4701074000004155,126.25703659999999,None,None,125.05539899999985,126.24040379999951,0.5116711999999097,0.5951720000002751,1.713383899999826,1.7968653999996604,,,,,,syed_1,001,2020_Feb_07_1524,posner,3.1.5,59.97282031781605,
0.5,180,1,right,2,4,0,0,0,0,5,4,44,6,,,,,,,,,126.75839670000005,127.2583837000002,127.97622599999977,None,127.27514840000003,127.9592432999998,128.4769507000001,None,right,1,0.3381024000000252,128.4769507000001,None,None,127.27514840000003,128.45998710000003,0.5115809999997509,0.5950216000001092,1.7131638000000748,1.7966655000000173,,,,,,syed_1,001,2020_Feb_07_1524,posner,3.1.5,59.97282031781605,
-0.5,0,1,left,1,3,0,0,0,0,5,5,45,1,,,,,,,,,128.84469059999992,129.34461999999985,130.0623141999995,None,129.36115830000017,130.04577379999955,130.56310359999952,None,left,1,0.4199578999996447,130.56310359999952,None,None,129.36115830000017,130.54654870000013,0.5115703999999823,0.5949650000002293,1.7134764000002178,1.7964810000003126,,,,,,syed_1,001,2020_Feb_07_1524,posner,3.1.5,59.97282031781605,
-0.5,0,1,left,1,3,0,0,0,0,5,6,46,0,,,,,,,,,131.0142191999994,131.51423869999962,132.23192239999935,None,131.53074789999937,132.21515230000023,132.73254009999982,None,left,1,0.3624517999996897,132.73254009999982,None,None,131.53074789999937,132.7161718999996,0.5114957000005234,0.5949532000004183,1.7134126999999353,1.796570999999858,,,,,,syed_1,001,2020_Feb_07_1524,posner,3.1.5,59.97282031781605,
-0.5,180,0,left,2,3,0,0,0,0,5,7,47,4,,,,,,,,,133.11725370000022,133.6170674999994,134.33486249999987,None,133.63389759999973,134.31830850000006,134.8355918999996,None,left,1,0.3396514999994906,134.8355918999996,None,None,133.63389759999973,134.81889299999966,0.5115140999996584,0.5949605999994674,1.7133272000000943,1.796610200000032,,,,,,syed_1,001,2020_Feb_07_1524,posner,3.1.5,59.97282031781605,
-0.5,0,1,left,1,3,0,0,0,0,6,0,48,0,,,,,,,,,135.20361049999974,135.70356979999997,136.4210433999997,None,135.72013289999995,136.40439369999967,136.9217091999999,None,left,1,0.28531240000029356,136.9217091999999,None,None,135.72013289999995,136.90505440000015,0.5117058000005272,0.5948161000005712,1.713183100000606,1.7965110000004643,,,,,,syed_1,001,2020_Feb_07_1524,posner,3.1.5,59.97282031781605,
0.5,180,1,right,2,4,0,0,0,0,6,1,49,6,,,,,,,,,137.22313459999987,137.72285339999962,138.44038639999962,None,137.73953129999973,138.42386100000022,138.94112049999967,None,right,1,0.3379208000005747,138.94112049999967,None,None,137.73953129999973,138.92452760000015,0.5114462000001367,0.5947583999995913,1.7131148999997095,1.7964234999999462,,,,,,syed_1,001,2020_Feb_07_1524,posner,3.1.5,59.97282031781605,
0.5,180,1,right,2,4,0,0,0,0,6,2,50,7,,,,,,,,,139.30888379999942,139.80886610000016,140.52697999999964,None,139.82572849999997,140.50985010000022,141.02754959999947,None,right,1,0.3635561000000962,141.02754959999947,None,None,139.82572849999997,141.01060210000014,0.5115883999997095,0.5952342000000499,1.7133112999999867,1.796966799999609,,,,,,syed_1,001,2020_Feb_07_1524,posner,3.1.5,59.97282031781605,
-0.5,0,1,left,1,3,0,0,0,0,6,3,51,1,,,,,,,,,141.41203039999982,141.91207380000014,142.62951539999995,None,141.9286731000002,142.6130592999998,143.1300758999996,None,left,1,0.3330108999998629,143.1300758999996,None,None,141.9286731000002,143.11355000000003,0.5118766000005053,0.5951370000002498,1.7133296000001792,1.7968900000005306,,,,,,syed_1,001,2020_Feb_07_1524,posner,3.1.5,59.97282031781605,
-0.5,0,1,left,1,3,0,0,0,0,6,4,52,2,,,,,,,,,143.4819362999997,143.9814179999994,144.69890769999984,None,143.99813509999967,144.6823475000001,145.19960900000024,None,left,1,0.3274289000000863,145.19960900000024,None,None,143.99813509999967,145.18310800000017,0.5114870999996128,0.5949565999999322,1.713145199999417,1.7965071999997235,,,,,,syed_1,001,2020_Feb_07_1524,posner,3.1.5,59.97282031781605,
0.5,180,1,right,2,4,0,0,0,0,6,5,53,5,,,,,,,,,145.5513949999995,146.05083670000022,146.76910959999987,None,146.06751819999954,146.7519102999995,147.2693505999996,None,right,1,0.3857141999997111,147.2693505999996,None,None,146.06751819999954,147.25266089999968,0.5114021999997931,0.5948066999999355,1.7132005000003119,1.7965855000002193,,,,,,syed_1,001,2020_Feb_07_1524,posner,3.1.5,59.97282031781605,
-0.5,180,0,left,2,3,0,0,0,0,6,6,54,4,,,,,,,,,147.67082500000015,148.17049809999935,148.88801909999984,None,148.18732399999953,148.87140060000002,149.38870489999954,None,left,1,0.29827580000073795,149.38870489999954,None,None,148.18732399999953,149.37220459999935,0.5116742999998678,0.5951012999994418,1.713355899999442,1.7967481999994561,,,,,,syed_1,001,2020_Feb_07_1524,posner,3.1.5,59.97282031781605,
0.5,0,0,right,1,4,0,0,0,0,6,7,55,3,,,,,,,,,149.7068761999999,150.20681119999972,150.92435000000023,None,150.22329399999944,150.90762089999953,151.42519439999978,None,right,1,0.31774659999973665,151.42519439999978,None,None,150.22329399999944,151.40820189999977,0.5115958000005776,0.5948354000001927,1.7129715999999462,1.7965693000005558,,,,,,syed_1,001,2020_Feb_07_1524,posner,3.1.5,59.97282031781605,
-0.5,0,1,left,1,3,0,0,0,0,7,0,56,2,,,,,,,,,151.7591797999994,152.2593397999999,152.97728240000015,None,152.27609080000002,152.9602847999995,153.47783280000021,None,left,1,0.33710289999999077,153.47783280000021,None,None,152.27609080000002,153.46097049999935,0.5119703999998819,0.5954953000000387,1.7135834000000614,1.797258000000511,,,,,,syed_1,001,2020_Feb_07_1524,posner,3.1.5,59.97282031781605,
0.5,180,1,right,2,4,0,0,0,0,7,1,57,6,,,,,,,,,153.84584859999995,154.34576209999977,155.0632655999998,None,154.3624546000001,155.04660179999973,155.5640526999996,None,right,1,0.3629138000005696,155.5640526999996,None,None,154.3624546000001,155.5473648999996,0.5116451000003508,0.5947566000004372,1.7132308999998713,1.7966056000004755,,,,,,syed_1,001,2020_Feb_07_1524,posner,3.1.5,59.97282031781605,
-0.5,0,1,left,1,3,0,0,0,0,7,2,58,1,,,,,,,,,155.94821189999948,156.4484210999999,157.16620779999994,None,156.4653400999996,157.14944469999955,157.6669308999999,None,left,1,0.4360421999999744,157.6669308999999,None,None,156.4653400999996,157.65014259999953,0.5118450999998458,0.5955340999998953,1.7135473999996975,1.797009199999593,,,,,,syed_1,001,2020_Feb_07_1524,posner,3.1.5,59.97282031781605,
-0.5,0,1,left,1,3,0,0,0,0,7,3,59,0,,,,,,,,,158.13474029999998,158.63499520000005,159.35253190000003,None,158.65168949999952,159.33589549999942,159.85325139999986,None,left,1,0.34568099999978585,159.85325139999986,None,None,158.65168949999952,159.8365586,0.5117768999998589,0.5948818999995638,1.7133278999999675,1.7966202999996312,,,,,,syed_1,001,2020_Feb_07_1524,posner,3.1.5,59.97282031781605,
-0.5,180,0,left,2,3,0,0,0,0,7,4,60,4,,,,,,,,,160.22171049999997,160.72102429999995,161.43864519999988,None,160.73782579999988,161.42212629999995,161.93943779999972,None,left,1,0.3635956999996779,161.93943779999972,None,None,160.73782579999988,161.92260819999956,0.5113004000004366,0.5945701000000554,1.712847700000566,1.7964968000005683,,,,,,syed_1,001,2020_Feb_07_1524,posner,3.1.5,59.97282031781605,
0.5,180,1,right,2,4,0,0,0,0,7,5,61,5,,,,,,,,,162.32443779999994,162.82403109999996,163.5417706999997,None,162.8406046,163.52506019999964,164.04230480000024,None,right,1,0.3085761000002094,164.04230480000024,None,None,162.8406046,164.02564089999942,0.5113652000000002,0.5947127999997974,1.712953799999923,1.7962162000003445,,,,,,syed_1,001,2020_Feb_07_1524,posner,3.1.5,59.97282031781605,
0.5,180,1,right,2,4,0,0,0,0,7,6,62,7,,,,,,,,,164.37688949999938,164.87686620000022,165.5944583999999,None,164.8935209000001,165.57788149999942,166.09515109999938,None,right,1,0.32812490000014805,166.09515109999938,None,None,164.8935209000001,166.07863240000006,0.5115443000004234,0.5947877000007793,1.7132958000001963,1.796689000000697,,,,,,syed_1,001,2020_Feb_07_1524,posner,3.1.5,59.97282031781605,
0.5,0,0,right,1,4,0,0,0,0,7,7,63,3,,,,,,,,,166.44678909999948,166.94640040000013,167.66414410000016,None,166.96306540000023,167.64727369999946,168.16466880000007,None,right,1,0.3143190000000686,168.16466880000007,None,None,166.96306540000023,168.14806529999987,0.5114065999996456,0.5946487000001071,1.7130490999998074,1.7962981000000582,,,,,,syed_1,001,2020_Feb_07_1524,posner,3.1.5,59.97282031781605,
0.5,180,1,right,2,4,0,0,0,0,8,0,64,7,,,,,,,,,168.49921099999938,168.99932639999952,169.71639009999944,None,169.01591199999984,169.6998950999996,170.2175089000002,None,right,1,0.27739540000038687,170.2175089000002,None,None,169.01591199999984,170.2008492999994,0.5118411999992531,0.5951231999997617,1.7133642999997392,1.7967281999999614,,,,,,syed_1,001,2020_Feb_07_1524,posner,3.1.5,59.97282031781605,
-0.5,180,0,left,2,3,0,0,0,0,8,1,65,4,,,,,,,,,170.5187218000001,171.0184279999994,171.73629230000006,None,171.03526280000005,171.71952319999946,172.23700219999955,None,left,1,0.3221147000003839,172.23700219999955,None,None,171.03526280000005,172.22016970000004,0.5114363000002413,0.5950849999999264,1.7131680000002234,1.7966956999998729,,,,,,syed_1,001,2020_Feb_07_1524,posner,3.1.5,59.97282031781605,
0.5,180,1,right,2,4,0,0,0,0,8,2,66,5,,,,,,,,,172.58828369999992,173.08804469999995,173.80586829999993,None,173.10480109999935,173.7888613999994,174.30647039999985,None,right,1,0.30845049999970797,174.30647039999985,None,None,173.10480109999935,174.28961329999947,0.5116442999997162,0.595275099999526,1.713198999999804,1.7966523999994024,,,,,,syed_1,001,2020_Feb_07_1524,posner,3.1.5,59.97282031781605,
0.5,0,0,right,1,4,0,0,0,0,8,3,67,3,,,,,,,,,174.64033689999997,175.14079649999985,175.85848649999934,None,175.15747399999964,175.8420415999999,176.35923659999935,None,right,1,0.34366289999979927,176.35923659999935,None,None,175.15747399999964,176.34269309999945,0.5123514000006253,0.5960433000000194,1.7142241000001377,1.7977703000005931,,,,,,syed_1,001,2020_Feb_07_1524,posner,3.1.5,59.97282031781605,
-0.5,0,1,left,1,3,0,0,0,0,8,4,68,1,,,,,,,,,176.72731419999946,177.22734539999965,177.9447368000001,None,177.24384409999948,177.92808030000015,178.44549969999935,None,left,1,0.33739239999977144,178.44549969999935,None,None,177.24384409999948,178.42886420000013,0.5118567999998049,0.5950204999999187,1.713363599999866,1.7968375999998898,,,,,,syed_1,001,2020_Feb_07_1524,posner,3.1.5,59.97282031781605,
-0.5,0,1,left,1,3,0,0,0,0,8,5,69,0,,,,,,,,,178.81336079999983,179.3133244999999,180.03090059999977,None,179.32991049999964,180.0143011,180.53177289999985,None,left,1,0.29913850000048114,180.53177289999985,None,None,179.32991049999964,180.51495019999948,0.5114095000008092,0.5947454000006474,1.7130229000003965,1.7963304000004428,,,,,,syed_1,001,2020_Feb_07_1524,posner,3.1.5,59.97282031781605,
0.5,180,1,right,2,4,0,0,0,0,8,6,70,6,,,,,,,,,180.8499813999997,181.34946279999986,182.06715689999965,None,181.36643989999993,182.05044689999977,182.5678372000002,None,right,1,0.3190671000002112,182.5678372000002,None,None,181.36643989999993,182.5511489999999,0.5114639000003081,0.5949503000001641,1.7131400000007488,1.7965477000007013,,,,,,syed_1,001,2020_Feb_07_1524,posner,3.1.5,59.97282031781605,
-0.5,0,1,left,1,3,0,0,0,0,8,7,71,2,,,,,,,,,182.90242130000024,183.40239669999937,184.11985959999947,None,183.41891919999944,184.10328149999987,184.62075430000004,None,left,1,0.39399630000025354,184.62075430000004,None,None,183.41891919999944,184.60382449999997,0.5116785999998683,0.5950173999999606,1.71309409999958,1.7966885999994702,,,,,,syed_1,001,2020_Feb_07_1524,posner,3.1.5,59.97282031781605,
0.5,180,1,right,2,4,0,0,0,0,9,0,72,5,,,,,,,,,185.03853329999947,185.53850539999985,186.25634329999957,None,185.55529059999935,186.2394379999996,186.7568695,None,right,1,0.3220147000001816,186.7568695,None,None,185.55529059999935,186.7402007999999,0.5119175999998333,0.5955321000001277,1.7135904999995546,1.7971369999995659,,,,,,syed_1,001,2020_Feb_07_1524,posner,3.1.5,59.97282031781605,
-0.5,0,1,left,1,3,0,0,0,0,9,1,73,0,,,,,,,,,187.10814589999973,187.60797300000013,188.32585800000015,None,187.62485860000015,188.30893930000002,188.82653409999966,None,left,1,0.30042649999995774,188.82653409999966,None,None,187.62485860000015,188.8096958999995,0.511561299999812,0.5953164000002289,1.7132689000000028,1.7967664999996487,,,,,,syed_1,001,2020_Feb_07_1524,posner,3.1.5,59.97282031781605,
0.5,180,1,right,2,4,0,0,0,0,9,2,74,7,,,,,,,,,189.14406599999984,189.6441946999994,190.36207659999945,None,189.66073219999998,190.34523720000016,190.86274799999956,None,right,1,0.29605650000030437,190.86274799999956,None,None,189.66073219999998,190.84599059999982,0.5120247999993808,0.5956569999998464,1.7137997999998333,1.7970744999993258,,,,,,syed_1,001,2020_Feb_07_1524,posner,3.1.5,59.97282031781605,
-0.5,180,0,left,2,3,0,0,0,0,9,3,75,4,,,,,,,,,191.18042869999954,191.68028669999967,192.39795559999948,None,191.69704879999972,192.3812468999995,192.8986606999997,193.38269750000018,left,1,0.4921777999998085,192.8986606999997,None,None,191.69704879999972,192.88199040000018,0.5115965000004508,0.5951789000000645,1.713277200000448,1.7966424000005645,,,,,,syed_1,001,2020_Feb_07_1524,posner,3.1.5,59.97282031781605,
-0.5,0,1,left,1,3,0,0,0,0,9,4,76,1,,,,,,,,,193.4168682999998,193.9166865999996,194.63444079999954,None,193.9335148,194.61778799999956,195.13507299999947,None,left,1,0.3117462999998679,195.13507299999947,None,None,193.9335148,195.1182635999994,0.5115403999998307,0.5950423999993291,1.713099799999327,1.7966980999999578,,,,,,syed_1,001,2020_Feb_07_1524,posner,3.1.5,59.97282031781605,
-0.5,0,1,left,1,3,0,0,0,0,9,5,77,2,,,,,,,,,195.46989829999984,195.9695388,196.68729879999955,None,195.9862852999995,196.67051429999992,197.1879414999994,None,left,1,0.2989977999995972,197.1879414999994,None,None,195.9862852999995,197.17127699999946,0.5114740999997593,0.594958200000292,1.713189300000522,1.796565499999815,,,,,,syed_1,001,2020_Feb_07_1524,posner,3.1.5,59.97282031781605,
0.5,180,1,right,2,4,0,0,0,0,9,6,78,6,,,,,,,,,197.5060800000001,198.0059457999996,198.7232417999994,None,198.0225929999997,198.70687259999977,199.22403789999953,None,right,1,0.33479950000037206,199.22403789999953,None,None,198.0225929999997,199.20758829999977,0.5117213000003176,0.5947966000003362,1.7133559000003515,1.7965758000000278,,,,,,syed_1,001,2020_Feb_07_1524,posner,3.1.5,59.97282031781605,
0.5,0,0,right,1,4,0,0,0,0,9,7,79,3,,,,,,,,,199.57553219999954,200.07533289999992,200.79299139999966,None,200.09194509999998,200.77630649999992,201.293635,None,right,1,0.3131498000002466,201.293635,None,None,200.09194509999998,201.2770161999997,0.5117582000002585,0.5950064999997267,1.7134255999999368,1.796803700000055,,,,,,syed_1,001,2020_Feb_07_1524,posner,3.1.5,59.97282031781605,
-0.5,0,1,left,1,3,0,0,0,0,10,0,80,0,,,,,,,,,201.62840909999977,202.12802079999983,202.84573399999954,None,202.14478710000003,202.8291651999998,203.34642749999966,None,left,1,0.2684007999996538,203.34642749999966,None,None,202.14478710000003,203.32963519999976,0.511512699999912,0.5950286999996024,1.71313629999986,1.7965893999999025,,,,,,syed_1,001,2020_Feb_07_1524,posner,3.1.5,59.97282031781605,
-0.5,180,0,left,2,3,0,0,0,0,10,1,81,4,,,,,,,,,203.6310201999995,204.13074199999937,204.8484355999999,None,204.14746789999936,204.83169889999954,205.3491254999999,None,left,1,0.34564339999997173,205.3491254999999,None,None,204.14746789999936,205.33249819999946,0.5115992000000915,0.5949682000000394,1.7132824000000255,1.7967298000003211,,,,,,syed_1,001,2020_Feb_07_1524,posner,3.1.5,59.97282031781605,
-0.5,0,1,left,1,3,0,0,0,0,10,2,82,1,,,,,,,,,205.71735249999983,206.2169570999995,206.9346934999994,None,206.23382089999996,206.91808779999974,207.43531939999957,None,left,1,0.2675694999998086,207.43531939999957,None,None,206.23382089999996,207.41849319999983,0.5114513999997143,0.5947682000005443,1.7129658000003474,1.7966742999997223,,,,,,syed_1,001,2020_Feb_07_1524,posner,3.1.5,59.97282031781605,
-0.5,0,1,left,1,3,0,0,0,0,10,3,83,2,,,,,,,,,207.72030519999953,208.2197059,208.93746269999974,None,208.23650069999985,208.9206604000001,209.43800539999938,None,left,1,0.3127967999998873,209.43800539999938,None,None,208.23650069999985,209.42141549999997,0.5113489999994272,0.5948576000000685,1.7130397999999332,1.7965637999996034,,,,,,syed_1,001,2020_Feb_07_1524,posner,3.1.5,59.97282031781605,
0.5,180,1,right,2,4,0,0,0,0,10,4,84,6,,,,,,,,,209.77297850000014,210.27254850000008,210.99025449999954,None,210.28914900000018,210.97354319999977,211.49096310000004,None,right,1,0.3477915999992547,211.49096310000004,None,None,210.28914900000018,211.47441189999972,0.5113639000001058,0.594927799999823,1.7132115999993403,1.7963788999995813,,,,,,syed_1,001,2020_Feb_07_1524,posner,3.1.5,59.97282031781605,
0.5,0,0,right,1,4,0,0,0,0,10,5,85,3,,,,,,,,,211.85915169999953,212.35857739999938,213.07666040000004,None,212.37558329999956,213.05975529999978,213.57717989999946,None,right,1,0.3657008999998652,213.57717989999946,None,None,212.37558329999956,213.5603205999996,0.5112789000004341,0.5950200000006589,1.713003600000775,1.7965742000005775,,,,,,syed_1,001,2020_Feb_07_1524,posner,3.1.5,59.97282031781605,
0.5,180,1,right,2,4,0,0,0,0,10,6,86,5,,,,,,,,,213.9622245999999,214.46183269999983,215.17926219999936,None,214.47838469999988,215.16286599999967,215.68000219999976,None,right,1,0.28681309999956284,215.68000219999976,None,None,214.47838469999988,215.66338559999986,0.5115601999996215,0.5948607999998785,1.7131171000000904,1.7964426999997158,,,,,,syed_1,001,2020_Feb_07_1524,posner,3.1.5,59.97282031781605,
0.5,180,1,right,2,4,0,0,0,0,10,7,87,7,,,,,,,,,215.9978511999998,216.49772680000024,217.2154249999994,None,216.51455590000023,217.19864599999983,217.7162644,None,right,1,0.26653949999945326,217.7162644,None,None,216.51455590000023,217.69935219999934,0.5114904000001843,0.5951977999993687,1.7131025999997291,1.796713899999304,,,,,,syed_1,001,2020_Feb_07_1524,posner,3.1.5,59.97282031781605,
,,,,,,0,0,0,0,,,,,,,,,,,,,,,,,,,,,,,,,,,,,,,,,218.0012139999999,None,1.7800000023271423e-05,0.9957261999998082,,syed_1,001,2020_Feb_07_1524,posner,3.1.5,59.97282031781605,
0.5,180,1,right,2,4,1,0,1,0,0,0,0,5,1.1500000255182385e-05,0.09752769999977318,279.0171768,None,1.340000017080456e-05,0.0978160000004209,281.119901,None,281.3956349,281.9044746999998,282.6055188,None,281.9044746999998,282.6055188,283.10615270000017,None,right,1,0.3165017000001171,283.10615270000017,None,None,281.9044746999998,283.10615270000017,0.5023975000003702,0.6027217999999266,1.704015199999958,1.7877316000003702,,,,,,syed_1,001,2020_Feb_07_1524,posner,3.1.5,59.97282031781605,
0.5,0,0,right,1,4,1,0,1,0,0,1,1,3,,,,,,,,,283.44022029999996,283.94060459999946,284.65820470000017,None,283.95736189999934,284.6417104000002,285.15892149999945,None,right,1,0.3115916999995534,285.15892149999945,None,None,283.95736189999934,285.14237839999987,0.5114481999999043,0.594973399999617,1.713198999999804,1.7967554999995627,,,,,,syed_1,001,2020_Feb_07_1524,posner,3.1.5,59.97282031781605,
-0.5,0,1,left,1,3,1,0,1,0,0,2,2,0,,,,,,,,,285.4931410999998,285.99355319999995,286.71099090000007,None,286.0099941999997,286.69435840000006,287.2117896,None,left,1,0.30683630000021367,287.2117896,None,None,286.0099941999997,287.19513949999964,0.51206749999983,0.5954605999995692,1.71364259999973,1.797066399999494,,,,,,syed_1,001,2020_Feb_07_1524,posner,3.1.5,59.97282031781605,
-0.5,180,0,left,2,3,1,0,1,0,0,3,3,4,,,,,,,,,287.5464112999998,288.0463198999996,288.76381859999947,None,288.06294290000005,288.74718759999996,289.2646821999997,None,left,1,0.3338839999996708,289.2646821999997,None,None,288.06294290000005,289.24784159999945,0.5116769999995086,0.5949952999999368,1.71318169999995,1.7968073000001823,,,,,,syed_1,001,2020_Feb_07_1524,posner,3.1.5,59.97282031781605,
0.5,180,1,right,2,4,1,0,1,0,0,4,4,6,,,,,,,,,289.6158974,290.11575899999934,290.83341889999974,None,290.1324777,290.81682029999956,291.3342885000002,None,right,1,0.30420349999985774,291.3342885000002,None,None,290.1324777,291.3173219999999,0.5116418999996313,0.5949990999997681,1.7131825999995272,1.7966746000001876,,,,,,syed_1,001,2020_Feb_07_1524,posner,3.1.5,59.97282031781605,
-0.5,0,1,left,1,3,1,0,1,0,0,5,5,1,,,,,,,,,291.6682702999997,292.16843419999987,292.8862543999994,None,292.1854945999994,292.86959659999957,293.3868943999996,None,left,1,0.2676643000004333,293.3868943999996,None,None,292.1854945999994,293.37029689999963,0.5117467000000033,0.5953114000003552,1.7136246999998548,1.7969925000006697,,,,,,syed_1,001,2020_Feb_07_1524,posner,3.1.5,59.97282031781605,
0.5,180,1,right,2,4,1,0,1,0,0,6,6,7,,,,,,,,,293.6715829999994,294.17149919999974,294.88889279999967,None,294.1879964999998,294.87241449999965,295.38955110000006,None,right,1,0.3290971999995236,295.38955110000006,None,None,294.1879964999998,295.37302249999993,0.5118370000000141,0.595203599999877,1.7133367999995244,1.7967628999995213,,,,,,syed_1,001,2020_Feb_07_1524,posner,3.1.5,59.97282031781605,
-0.5,0,1,left,1,3,1,0,1,0,0,7,7,2,,,,,,,,,295.74141319999944,296.2408752000001,296.95839799999976,None,296.2576750999997,296.94194679999964,297.4591559999999,None,left,1,0.2913277999996353,297.4591559999999,None,None,296.2576750999997,297.44263539999974,0.511439199999586,0.5948066999999355,1.7131324000001769,1.7966452000000572,,,,,,syed_1,001,2020_Feb_07_1524,posner,3.1.5,59.97282031781605,
0.5,0,0,right,1,4,1,0,1,0,1,0,8,3,,,,,,,,,297.77695570000014,298.27712079999947,298.99462459999995,None,298.2936648999994,298.9779112999995,299.4954878999997,None,right,1,0.28691299999991315,299.4954878999997,None,None,298.2936648999994,299.4786389000001,0.5118627000001652,0.5951647000001685,1.7133387000003495,1.796840200000588,,,,,,syed_1,001,2020_Feb_07_1524,posner,3.1.5,59.97282031781605,
-0.5,0,1,left,1,3,1,0,1,0,1,1,9,1,,,,,,,,,299.81318399999964,300.31309770000007,301.03066599999966,None,300.3297410999994,301.01413279999997,301.5316763000001,None,left,1,0.24269379999986995,301.5316763000001,None,None,300.3297410999994,301.5149123000001,0.5114519999997356,0.5950159999993048,1.7132449999999153,1.7965426000000662,,,,,,syed_1,001,2020_Feb_07_1524,posner,3.1.5,59.97282031781605,
0.5,180,1,right,2,4,1,0,1,0,1,2,10,5,,,,,,,,,301.79851729999973,302.29918279999947,303.0168555,None,302.3161479999999,303.00014790000023,303.5174790000001,None,right,1,0.23298969999996189,303.5174790000001,None,None,302.3161479999999,303.50099319999936,0.5122877000003427,0.595766100000219,1.7140858000002481,1.7974614000004294,,,,,,syed_1,001,2020_Feb_07_1524,posner,3.1.5,59.97282031781605,
0.5,180,1,right,2,4,1,0,1,0,1,3,11,6,,,,,,,,,303.7686023999995,304.2685448000002,304.98610689999987,None,304.2854192999994,304.9695439999996,305.48690889999943,None,right,1,0.3355984999998327,305.48690889999943,None,None,304.2854192999994,305.4702084999999,0.5117828000002191,0.5952501000001575,1.7134280999998737,1.7968683999997666,,,,,,syed_1,001,2020_Feb_07_1524,posner,3.1.5,59.97282031781605,
-0.5,0,1,left,1,3,1,0,1,0,1,4,12,2,,,,,,,,,305.83838259999993,306.33800919999976,307.05586010000025,None,306.3548344999999,307.03897589999997,307.55643059999966,None,left,1,0.29796020000048884,307.55643059999966,None,None,306.3548344999999,307.53963849999946,0.5115393999994922,0.5950824999999895,1.7131514000002426,1.7967933999998422,,,,,,syed_1,001,2020_Feb_07_1524,posner,3.1.5,59.97282031781605,
-0.5,0,1,left,1,3,1,0,1,0,1,5,13,0,,,,,,,,,307.8747309999999,308.3742345999999,309.0919616000001,None,308.39096679999966,309.0753374999995,309.59259419999944,None,left,1,0.32581430000027467,309.59259419999944,None,None,308.39096679999966,309.5758958999995,0.5113400000000183,0.5946358000001055,1.712991599999441,1.7962568000002648,,,,,,syed_1,001,2020_Feb_07_1524,posner,3.1.5,59.97282031781605,
0.5,180,1,right,2,4,1,0,1,0,1,6,14,7,,,,,,,,,309.9437517999995,310.44377879999956,311.1613545,None,310.46047159999944,311.14485389999936,311.66205439999976,None,right,1,0.2803256000006513,311.66205439999976,None,None,310.46047159999944,311.6454064999998,0.5115242000001672,0.5949307999999291,1.7131328999994366,1.7965071999997235,,,,,,syed_1,001,2020_Feb_07_1524,posner,3.1.5,59.97282031781605,
-0.5,180,0,left,2,3,1,0,1,0,1,7,15,4,,,,,,,,,311.9633944999996,312.46314189999975,313.1807210999996,None,312.47984859999997,313.1641701999997,313.68153410000014,None,left,1,0.3088563000001159,313.68153410000014,None,None,312.47984859999997,313.6646630999994,0.5114481999999043,0.5949359000005643,1.7129615000003469,1.796485400000165,,,,,,syed_1,001,2020_Feb_07_1524,posner,3.1.5,59.97282031781605,
0.5,0,0,right,1,4,1,0,1,0,2,0,16,3,,,,,,,,,314.0158633000001,314.5160522999995,315.2335667999996,None,314.5327103999998,315.21695719999934,315.7343734999995,None,right,1,0.34392919999936566,315.7343734999995,None,None,314.5327103999998,315.7175946999996,0.511733400000594,0.5951080000004367,1.7132615999998961,1.796806000000288,,,,,,syed_1,001,2020_Feb_07_1524,posner,3.1.5,59.97282031781605,
-0.5,0,1,left,1,3,1,0,1,0,2,1,17,1,,,,,,,,,316.10274709999976,316.60223940000014,317.31968309999957,None,316.61883409999973,317.30320870000014,317.8204606999998,None,left,1,0.3218120999999883,317.8204606999998,None,None,316.61883409999973,317.8039055999998,0.5114129000003231,0.5948266999994303,1.7130666000002748,1.7963041000002704,,,,,,syed_1,001,2020_Feb_07_1524,posner,3.1.5,59.97282031781605,
-0.5,0,1,left,1,3,1,0,1,0,2,2,18,0,,,,,,,,,318.1719444999999,318.6717633999997,319.38930399999936,None,318.68841599999996,319.3726961000002,319.88999539999986,None,left,1,0.40430489999926067,319.88999539999986,None,None,318.68841599999996,319.8734384999998,0.511507299999721,0.5948669999997946,1.713159099999757,1.7966091999996934,,,,,,syed_1,001,2020_Feb_07_1524,posner,3.1.5,59.97282031781605,
-0.5,180,0,left,2,3,1,0,1,0,2,3,19,4,,,,,,,,,320.3247572,320.82484099999965,321.54230389999975,None,320.8414037000002,321.5258021999998,322.04297829999996,None,left,1,0.3793137000002389,322.04297829999996,None,None,320.8414037000002,322.0263503999995,0.5118782999998075,0.5950997999998435,1.7133758999998463,1.7967134999998962,,,,,,syed_1,001,2020_Feb_07_1524,posner,3.1.5,59.97282031781605,
0.5,180,1,right,2,4,1,0,1,0,2,4,20,5,,,,,,,,,322.4446595999998,322.94426289999956,323.6619740999995,None,322.9609752999995,323.64528319999954,324.16266970000015,None,right,1,0.2839299999996001,324.16266970000015,None,None,322.9609752999995,324.1458757999999,0.5113749000001917,0.5947234000004755,1.7129811000004338,1.7962751000004573,,,,,,syed_1,001,2020_Feb_07_1524,posner,3.1.5,59.97282031781605,
0.5,180,1,right,2,4,1,0,1,0,2,5,21,7,,,,,,,,,324.46326510000017,324.9636697999995,325.68139619999965,None,324.98030180000023,325.66478149999966,326.1821288000001,None,right,1,0.32824840000012045,326.1821288000001,None,None,324.98030180000023,326.1654463999994,0.5120065999999497,0.5953981000002386,1.7137695999999778,1.7970126999998683,,,,,,syed_1,001,2020_Feb_07_1524,posner,3.1.5,59.97282031781605,
0.5,180,1,right,2,4,1,0,1,0,2,6,22,6,,,,,,,,,326.53356389999954,327.03318109999964,327.75114829999984,None,327.04990670000007,327.73428969999986,328.2515500999998,None,right,1,0.41077099999984057,328.2515500999998,None,None,327.04990670000007,328.2348242999997,0.5114054000005126,0.5948642000003019,1.7130315000003975,1.7964434000004985,,,,,,syed_1,001,2020_Feb_07_1524,posner,3.1.5,59.97282031781605,
-0.5,0,1,left,1,3,1,0,1,0,2,7,23,2,,,,,,,,,328.68641879999996,329.18622929999947,329.9037720999995,None,329.20289689999936,329.8871683999996,330.4049364000002,None,left,1,0.28949740000007296,330.4049364000002,None,None,329.20289689999936,330.3877123000002,0.5115716000000248,0.594912800000202,1.7130540000007386,1.796763600000304,,,,,,syed_1,001,2020_Feb_07_1524,posner,3.1.5,59.97282031781605,
-0.5,0,1,left,1,3,1,0,1,0,3,0,24,0,,,,,,,,,330.7222191000001,331.22245049999947,331.93991949999963,None,331.2388844999996,331.9231940999998,332.4407013,None,left,1,0.317572800000562,332.4407013,None,None,331.2388844999996,332.4240448999999,0.5121871999999712,0.5954977999999755,1.71375850000004,1.7970704999997906,,,,,,syed_1,001,2020_Feb_07_1524,posner,3.1.5,59.97282031781605,
0.5,180,1,right,2,4,1,0,1,0,3,1,25,5,,,,,,,,,332.7752974999994,333.2752673999994,333.99284329999955,None,333.2918297999995,333.97624989999986,334.4936034000002,None,right,1,0.32066219999978784,334.4936034000002,None,None,333.2918297999995,334.4770010000002,0.5118574000007357,0.5949828000002526,1.7135738000006313,1.7968832000005932,,,,,,syed_1,001,2020_Feb_07_1524,posner,3.1.5,59.97282031781605,
-0.5,0,1,left,1,3,1,0,1,0,3,2,26,1,,,,,,,,,334.8444879999997,335.3446831000001,336.0623770000002,None,335.3614091999998,336.04565639999964,336.56295129999944,None,left,1,0.29946770000060496,336.56295129999944,None,None,335.3614091999998,336.54628200000025,0.5117417999999816,0.5950937999996313,1.7133224999997765,1.7966526999998678,,,,,,syed_1,001,2020_Feb_07_1524,posner,3.1.5,59.97282031781605,
0.5,180,1,right,2,4,1,0,1,0,3,3,27,6,,,,,,,,,336.88076699999965,337.3807339999994,338.0983434,None,337.3975657000001,338.08161779999955,338.59906200000023,None,right,1,0.29546899999968446,338.59906200000023,None,None,337.3975657000001,338.58239479999975,0.5118511000000581,0.595470899999782,1.7134957999996914,1.797005700000227,,,,,,syed_1,001,2020_Feb_07_1524,posner,3.1.5,59.97282031781605,
0.5,180,1,right,2,4,1,0,1,0,3,4,28,7,,,,,,,,,338.9171692,339.4169241999998,340.1345285999996,None,339.43355919999976,340.1177705,340.63528489999953,None,right,1,0.38706640000054904,340.63528489999953,None,None,339.43355919999976,340.6184395,0.5114893999998458,0.5948742999999013,1.7129933999995046,1.7965356999993674,,,,,,syed_1,001,2020_Feb_07_1524,posner,3.1.5,59.97282031781605,
-0.5,180,0,left,2,3,1,0,1,0,3,5,29,4,,,,,,,,,341.0533455999994,341.55334630000016,342.27094619999934,None,341.5698231999995,342.2540090000002,342.7716812999997,None,left,1,0.29871259999981703,342.7716812999997,None,None,341.5698231999995,342.7550000000001,0.5117348000003403,0.5950143000000025,1.7133676000003106,1.796521400000529,,,,,,syed_1,001,2020_Feb_07_1524,posner,3.1.5,59.97282031781605,
0.5,0,0,right,1,4,1,0,1,0,3,6,30,3,,,,,,,,,343.0893999,343.5891375000001,344.3070037999996,None,343.6060637999999,344.2902581999997,344.8075283999997,None,right,1,0.2948660000001837,344.8075283999997,None,None,343.6060637999999,344.79095700000016,0.511370999999599,0.595140999999785,1.7131775999996535,1.7967580999993515,,,,,,syed_1,001,2020_Feb_07_1524,posner,3.1.5,59.97282031781605,
-0.5,0,1,left,1,3,1,0,1,0,3,7,31,2,,,,,,,,,345.1255124999998,345.62562419999995,346.3431872000001,None,345.64212249999946,346.32643069999995,346.84385250000014,None,left,1,0.28242279999994935,346.84385250000014,None,None,345.64212249999946,346.8271969999996,0.5119760000006863,0.5951522000004843,1.713530200000605,1.7967751000005592,,,,,,syed_1,001,2020_Feb_07_1524,posner,3.1.5,59.97282031781605,
0.5,180,1,right,2,4,1,0,1,0,4,0,32,7,,,,,,,,,347.1454383999999,347.64504450000004,348.36254479999934,None,347.66169759999957,348.3459376999999,348.8633184,None,right,1,0.2709543000000849,348.8633184,None,None,347.66169759999957,348.84637310000016,0.5114588000005824,0.5946536999999807,1.7127766000003248,1.7963610000006156,,,,,,syed_1,001,2020_Feb_07_1524,posner,3.1.5,59.97282031781605,
-0.5,0,1,left,1,3,1,0,1,0,4,1,33,1,,,,,,,,,349.1640811999996,349.6644059,350.38198060000013,None,349.6809456000001,350.3658680999997,350.88232489999973,None,left,1,0.3879844000002777,350.88232489999973,None,None,349.6809456000001,350.8658168000002,0.5116621000006489,0.5949218000005203,1.7130577000007179,1.7965530999999828,,,,,,syed_1,001,2020_Feb_07_1524,posner,3.1.5,59.97282031781605,
-0.5,0,1,left,1,3,1,0,1,0,4,2,34,2,,,,,,,,,351.3006094000002,351.8006826999999,352.51821409999957,None,351.81728079999993,352.50153020000016,353.01883799999996,None,left,1,0.34739129999979923,353.01883799999996,None,None,351.81728079999993,353.00221859999965,0.5117210999997042,0.595214500000111,1.7132368000002316,1.7969371999997747,,,,,,syed_1,001,2020_Feb_07_1524,posner,3.1.5,59.97282031781605,
0.5,0,0,right,1,4,1,0,1,0,4,3,35,3,,,,,,,,,353.3872765999995,353.88682830000016,354.6043762999998,None,353.90359029999945,354.58771179999985,355.10526149999987,None,right,1,0.30893709999963903,355.10526149999987,None,None,353.90359029999945,355.0882995000002,0.511313599999994,0.5947470000000976,1.7127749000001131,1.7964615999999296,,,,,,syed_1,001,2020_Feb_07_1524,posner,3.1.5,59.97282031781605,
0.5,180,1,right,2,4,1,0,1,0,4,4,36,5,,,,,,,,,355.4397438999995,355.93951990000005,356.6572261000001,None,355.95626040000025,356.64066099999945,357.1578152000002,None,right,1,0.31241119999958755,357.1578152000002,None,None,355.95626040000025,357.1413501999996,0.5114332000002833,0.5950918999997157,1.7132387999999992,1.7968606000004002,,,,,,syed_1,001,2020_Feb_07_1524,posner,3.1.5,59.97282031781605,
0.5,180,1,right,2,4,1,0,1,0,4,5,37,6,,,,,,,,,357.4925862,357.99247300000025,358.7100787999998,None,358.0090503000001,358.6935069000001,359.2106566000002,None,right,1,0.34757919999992737,359.2106566000002,None,None,358.0090503000001,359.1940790999997,0.5114911000000575,0.5949535999998261,1.7130806000004668,1.7966248000002452,,,,,,syed_1,001,2020_Feb_07_1524,posner,3.1.5,59.97282031781605,
-0.5,0,1,left,1,3,1,0,1,0,4,6,38,0,,,,,,,,,359.5785135999995,360.07880680000017,360.7963712999999,None,360.09547440000006,360.7796336000001,361.2971894000002,None,left,1,0.29304580000007263,361.2971894000002,None,None,360.09547440000006,361.28027399999974,0.512141100000008,0.5954687000003105,1.7135934999996607,1.7970987999997305,,,,,,syed_1,001,2020_Feb_07_1524,posner,3.1.5,59.97282031781605,
-0.5,180,0,left,2,3,1,0,1,0,4,7,39,4,,,,,,,,,361.61482479999995,362.11484500000006,362.8323438999996,None,362.13156160000017,362.81580609999946,363.3330979000002,None,left,1,0.289110100000471,363.3330979000002,None,None,362.13156160000017,363.3164382999994,0.5117335000004459,0.5950612000006004,1.713315099999818,1.7966464000000997,,,,,,syed_1,001,2020_Feb_07_1524,posner,3.1.5,59.97282031781605,
0.5,0,0,right,1,4,1,0,1,0,5,0,40,3,,,,,,,,,363.6512342999995,364.1509366999999,364.86903939999956,None,364.16777189999993,364.85199589999957,365.36963579999974,None,right,1,0.30046930000025895,365.36963579999974,None,None,364.16777189999993,365.3525803000002,0.5116962000001877,0.5951285000001008,1.7133170999995855,1.7968254999996134,,,,,,syed_1,001,2020_Feb_07_1524,posner,3.1.5,59.97282031781605,
-0.5,0,1,left,1,3,1,0,1,0,5,1,41,1,,,,,,,,,365.6873455999994,366.18709769999987,366.9047959999998,None,366.2039046,366.8878378999998,367.4053834999995,None,left,1,0.2967781000006653,367.4053834999995,None,None,366.2039046,367.3887083999998,0.5116137999993953,0.5948907000001782,1.7132118999998056,1.7967853000000105,,,,,,syed_1,001,2020_Feb_07_1524,posner,3.1.5,59.97282031781605,
-0.5,180,0,left,2,3,1,0,1,0,5,2,42,4,,,,,,,,,367.7235740999995,368.22336579999956,368.94081769999957,None,368.2397160999999,368.9242481000001,369.4415799999997,None,left,1,0.2926246999995783,369.4415799999997,None,None,368.2397160999999,369.42501099999936,0.5114565999992919,0.5946615999991991,1.7130954999993264,1.7964157999995223,,,,,,syed_1,001,2020_Feb_07_1524,posner,3.1.5,59.97282031781605,
-0.5,0,1,left,1,3,1,0,1,0,5,3,43,0,,,,,,,,,369.7596131999999,370.25922889999947,370.97697229999994,None,370.2761144999995,370.9602361999996,371.4777064,None,left,1,0.35252680000030523,371.4777064,None,None,370.2761144999995,371.4612275999998,0.511281300000519,0.5949314999998023,1.7132603000000017,1.796533100000488,,,,,,syed_1,001,2020_Feb_07_1524,posner,3.1.5,59.97282031781605,
-0.5,0,1,left,1,3,1,0,1,0,5,4,44,2,,,,,,,,,371.8626807999999,372.36227299999973,373.0796892999997,None,372.37878120000005,373.0631773999994,373.5805814999994,None,left,1,0.31359229999998206,373.5805814999994,None,None,372.37878120000005,373.56387209999957,0.5111834000008457,0.5946506000000227,1.7127669000001333,1.7961418000004414,,,,,,syed_1,001,2020_Feb_07_1524,posner,3.1.5,59.97282031781605,
0.5,180,1,right,2,4,1,0,1,0,5,5,45,6,,,,,,,,,373.91543809999985,374.4148951999996,375.13269859999946,None,374.43169639999996,375.11613679999937,375.6333513999998,None,right,1,0.2928261000006387,375.6333513999998,None,None,374.43169639999996,375.6168805999996,0.5114460000004328,0.5948692000001756,1.713409099999808,1.7967144000003827,,,,,,syed_1,001,2020_Feb_07_1524,posner,3.1.5,59.97282031781605,
0.5,180,1,right,2,4,1,0,1,0,5,6,46,5,,,,,,,,,375.95142849999957,376.45123950000016,377.16868239999985,None,376.467756,377.1521561999998,377.6694298000002,None,right,1,0.2728284999993775,377.6694298000002,None,None,376.467756,377.6528239999998,0.5116764000003968,0.59503180000047,1.713243700000021,1.796744000000217,,,,,,syed_1,001,2020_Feb_07_1524,posner,3.1.5,59.97282031781605,
0.5,180,1,right,2,4,1,0,1,0,5,7,47,7,,,,,,,,,377.9710177999996,378.47077569999965,379.18819709999934,None,378.48735320000014,379.1715763000002,379.6888319999998,None,right,1,0.3012834999999541,379.6888319999998,None,None,378.48735320000014,379.67234800000006,0.511853300000439,0.5953319000000192,1.7134099000004426,1.7967375999996875,,,,,,syed_1,001,2020_Feb_07_1524,posner,3.1.5,59.97282031781605,
-0.5,0,1,left,1,3,1,0,1,0,6,0,48,1,,,,,,,,,380.0066197999995,380.5068018000002,381.22476539999934,None,380.52335849999963,381.2076675999997,381.72530860000006,None,left,1,0.328867000000173,381.72530860000006,None,None,380.52335849999963,381.70860809999976,0.5116656000000148,0.5950694000002841,1.713460699999814,1.7967751000005592,,,,,,syed_1,001,2020_Feb_07_1524,posner,3.1.5,59.97282031781605,
-0.5,0,1,left,1,3,1,0,1,0,6,1,49,0,,,,,,,,,382.0764537999994,382.5763270999996,383.2938285,None,382.59304259999954,383.2773497999997,383.7946889999994,None,left,1,0.3396220999993602,383.7946889999994,None,None,382.59304259999954,383.7779131999996,0.5115406999993866,0.5948985999993965,1.7131154999997307,1.7966059000000314,,,,,,syed_1,001,2020_Feb_07_1524,posner,3.1.5,59.97282031781605,
0.5,180,1,right,2,4,1,0,1,0,6,2,50,5,,,,,,,,,384.16271700000016,384.6625119999999,385.3801818000002,None,384.6791052999997,385.3634320000001,385.8809956999994,None,right,1,0.2851323000004413,385.8809956999994,None,None,384.6791052999997,385.8642769999997,0.5116233999997348,0.5951633000004222,1.7133628999999928,1.7964497000002666,,,,,,syed_1,001,2020_Feb_07_1524,posner,3.1.5,59.97282031781605,
0.5,0,0,right,1,4,1,0,1,0,6,3,51,3,,,,,,,,,386.1822296999999,386.6818788999999,387.3995169,None,386.69856939999954,387.3828969999995,387.9002406999998,None,right,1,0.2818485000007058,387.9002406999998,None,None,386.69856939999954,387.88364809999985,0.5114307000003464,0.59487800000079,1.7131923000006282,1.7965758000000278,,,,,,syed_1,001,2020_Feb_07_1524,posner,3.1.5,59.97282031781605,
-0.5,0,1,left,1,3,1,0,1,0,6,4,52,2,,,,,,,,,388.20151989999977,388.70145609999963,389.4189666000002,None,388.7178973,389.40233720000015,389.9196691999996,None,left,1,0.3343488000000434,389.9196691999996,None,None,388.7178973,389.90319629999976,0.5117862000006426,0.5951147000005221,1.7135099000006448,1.7967068000007202,,,,,,syed_1,001,2020_Feb_07_1524,posner,3.1.5,59.97282031781605,
-0.5,180,0,left,2,3,1,0,1,0,6,5,53,4,,,,,,,,,390.2711555999995,390.7709393999994,391.48846969999977,None,390.7874385999994,391.47210709999945,391.9891014999994,None,left,1,0.3450284999998985,391.9891014999994,None,None,390.7874385999994,391.9725443999996,0.511641499999314,0.5949738999997862,1.713232799999787,1.7966302999993786,,,,,,syed_1,001,2020_Feb_07_1524,posner,3.1.5,59.97282031781605,
0.5,180,1,right,2,4,1,0,1,0,6,6,54,7,,,,,,,,,392.35679470000014,392.8569765000002,393.57504640000025,None,392.8736454,393.5579915999997,394.0755687000001,None,right,1,0.3067080000000715,394.0755687000001,None,None,392.8736454,394.05859509999937,0.5115175999999337,0.5951347000000169,1.7131286000003456,1.7966789000001882,,,,,,syed_1,001,2020_Feb_07_1524,posner,3.1.5,59.97282031781605,
0.5,180,1,right,2,4,1,0,1,0,6,7,55,6,,,,,,,,,394.41016239999954,394.9098481000001,395.6275177999996,None,394.9266551999999,395.6112002,396.1282143999997,396.6123670999996,None,0,,396.1282143999997,None,None,394.9266551999999,396.1116960999998,0.5116160000006857,0.5951629000001049,1.713445800000045,1.7968556000005265,,,,,,syed_1,001,2020_Feb_07_1524,posner,3.1.5,59.97282031781605,
0.5,180,1,right,2,4,1,0,1,0,7,0,56,7,,,,,,,,,397.11293509999996,397.6138108999994,398.3313518999994,397.11293509999996,397.6302010999998,398.3148229999997,398.8320785999995,None,right,1,0.33427060000030906,398.8320785999995,None,None,397.6302010999998,398.8153438999998,0.5137099999992643,0.5968364999998812,1.7152305999998134,1.798497299999326,,,,,,syed_1,001,2020_Feb_07_1524,posner,3.1.5,59.97282031781605,
-0.5,0,1,left,1,3,1,0,1,0,7,1,57,1,,,,,,,,,399.18362629999956,399.6831996000001,400.4007709999996,None,399.6997930999996,400.38428549999935,400.9016230999996,None,left,1,0.3203644000004715,400.9016230999996,None,None,399.6997930999996,400.8848229999994,0.5112349000000904,0.5948089000003165,1.712846499999614,1.7961488000000827,,,,,,syed_1,001,2020_Feb_07_1524,posner,3.1.5,59.97282031781605,
-0.5,0,1,left,1,3,1,0,1,0,7,2,58,2,,,,,,,,,401.2530240999995,401.7526081999995,402.47014260000014,None,401.7693227,402.45371089999935,402.9710269999996,None,left,1,0.21108880000065255,402.9710269999996,None,None,401.7693227,402.9544786999995,0.5113876999994318,0.5950175999996645,1.7132354999994277,1.7964554000000135,,,,,,syed_1,001,2020_Feb_07_1524,posner,3.1.5,59.97282031781605,
0.5,180,1,right,2,4,1,0,1,0,7,3,59,6,,,,,,,,,403.20536660000016,403.70545140000013,404.4230437999995,None,403.722076,404.40623609999966,404.9236387000001,None,right,1,0.2665784999999232,404.9236387000001,None,None,403.722076,404.9071365,0.5117911000006643,0.5949368000001414,1.7134633000005124,1.7967839000002641,,,,,,syed_1,001,2020_Feb_07_1524,posner,3.1.5,59.97282031781605,
0.5,180,1,right,2,4,1,0,1,0,7,4,60,5,,,,,,,,,405.2085731999996,405.70800039999995,406.4259897000002,None,405.7250448999994,406.4090533999997,406.92649079999956,None,right,1,0.29550769999968907,406.92649079999956,None,None,405.7250448999994,406.90972729999976,0.5113306000002922,0.5949375000000146,1.713033699999869,1.7964535999999498,,,,,,syed_1,001,2020_Feb_07_1524,posner,3.1.5,59.97282031781605,
-0.5,180,0,left,2,3,1,0,1,0,7,5,61,4,,,,,,,,,407.24461379999957,407.74431769999956,408.4620033000001,None,407.76090769999973,408.4454061999995,408.9627518999996,None,left,1,0.31534910000027594,408.9627518999996,None,None,407.76090769999973,408.94588250000015,0.5114160000002812,0.594741900000372,1.71296540000003,1.7964027000007263,,,,,,syed_1,001,2020_Feb_07_1524,posner,3.1.5,59.97282031781605,
0.5,0,0,right,1,4,1,0,1,0,7,6,62,3,,,,,,,,,409.2973271999999,409.79699999999957,410.51474099999996,None,409.81370030000016,410.4978804000002,411.0150232999995,None,right,1,0.3269403999993301,411.0150232999995,None,None,409.81370030000016,410.99930049999966,0.5114556000007724,0.5950142000001506,1.713735799999995,1.7958112000005713,,,,,,syed_1,001,2020_Feb_07_1524,posner,3.1.5,59.97282031781605,
-0.5,0,1,left,1,3,1,0,1,0,7,7,63,0,,,,,,,,,411.36673710000014,411.86707000000024,412.5842312999994,None,411.8833843000002,412.5675025999999,413.0849542999995,None,left,1,0.38509550000071613,413.0849542999995,None,None,411.8833843000002,413.06812979999995,0.5122897999999623,0.5951772999997047,1.7133378999997149,1.7969811000002665,,,,,,syed_1,001,2020_Feb_07_1524,posner,3.1.5,59.97282031781605,
0.5,180,1,right,2,4,1,0,1,0,8,0,64,6,,,,,,,,,413.48629339999934,413.9861366999994,414.70393369999965,None,414.00292549999995,414.6872059999996,415.2045361999999,None,right,1,0.3214480000006006,415.2045361999999,None,None,414.00292549999995,415.1877045000001,0.5116528999997172,0.5949955000005502,1.7132072000003973,1.7969478000004528,,,,,,syed_1,001,2020_Feb_07_1524,posner,3.1.5,59.97282031781605,
0.5,180,1,right,2,4,1,0,1,0,8,1,65,7,,,,,,,,,415.5557523999996,416.0556679000001,416.7735421999996,None,416.0723436999997,416.75677780000024,417.2742720999995,None,right,1,0.37969629999952303,417.2742720999995,None,None,416.0723436999997,417.2572103000002,0.5116532000001826,0.5950235000000248,1.7131822999999713,1.7967910999996093,,,,,,syed_1,001,2020_Feb_07_1524,posner,3.1.5,59.97282031781605,
-0.5,0,1,left,1,3,1,0,1,0,8,2,66,1,,,,,,,,,417.6755224999997,418.17549749999944,418.89284619999944,None,418.19203800000014,418.8762766,419.3936622000001,None,left,1,0.4523715000004813,419.3936622000001,None,None,418.19203800000014,419.3766883999997,0.5119654000000082,0.5951436999994257,1.7131401999995433,1.7970595999995567,,,,,,syed_1,001,2020_Feb_07_1524,posner,3.1.5,59.97282031781605,
0.5,180,1,right,2,4,1,0,1,0,8,3,67,5,,,,,,,,,419.8618027000002,420.36170479999964,421.07924449999973,None,420.3782976000002,421.0624619,421.5797756000002,None,right,1,0.37018020000050456,421.5797756000002,None,None,420.3782976000002,421.5632250999997,0.5116359000003285,0.594970099999955,1.7131383999994796,1.7965629000000263,,,,,,syed_1,001,2020_Feb_07_1524,posner,3.1.5,59.97282031781605,
-0.5,0,1,left,1,3,1,0,1,0,8,4,68,0,,,,,,,,,421.98116500000015,422.4812041999994,423.1987412999997,None,422.4977364999995,423.1821238000002,423.69944959999975,None,left,1,0.4425125999996453,423.69944959999975,None,None,422.4977364999995,423.6827996000002,0.5115583999995579,0.5949433999994653,1.7131466000000728,1.7966883999997663,,,,,,syed_1,001,2020_Feb_07_1524,posner,3.1.5,59.97282031781605,
-0.5,0,1,left,1,3,1,0,1,0,8,5,69,2,,,,,,,,,424.16742629999953,424.66730759999973,425.3852152999998,None,424.6841476999998,425.36866269999973,425.8860212999998,426.3700098999998,left,1,0.47990389999995386,425.8860212999998,None,None,424.6841476999998,425.8692159000002,0.5116238999999041,0.5953429000001051,1.713517299999694,1.7969813999998223,,,,,,syed_1,001,2020_Feb_07_1524,posner,3.1.5,59.97282031781605,
0.5,0,0,right,1,4,1,0,1,0,8,6,70,3,,,,,,,,,426.3872984999998,426.88706339999953,427.6049057,None,426.90394229999947,427.5880238,428.1057138999995,None,right,1,0.3322754000000714,428.1057138999995,None,None,426.90394229999947,428.08878469999945,0.5113025000000562,0.595098899999357,1.7130096000000776,1.7965626999994129,,,,,,syed_1,001,2020_Feb_07_1524,posner,3.1.5,59.97282031781605,
-0.5,180,0,left,2,3,1,0,1,0,8,7,71,4,,,,,,,,,428.4571249999999,428.9568198999996,429.6747527999996,None,428.9734744999996,429.6575355999994,430.1752901,None,left,1,0.3507687999999689,430.1752901,None,None,428.9734744999996,430.15827329999956,0.5116227999997136,0.595004699999663,1.7130534999996598,1.7965455000003203,,,,,,syed_1,001,2020_Feb_07_1524,posner,3.1.5,59.97282031781605,
-0.5,0,1,left,1,3,1,0,1,0,9,0,72,2,,,,,,,,,430.54316539999945,431.0429405999994,431.7608223999996,None,431.0595879000002,431.74397020000015,432.2613875999996,None,left,1,0.32055099999979575,432.2613875999996,None,None,431.0595879000002,432.2447354999995,0.511657600000035,0.5952684999992925,1.7134353999999803,1.7966753999999128,,,,,,syed_1,001,2020_Feb_07_1524,posner,3.1.5,59.97282031781605,
0.5,180,1,right,2,4,1,0,1,0,9,1,73,5,,,,,,,,,432.6125827999995,433.11256390000017,433.8300610999995,None,433.12910589999956,433.81353579999995,434.3308941999994,None,right,1,0.33116269999936776,434.3308941999994,None,None,433.12910589999956,434.3141803999997,0.5115710999998555,0.5949209000000337,1.7131761999999071,1.7965619999995397,,,,,,syed_1,001,2020_Feb_07_1524,posner,3.1.5,59.97282031781605,
0.5,180,1,right,2,4,1,0,1,0,9,2,74,7,,,,,,,,,434.68249060000016,435.18195769999966,435.8995678000001,None,435.1985709999999,435.88293819999944,436.40032359999987,None,right,1,0.31759469999997236,436.40032359999987,None,None,435.1985709999999,436.38359690000016,0.5114098000003651,0.5948852999999872,1.7130369000005885,1.7964124000000083,,,,,,syed_1,001,2020_Feb_07_1524,posner,3.1.5,59.97282031781605,
0.5,180,1,right,2,4,1,0,1,0,9,3,75,6,,,,,,,,,436.7349368999994,437.23504129999947,437.9525073999994,None,437.25142830000004,437.93578759999946,438.4532472000001,None,right,1,0.2807560999999623,438.4532472000001,None,None,437.25142830000004,438.4364859999996,0.5119493000001967,0.5951038000002882,1.7133782000000792,1.7968227999999726,,,,,,syed_1,001,2020_Feb_07_1524,posner,3.1.5,59.97282031781605,
-0.5,180,0,left,2,3,1,0,1,0,9,4,76,4,,,,,,,,,438.7545505999997,439.25428719999945,439.97198729999945,None,439.2709691,439.9552156999998,440.4726988000002,None,left,1,0.32526190000044153,440.4726988000002,None,None,439.2709691,440.45594789999996,0.5115556000000652,0.5947675999996136,1.7132010999994236,1.7965045000000828,,,,,,syed_1,001,2020_Feb_07_1524,posner,3.1.5,59.97282031781605,
0.5,0,0,right,1,4,1,0,1,0,9,5,77,3,,,,,,,,,440.8240152999997,441.3238292999995,442.0414283,None,441.3406352000002,442.02488989999983,442.54210839999996,None,right,1,0.2957693999996991,442.54210839999996,None,None,441.3406352000002,442.52549699999963,0.5114334999998391,0.5947924000001876,1.713087600000108,1.796342800000275,,,,,,syed_1,001,2020_Feb_07_1524,posner,3.1.5,59.97282031781605,
-0.5,0,1,left,1,3,1,0,1,0,9,6,78,1,,,,,,,,,442.86027769999964,443.3599556999998,444.07751929999995,None,443.37670419999995,444.06091769999966,444.5782147,None,left,1,0.4196984000000157,444.5782147,None,None,443.37670419999995,444.56182009999975,0.5111747000000832,0.5946699999994962,1.7130071999999927,1.7962595999997575,,,,,,syed_1,001,2020_Feb_07_1524,posner,3.1.5,59.97282031781605,
-0.5,0,1,left,1,3,1,0,1,0,9,7,79,0,,,,,,,,,445.0297579999997,445.52938840000024,446.2472889999999,None,445.5463049,446.23048800000015,446.74774759999946,None,left,1,0.3861887000002753,446.74774759999946,None,None,445.5463049,446.73122950000015,0.5114414999998189,0.5949240999998437,1.7132593000005727,1.796626400000605,,,,,,syed_1,001,2020_Feb_07_1524,posner,3.1.5,59.97282031781605,
0.5,180,1,right,2,4,1,0,1,0,10,0,80,7,,,,,,,,,447.1657435999996,447.66576780000014,448.38348679999945,None,447.6825435999999,448.3671125999999,448.8842378999998,None,right,1,0.30575129999942874,448.8842378999998,None,None,447.6825435999999,448.8677084000001,0.5115633999994316,0.5950020999998742,1.7134870999998384,1.7967822999999044,,,,,,syed_1,001,2020_Feb_07_1524,posner,3.1.5,59.97282031781605,
-0.5,0,1,left,1,3,1,0,1,0,10,1,81,0,,,,,,,,,449.2181826999995,449.7186018000002,450.43626029999996,None,449.73543209999934,450.4195644000001,450.9370713999997,None,left,1,0.3569390000002386,450.9370713999997,None,None,449.73543209999934,450.9201793000002,0.5119742999995651,0.5954031999999643,1.7135370999994848,1.7970657999994728,,,,,,syed_1,001,2020_Feb_07_1524,posner,3.1.5,59.97282031781605,
-0.5,0,1,left,1,3,1,0,1,0,10,2,82,1,,,,,,,,,451.32123950000005,451.82151220000014,452.5391407999996,None,451.8381750999997,452.5226212999996,453.03987379999944,None,left,1,0.3180434999994759,453.03987379999944,None,None,451.8381750999997,453.02328249999937,0.5121434999991834,0.5958295999998882,1.713890499999252,1.7972867999997106,,,,,,syed_1,001,2020_Feb_07_1524,posner,3.1.5,59.97282031781605,
-0.5,0,1,left,1,3,1,0,1,0,10,3,83,2,,,,,,,,,453.3744870999999,453.8745067,454.5919396999998,None,453.89122169999973,454.57556899999963,455.0927800999998,None,left,1,0.42502839999997377,455.0927800999998,None,None,453.89122169999973,455.07603949999975,0.511907500000234,0.5950379000005341,1.713428600000043,1.7968065000004572,,,,,,syed_1,001,2020_Feb_07_1524,posner,3.1.5,59.97282031781605,
0.5,0,0,right,1,4,1,0,1,0,10,4,84,3,,,,,,,,,455.5445558000001,456.0441369,456.76166999999987,None,456.06073639999977,456.74499789999936,457.2623999999996,None,right,1,0.3194943999997122,457.2623999999996,None,None,456.06073639999977,457.2456591,0.5116480999995474,0.5949006000000736,1.7131528999998409,1.7968387999999322,,,,,,syed_1,001,2020_Feb_07_1524,posner,3.1.5,59.97282031781605,
-0.5,180,0,left,2,3,1,0,1,0,10,5,85,4,,,,,,,,,457.6129738999998,458.1135813000001,458.83124169999974,None,458.13016210000023,458.8145121999996,459.3319512999997,None,left,1,0.29782929999964836,459.3319512999997,None,None,458.13016210000023,459.31521599999996,0.5121300999999221,0.5954342000004544,1.7137536999998702,1.797025400000166,,,,,,syed_1,001,2020_Feb_07_1524,posner,3.1.5,59.97282031781605,
0.5,180,1,right,2,4,1,0,1,0,10,6,86,5,,,,,,,,,459.6491593999999,460.1495810999995,460.8674661999994,None,460.1663233999998,460.8508436000002,461.3682920000001,None,right,1,0.29359459999977844,461.3682920000001,None,None,460.1663233999998,461.3514460999995,0.5116692999999941,0.5952666999992289,1.7135111999996298,1.796912799999518,,,,,,syed_1,001,2020_Feb_07_1524,posner,3.1.5,59.97282031781605,
0.5,180,1,right,2,4,1,0,1,0,10,7,87,6,,,,,,,,,461.68612309999935,462.18582869999955,462.9035213999996,None,462.2025321000001,462.88669260000006,463.4040688999994,None,right,1,0.32166589999997086,463.4040688999994,None,None,462.2025321000001,463.3872916,0.5116691000002902,0.5950362000003224,1.7131171999999424,1.7968277999998463,,,,,,syed_1,001,2020_Feb_07_1524,posner,3.1.5,59.97282031781605,
,,,,,,1,0,1,0,,,,,,,,,,,,,,,,,,,,,,,,,,,,,,,,,463.75483299999996,None,1.5899999198154546e-05,0.9956013999999413,,syed_1,001,2020_Feb_07_1524,posner,3.1.5,59.97282031781605,
0.5,180,1,right,2,4,2,0,2,0,0,0,0,5,2.1299999389157165e-05,0.09757850000005419,524.7718629999999,None,1.4199999895936344e-05,0.09773539999969216,526.8750394999997,None,527.1383550999999,527.6425045999995,528.3602337000002,None,527.6591926000001,528.3435556999993,528.8609313999996,None,right,1,0.34465420000015,528.8609313999996,None,right,527.6591926000001,528.8441671,0.5139083000003666,0.5973147000004246,1.7155597999999372,1.7989803000000393,,,,,0.5383356000002095,syed_1,001,2020_Feb_07_1524,posner,3.1.5,59.97282031781605,
-0.5,0,1,left,1,3,2,0,2,0,0,1,1,2,,,,,,,,,529.2293306000001,529.7286096999997,530.4465146000002,None,529.7455866999999,530.4297183999997,530.9469733999995,None,left,1,0.2985951999999088,530.9469733999995,None,None,529.7455866999999,530.9306161999993,0.5105365999997957,0.5940141000000949,1.7125234999994063,1.795794499999829,,,,,,syed_1,001,2020_Feb_07_1524,posner,3.1.5,59.97282031781605,
-0.5,180,0,left,2,3,2,0,2,0,0,2,2,4,,,,,,,,,531.2649401999997,531.7637528999994,532.4824973999994,None,531.7807152999994,532.465854,532.9832331999996,None,left,1,0.3103817999999592,532.9832331999996,None,None,531.7807152999994,532.9663529,0.510547900000347,0.594590500000777,1.7131349999999657,1.7968472000002293,,,,,,syed_1,001,2020_Feb_07_1524,posner,3.1.5,59.97282031781605,
0.5,180,1,right,2,4,2,0,2,0,0,3,3,7,,,,,,,,,533.3173701999995,533.8176235999999,534.5353384,None,533.8343875999999,534.5184736000001,535.0360080999999,None,right,1,0.2975877999997465,535.0360080999999,None,None,533.8343875999999,535.0193766000002,0.5120252000006076,0.5955795999998372,1.7137594000005265,1.7971524000004138,,,,,,syed_1,001,2020_Feb_07_1524,posner,3.1.5,59.97282031781605,
0.5,0,0,right,1,4,2,0,2,0,0,4,4,3,,,,,,,,,535.3542376999994,535.8538713999997,536.5715079000001,None,535.8707488,536.5549056999998,537.0721667999996,None,right,1,0.2934770000001663,537.0721667999996,None,None,535.8707488,537.0555132999998,0.5115298000000621,0.5947731999995085,1.7131564000001163,1.7964287999993758,,,,,,syed_1,001,2020_Feb_07_1524,posner,3.1.5,59.97282031781605,
-0.5,0,1,left,1,3,2,0,2,0,0,5,5,1,,,,,,,,,537.3901955000001,537.8901845,538.6074690999994,None,537.9065687000002,538.5908494999994,539.1081138999998,None,left,1,0.31334610000067187,539.1081138999998,None,None,537.9065687000002,539.0917658999997,0.5119953000003079,0.5951697000000422,1.7135613000000376,1.7968956000004255,,,,,,syed_1,001,2020_Feb_07_1524,posner,3.1.5,59.97282031781605,
0.5,180,1,right,2,4,2,0,2,0,0,6,6,6,,,,,,,,,539.4422986999998,539.9427509999996,540.6606253999998,None,539.9593822999996,540.6438005,541.1610368000001,None,right,1,0.268419900000481,541.1610368000001,None,None,539.9593822999996,541.1445085999994,0.5123050000001967,0.5957289999996647,1.7140410000001793,1.797418999999536,,,,,,syed_1,001,2020_Feb_07_1524,posner,3.1.5,59.97282031781605,
-0.5,0,1,left,1,3,2,0,2,0,0,7,7,0,,,,,,,,,541.4458647000001,541.9456844999995,542.6633041999994,None,541.9622718999999,542.6465054999999,543.1638778999995,None,left,1,0.289793699999791,543.1638778999995,None,None,541.9622718999999,543.1469910999995,0.5118060999993759,0.5951039000001401,1.7130975999998554,1.7968322999995507,,,,,,syed_1,001,2020_Feb_07_1524,posner,3.1.5,59.97282031781605,
0.5,0,0,right,1,4,2,0,2,0,1,0,8,3,,,,,,,,,543.4819546999997,543.9817150999997,544.6991997999994,None,543.9982977,544.6826837999997,545.1999916999994,None,right,1,0.2774190999998609,545.1999916999994,None,None,543.9982977,545.1832592999999,0.5114856000000145,0.5950490999994145,1.713016499999867,1.796625099999801,,,,,,syed_1,001,2020_Feb_07_1524,posner,3.1.5,59.97282031781605,
-0.5,0,1,left,1,3,2,0,2,0,1,1,9,1,,,,,,,,,545.5015119,546.0010768000002,546.7187328999998,None,546.0177106000001,546.7020670000002,547.2195057999998,None,left,1,0.2903552999996464,547.2195057999998,None,None,546.0177106000001,547.2027626999998,0.5113926999993055,0.5948677999995198,1.713053299999956,1.7964926999993622,,,,,,syed_1,001,2020_Feb_07_1524,posner,3.1.5,59.97282031781605,
-0.5,180,0,left,2,3,2,0,2,0,1,2,10,4,,,,,,,,,547.537182,548.0372281999998,548.7549308999996,None,548.0539456999995,548.7381581999998,549.2555791999994,None,left,1,0.3740092999996705,549.2555791999994,None,None,548.0539456999995,549.2387800999995,0.5115224999999555,0.5951428999997006,1.7130588999998508,1.7966590999994878,,,,,,syed_1,001,2020_Feb_07_1524,posner,3.1.5,59.97282031781605,
-0.5,0,1,left,1,3,2,0,2,0,1,3,11,2,,,,,,,,,549.6568692999999,550.1568041999999,550.8746604999997,None,550.1734557,550.8576312999994,551.3752920999996,None,left,1,0.30221070000061445,551.3752920999996,None,None,550.1734557,551.3584376999997,0.511633900000561,0.5952256999999008,1.7132538000005297,1.7967595999998593,,,,,,syed_1,001,2020_Feb_07_1524,posner,3.1.5,59.97282031781605,
-0.5,0,1,left,1,3,2,0,2,0,1,4,12,0,,,,,,,,,551.6931671000002,552.1928266999994,552.9105881999994,None,552.2094877,552.8940889999994,553.4113566999995,None,left,1,0.29025890000048093,553.4113566999995,None,None,552.2094877,553.3947827000002,0.511355900000126,0.5950103999994099,1.713292100000217,1.7965198000001692,,,,,,syed_1,001,2020_Feb_07_1524,posner,3.1.5,59.97282031781605,
0.5,180,1,right,2,4,2,0,2,0,1,5,13,5,,,,,,,,,553.7293969000002,554.2290594999995,554.9466221000002,None,554.2456662999994,554.9299859000002,555.4473830999996,None,right,1,0.30207770000015444,555.4473830999996,None,None,554.2456662999994,555.4308178000001,0.5116158000000723,0.5951629999999568,1.7133703999998033,1.7966808000001038,,,,,,syed_1,001,2020_Feb_07_1524,posner,3.1.5,59.97282031781605,
0.5,180,1,right,2,4,2,0,2,0,1,6,14,7,,,,,,,,,555.7652063999994,556.2653333999997,556.9830064999996,None,556.2819519999994,556.9661968999999,557.4836459999997,None,right,1,0.3139836000000287,557.4836459999997,None,None,556.2819519999994,557.4666400999995,0.5118402999996761,0.5949977999998737,1.7131311000002825,1.7969279999997525,,,,,,syed_1,001,2020_Feb_07_1524,posner,3.1.5,59.97282031781605,
0.5,180,1,right,2,4,2,0,2,0,1,7,15,6,,,,,,,,,557.8185014999999,558.3180173000001,559.0357647999999,None,558.3349127000001,559.0190022999996,559.5363577999997,None,right,1,0.30115460000070016,559.5363577999997,None,None,558.3349127000001,559.5199084999995,0.5113592999996399,0.5948750999996264,1.7132321999997657,1.7965001000002303,,,,,,syed_1,001,2020_Feb_07_1524,posner,3.1.5,59.97282031781605,
-0.5,0,1,left,1,3,2,0,2,0,2,0,16,0,,,,,,,,,559.8545918999998,560.3542344999996,561.0718710000001,None,560.3709269999999,561.0552855999995,561.5726305999997,None,left,1,0.2889324999996461,561.5726305999997,None,None,560.3709269999999,561.5558627999999,0.5115480000004027,0.5949423000001843,1.713166700000329,1.796512800000528,,,,,,syed_1,001,2020_Feb_07_1524,posner,3.1.5,59.97282031781605,
0.5,180,1,right,2,4,2,0,2,0,2,1,17,6,,,,,,,,,561.8903808999994,562.3903439999995,563.1078618000001,None,562.4070661999995,563.0913224999995,563.6085413000001,None,right,1,0.24495019999994838,563.6085413000001,None,None,562.4070661999995,563.5919607999995,0.5116982000008647,0.5951927000005526,1.7132931000005556,1.7968124000008174,,,,,,syed_1,001,2020_Feb_07_1524,posner,3.1.5,59.97282031781605,
0.5,180,1,right,2,4,2,0,2,0,2,2,18,5,,,,,,,,,563.8767828,564.3764016999994,565.0940752999995,None,564.3930535,565.0773462999996,565.5948590999997,None,right,1,0.24254870000004303,565.5948590999997,None,None,564.3930535,565.5780309000002,0.5113442000001669,0.5949110000001383,1.7129629999999452,1.796422899999925,,,,,,syed_1,001,2020_Feb_07_1524,posner,3.1.5,59.97282031781605,
-0.5,0,1,left,1,3,2,0,2,0,2,3,19,1,,,,,,,,,565.8635187,566.3625723999994,567.0800632999999,None,566.3791669000002,567.0635490999994,567.580782,None,left,1,0.3125761999999668,567.580782,None,None,566.3791669000002,567.5640623999998,0.51090590000058,0.5941861000001154,1.712379399999918,1.7956816000005347,,,,,,syed_1,001,2020_Feb_07_1524,posner,3.1.5,59.97282031781605,
0.5,0,0,right,1,4,2,0,2,0,2,4,20,3,,,,,,,,,567.9156581999996,568.4153377000002,569.1328421999997,None,568.4319218,569.1161394999999,569.6336215000001,None,right,1,0.2757201999993413,569.6336215000001,None,None,568.4319218,569.6167012999995,0.5115638999996008,0.5949307999999291,1.7129152999996222,1.7967601999998806,,,,,,syed_1,001,2020_Feb_07_1524,posner,3.1.5,59.97282031781605,
-0.5,0,1,left,1,3,2,0,2,0,2,5,21,2,,,,,,,,,569.9349003999996,570.4347014999994,571.1523864999999,None,570.4514051999995,571.1357091999998,571.6530054999994,None,left,1,0.32045060000018566,571.6530054999994,None,None,570.4514051999995,571.6362480999996,0.5115624000000025,0.5949773000002097,1.713087799999812,1.7967281000001094,,,,,,syed_1,001,2020_Feb_07_1524,posner,3.1.5,59.97282031781605,
0.5,180,1,right,2,4,2,0,2,0,2,6,22,7,,,,,,,,,572.0044526000001,572.5043389000002,573.2219235000002,None,572.5208667999996,573.2051718000002,573.7226468999997,None,right,1,0.3307425000002695,573.7226468999997,None,None,572.5208667999996,573.705946,0.5117810000001555,0.5949986999994508,1.7133728999997402,1.796702099999493,,,,,,syed_1,001,2020_Feb_07_1524,posner,3.1.5,59.97282031781605,
-0.5,180,0,left,2,3,2,0,2,0,2,7,23,4,,,,,,,,,574.0739742999995,574.5738407999997,575.2914578,None,574.5905290999999,575.2747948999995,575.7921863000001,None,left,1,0.34120359999997163,575.7921863000001,None,None,574.5905290999999,575.7753917,0.5116874000004827,0.5949920000002749,1.7132270000001881,1.796592700000474,,,,,,syed_1,001,2020_Feb_07_1524,posner,3.1.5,59.97282031781605,
0.5,180,1,right,2,4,2,0,2,0,3,0,24,6,,,,,,,,,576.1598693999995,576.6599457000002,577.3776068999996,None,576.6765644999996,577.3609201999998,577.8782018000002,None,right,1,0.27919160000055854,577.8782018000002,None,None,576.6765644999996,577.8615033999995,0.5121032999995805,0.595376700000088,1.7133955999997852,1.7970105999993393,,,,,,syed_1,001,2020_Feb_07_1524,posner,3.1.5,59.97282031781605,
-0.5,0,1,left,1,3,2,0,2,0,3,1,25,2,,,,,,,,,578.1800026000001,578.6794794999996,579.3969384000002,None,578.6959754,579.3804786000001,579.8974747000002,None,left,1,0.3479058000002624,579.8974747000002,None,None,578.6959754,579.8810185000002,0.5117277999997896,0.5947986999999557,1.7129996999992727,1.7965815999996266,,,,,,syed_1,001,2020_Feb_07_1524,posner,3.1.5,59.97282031781605,
0.5,0,0,right,1,4,2,0,2,0,3,2,26,3,,,,,,,,,580.2657915999998,580.7656171999997,581.4832385999998,None,580.7823050999996,581.4663718000002,581.9840280999997,None,right,1,0.3653663000004599,581.9840280999997,None,None,580.7823050999996,581.9670933999996,0.5115708999992421,0.5947878999995737,1.713034599999446,1.7966523999994024,,,,,,syed_1,001,2020_Feb_07_1524,posner,3.1.5,59.97282031781605,
0.5,180,1,right,2,4,2,0,2,0,3,3,27,7,,,,,,,,,582.3689333000002,582.8688280999995,583.5861212999998,None,582.8851509999995,583.5693240999999,584.0867148999996,None,right,1,0.3668254000003799,584.0867148999996,None,None,582.8851509999995,584.0700049999996,0.5118963999993866,0.5949964000001273,1.7130585999993855,1.7966574000001856,,,,,,syed_1,001,2020_Feb_07_1524,posner,3.1.5,59.97282031781605,
-0.5,0,1,left,1,3,2,0,2,0,3,4,28,1,,,,,,,,,584.4719811999994,584.9715408000002,585.6888896999999,None,584.9879414999996,585.6723051999998,586.1901945999998,586.6736798000002,left,1,0.5112123000008069,586.1901945999998,None,None,584.9879414999996,586.1730077000002,0.5114564000004975,0.5948257999998532,1.7129064999999173,1.7963912000004711,,,,,,syed_1,001,2020_Feb_07_1524,posner,3.1.5,59.97282031781605,
-0.5,180,0,left,2,3,2,0,2,0,3,5,29,4,,,,,,,,,586.7249640999999,587.2245756000002,587.9420646999997,None,587.2412453999996,587.9255262999995,588.4427692999998,None,left,1,0.314597199999298,588.4427692999998,None,None,587.2412453999996,588.4262054999999,0.511577600000237,0.5947471999998015,1.7131829999998445,1.7965120999997453,,,,,,syed_1,001,2020_Feb_07_1524,posner,3.1.5,59.97282031781605,
-0.5,0,1,left,1,3,2,0,2,0,3,6,30,0,,,,,,,,,588.7777626999996,589.2772086999994,589.9949129999995,None,589.2942102999996,589.9789235999997,590.4960039999996,None,left,1,0.24531200000001263,590.4960039999996,None,None,589.2942102999996,590.4789222999998,0.5114273999997749,0.5950309999998353,1.7131270999998378,1.7966670999994676,,,,,,syed_1,001,2020_Feb_07_1524,posner,3.1.5,59.97282031781605,
0.5,180,1,right,2,4,2,0,2,0,3,7,31,5,,,,,,,,,590.7638147999996,591.2634987000001,591.9809654000001,None,591.2802781,591.9645274999993,592.4815510999997,None,right,1,0.2917558999997709,592.4815510999997,None,None,591.2802781,592.4650838999996,0.5114531000008355,0.594713700000284,1.7130211000003328,1.796328700000231,,,,,,syed_1,001,2020_Feb_07_1524,posner,3.1.5,59.97282031781605,
-0.5,0,1,left,1,3,2,0,2,0,4,0,32,0,,,,,,,,,592.7995617999995,593.2993834999997,594.0169533999997,None,593.3161989,594.0004666999994,594.5177605999997,None,left,1,0.2875644000005195,594.5177605999997,None,None,593.3161989,594.5012854999995,0.5116013000006205,0.5950814000007085,1.7134808000000703,1.7967762000007497,,,,,,syed_1,001,2020_Feb_07_1524,posner,3.1.5,59.97282031781605,
-0.5,0,1,left,1,3,2,0,2,0,4,1,33,1,,,,,,,,,594.8355897000001,595.3356370000001,596.0534126000002,None,595.3521756,596.0364831999996,596.5540899999996,None,left,1,0.3154675000005227,596.5540899999996,None,None,595.3521756,596.5370457999998,0.5114392000004955,0.5948191999996197,1.7128352999998242,1.7965696000001117,,,,,,syed_1,001,2020_Feb_07_1524,posner,3.1.5,59.97282031781605,
-0.5,0,1,left,1,3,2,0,2,0,4,2,34,2,,,,,,,,,596.8888618000001,597.3883707999994,598.1061043999998,None,597.4052744,598.0893350999995,598.6067111000002,None,left,1,0.28658959999938816,598.6067111000002,None,None,597.4052744,598.5902004,0.5114300999994157,0.5951057000002038,1.7132379999993645,1.7965668999995614,,,,,,syed_1,001,2020_Feb_07_1524,posner,3.1.5,59.97282031781605,
-0.5,180,0,left,2,3,2,0,2,0,4,3,35,4,,,,,,,,,598.9244972999995,599.4248320999995,600.1421921000001,None,599.4412897000002,600.1257078999997,600.6429440000002,None,left,1,0.36225930000000517,600.6429440000002,None,None,599.4412897000002,600.6263233999998,0.5119688000004317,0.5950624000006428,1.7134412000004886,1.7967328000004272,,,,,,syed_1,001,2020_Feb_07_1524,posner,3.1.5,59.97282031781605,
0.5,180,1,right,2,4,2,0,2,0,4,4,36,5,,,,,,,,,601.0279403999994,601.5273803999999,602.2450613000001,None,601.5441620000001,602.2284865000001,602.7458503999997,None,right,1,0.34749029999966297,602.7458503999997,None,None,601.5441620000001,602.7291544999998,0.5113637999993443,0.5950062000001708,1.7131193999994139,1.7965671000001748,,,,,,syed_1,001,2020_Feb_07_1524,posner,3.1.5,59.97282031781605,
0.5,0,0,right,1,4,2,0,2,0,4,5,37,3,,,,,,,,,603.1141200000002,603.6139128999994,604.3313284999995,None,603.6304091000002,604.3145967999999,604.8320812000002,None,right,1,0.2932299000003695,604.8320812000002,None,None,603.6304091000002,604.8153272999998,0.5117036999999982,0.5948139999991326,1.7131037999997716,1.796665199999552,,,,,,syed_1,001,2020_Feb_07_1524,posner,3.1.5,59.97282031781605,
0.5,180,1,right,2,4,2,0,2,0,4,6,38,7,,,,,,,,,605.1501896999998,605.6497737999998,606.3677594000001,None,605.6663892999995,606.3506696999993,606.8684549999998,None,right,1,0.2488695000001826,606.8684549999998,None,None,605.6663892999995,606.8514908999996,0.5116892999994889,0.595228600000155,1.713383899999826,1.7968875999995362,,,,,,syed_1,001,2020_Feb_07_1524,posner,3.1.5,59.97282031781605,
0.5,180,1,right,2,4,2,0,2,0,4,7,39,6,,,,,,,,,607.1360788000002,607.6358092999999,608.3534986999994,None,607.6526451,608.3367152000001,608.8543217999995,None,right,1,0.2949318000000858,608.8543217999995,None,None,607.6526451,608.8374345000002,0.5115122999995947,0.5950530999998591,1.713124599999901,1.7968173999997816,,,,,,syed_1,001,2020_Feb_07_1524,posner,3.1.5,59.97282031781605,
0.5,0,0,right,1,4,2,0,2,0,5,0,40,3,,,,,,,,,609.1716166999995,609.6719868,610.389639,None,609.6886248000001,610.3729863999997,610.8904315999998,None,right,1,0.2908242000003156,610.8904315999998,None,None,609.6886248000001,610.8736639999997,0.512217999999848,0.5956585999992967,1.7138773999995465,1.797490399999333,,,,,,syed_1,001,2020_Feb_07_1524,posner,3.1.5,59.97282031781605,
0.5,180,1,right,2,4,2,0,2,0,5,1,41,5,,,,,,,,,611.2084014000002,611.7080517999993,612.4260161000002,None,611.7247895,612.4091259999996,612.9266963,None,right,1,0.29457450000063545,612.9266963,None,None,611.7247895,612.9098145999997,0.511444599999777,0.5949226000002454,1.713190399999803,1.796628299999611,,,,,,syed_1,001,2020_Feb_07_1524,posner,3.1.5,59.97282031781605,
0.5,180,1,right,2,4,2,0,2,0,5,2,42,6,,,,,,,,,613.2443132999997,613.7444291000002,614.4620299999997,None,613.7610673999998,614.4452025,614.9628775000001,None,right,1,0.37036910000006174,614.9628775000001,None,None,613.7610673999998,614.9458907999997,0.5118743000002723,0.5951487000002089,1.7133184000003894,1.796835899999678,,,,,,syed_1,001,2020_Feb_07_1524,posner,3.1.5,59.97282031781605,
-0.5,0,1,left,1,3,2,0,2,0,5,3,43,0,,,,,,,,,615.3640317999998,615.8639439999997,616.5815174999998,None,615.8807701999995,616.5649612999996,617.0822463999993,None,left,1,0.4511504000001878,617.0822463999993,None,None,615.8807701999995,617.0655043999996,0.5115809999997509,0.5946953000002395,1.7130858999998964,1.7964325000002646,,,,,,syed_1,001,2020_Feb_07_1524,posner,3.1.5,59.97282031781605,
-0.5,0,1,left,1,3,2,0,2,0,5,4,44,2,,,,,,,,,617.5503142999996,618.0506223000002,618.7677157999997,None,618.0669510999996,618.7512603999994,619.2685167,None,left,1,0.32068729999991774,619.2685167,None,None,618.0669510999996,619.2517982999998,0.5121987000002264,0.5953883000001952,1.7133613000005425,1.7967458000002807,,,,,,syed_1,001,2020_Feb_07_1524,posner,3.1.5,59.97282031781605,
-0.5,180,0,left,2,3,2,0,2,0,5,5,45,4,,,,,,,,,619.6195932999999,620.1197053999995,620.8372345999996,None,620.1363217999997,620.8207642999996,621.3378781000001,None,left,1,0.3154121999996278,621.3378781000001,None,None,620.1363217999997,621.3215032999997,0.511699800000315,0.5951617999999144,1.713474799999858,1.7968365000006088,,,,,,syed_1,001,2020_Feb_07_1524,posner,3.1.5,59.97282031781605,
0.5,180,1,right,2,4,2,0,2,0,5,6,46,7,,,,,,,,,621.6730462999994,622.1725606999998,622.8903611999995,None,622.1892424999996,622.8735545999998,623.3910187000001,None,right,1,0.366234600000098,623.3910187000001,None,None,622.1892424999996,623.3744972999993,0.5114382000001569,0.5948575000002165,1.7133521000005203,1.7963380000001052,,,,,,syed_1,001,2020_Feb_07_1524,posner,3.1.5,59.97282031781605,
-0.5,0,1,left,1,3,2,0,2,0,5,7,47,1,,,,,,,,,623.7754568,624.2754931,624.9931662999998,None,624.2921916999994,624.9763087000001,625.4937920000002,None,left,1,0.383520899999894,625.4937920000002,None,None,624.2921916999994,625.4769259999994,0.5117629000005763,0.5951365000000806,1.7131732000007105,1.7969156000008297,,,,,,syed_1,001,2020_Feb_07_1524,posner,3.1.5,59.97282031781605,
-0.5,180,0,left,2,3,2,0,2,0,6,0,48,4,,,,,,,,,625.8954832,626.3950344999994,627.1128561999994,None,626.4118079,627.0959756000002,627.6133990999997,None,left,1,0.3997988000000987,627.6133990999997,None,None,626.4118079,627.5967241999997,0.5114315000000715,0.5951727000001483,1.7131016000003,1.7965727999999217,,,,,,syed_1,001,2020_Feb_07_1524,posner,3.1.5,59.97282031781605,
-0.5,0,1,left,1,3,2,0,2,0,6,1,49,2,,,,,,,,,628.0318788999994,628.5313799999994,629.2488592,None,628.5478641999998,629.2322581999997,629.7496632000002,None,left,1,0.3674527000002854,629.7496632000002,None,None,628.5478641999998,629.7328419999994,0.5113414999996166,0.5947521999996752,1.7127921000001152,1.7962799999995696,,,,,,syed_1,001,2020_Feb_07_1524,posner,3.1.5,59.97282031781605,
0.5,180,1,right,2,4,2,0,2,0,6,2,50,6,,,,,,,,,630.1342672000001,630.6342135999994,631.3519410999997,None,630.6509398999997,631.3351349999994,631.8525566999997,None,right,1,0.2966577999995934,631.8525566999997,None,None,630.6509398999997,631.8358275999999,0.5118150000007518,0.5951502000007167,1.713408100000379,1.7967869000003702,,,,,,syed_1,001,2020_Feb_07_1524,posner,3.1.5,59.97282031781605,
0.5,0,0,right,1,4,2,0,2,0,6,3,51,3,,,,,,,,,632.1708841,632.6702906999999,633.3877616,None,632.6869238999998,633.3712525999999,633.8885372999994,None,right,1,0.3487274000008256,633.8885372999994,None,None,632.6869238999998,633.8719676999999,0.5116423999998005,0.5949962000004234,1.7130870000000868,1.7965881000000081,,,,,,syed_1,001,2020_Feb_07_1524,posner,3.1.5,59.97282031781605,
-0.5,0,1,left,1,3,2,0,2,0,6,4,52,0,,,,,,,,,634.2568286999995,634.7563922999998,635.4743533999999,None,634.7731770999999,635.4574146999994,635.9749315999998,None,left,1,0.33443329999954585,635.9749315999998,None,None,634.7731770999999,635.9580163999999,0.5116154000006645,0.5953284000006533,1.7132222000000183,1.7967932000001383,,,,,,syed_1,001,2020_Feb_07_1524,posner,3.1.5,59.97282031781605,
0.5,180,1,right,2,4,2,0,2,0,6,5,53,5,,,,,,,,,636.3261039999998,636.8262677000002,637.5436521000001,None,636.8425637999999,637.5271123000002,638.0444736999998,None,right,1,0.3046827999996822,638.0444736999998,None,None,636.8425637999999,638.0277756999994,0.5120377000002918,0.5953490000001693,1.713531200000034,1.7969410000005155,,,,,,syed_1,001,2020_Feb_07_1524,posner,3.1.5,59.97282031781605,
-0.5,0,1,left,1,3,2,0,2,0,6,6,54,1,,,,,,,,,638.3789787999995,638.8789117999995,639.5965807000002,None,638.8956970999998,639.5797753999996,640.0971130999997,640.5812765999999,left,1,0.47601399999985006,640.0971130999997,None,None,638.8956970999998,640.0806406000002,0.5117227000000639,0.5950462999999218,1.7134050999993633,1.796843799999806,,,,,,syed_1,001,2020_Feb_07_1524,posner,3.1.5,59.97282031781605,
0.5,180,1,right,2,4,2,0,2,0,6,7,55,7,,,,,,,,,640.5989794999996,641.098489,641.8163305999997,None,641.1153661999997,641.7995605999995,642.3168539999997,None,right,1,0.3362790999999561,642.3168539999997,None,None,641.1153661999997,642.3003682999997,0.5114609999991444,0.5949070999995456,1.713312899999437,1.7966278999992937,,,,,,syed_1,001,2020_Feb_07_1524,posner,3.1.5,59.97282031781605,
-0.5,0,1,left,1,3,2,0,2,0,7,0,56,1,,,,,,,,,642.684937,643.1848143999996,643.9025148999999,None,643.2014940999998,643.8857303999994,644.4031163,None,left,1,0.338002299999971,644.4031163,None,None,643.2014940999998,644.3863111999999,0.511711699999978,0.5950301000002582,1.7131835000000137,1.797147799999948,,,,,,syed_1,001,2020_Feb_07_1524,posner,3.1.5,59.97282031781605,
0.5,180,1,right,2,4,2,0,2,0,7,1,57,7,,,,,,,,,644.7721658,645.2709661999997,645.9885865999995,None,645.2876233999996,645.9719623000001,646.4892480999997,None,right,1,0.27592749999985244,646.4892480999997,None,None,645.2876233999996,646.4726322999995,0.5108460000001287,0.5944133000002694,1.7124893999998676,1.7958979000004547,,,,,,syed_1,001,2020_Feb_07_1524,posner,3.1.5,59.97282031781605,
-0.5,0,1,left,1,3,2,0,2,0,7,2,58,0,,,,,,,,,646.7900922999997,647.2903292999999,648.0081608,None,647.3070062999996,647.9914491999998,648.5086509000002,None,right,0,0.38438419999965845,648.5086509000002,None,None,647.3070062999996,648.4920961999997,0.5117177000001902,0.5954172000001563,1.7134611000001314,1.796903100000236,,,,,,syed_1,001,2020_Feb_07_1524,posner,3.1.5,59.97282031781605,
0.5,0,0,right,1,4,2,0,2,0,7,3,59,3,,,,,,,,,648.9103884999995,649.4102388000001,650.1275261999999,None,649.4266318,650.1110890999998,650.6284067999995,None,right,1,0.3207347000006848,650.6284067999995,None,None,649.4266318,650.6116568999996,0.5118468000000576,0.5952117999995608,1.71324469999945,1.7967359999993278,,,,,,syed_1,001,2020_Feb_07_1524,posner,3.1.5,59.97282031781605,
0.5,180,1,right,2,4,2,0,2,0,7,4,60,5,,,,,,,,,650.9795033999999,651.4796845000001,652.1970350000001,None,651.4962865999996,652.1805319999994,652.6975501999996,None,right,1,0.31548360000033426,652.6975501999996,None,None,651.4962865999996,652.6809907999996,0.5118274999995265,0.5951998999998978,1.7130907000000661,1.7966208999996525,,,,,,syed_1,001,2020_Feb_07_1524,posner,3.1.5,59.97282031781605,
-0.5,0,1,left,1,3,2,0,2,0,7,5,61,2,,,,,,,,,653.0325076999998,653.5323081999995,654.2501449000001,None,653.5488881000001,654.2333764999994,654.7507398999996,None,left,1,0.3424826000000394,654.7507398999996,None,None,653.5488881000001,654.7342269999999,0.5114610999999059,0.5950406000001749,1.7133598000000347,1.7963919000003443,,,,,,syed_1,001,2020_Feb_07_1524,posner,3.1.5,59.97282031781605,
-0.5,180,0,left,2,3,2,0,2,0,7,6,62,4,,,,,,,,,655.1187260999995,655.6184542000001,656.3362528999996,None,655.6352976999997,656.3194318999995,656.8367743999997,657.3211555999997,left,1,0.48046119999980874,656.8367743999997,None,None,655.6352976999997,656.8204030999996,0.5115250999997443,0.5950916000001598,1.713455499999327,1.796719199999643,,,,,,syed_1,001,2020_Feb_07_1524,posner,3.1.5,59.97282031781605,
0.5,180,1,right,2,4,2,0,2,0,7,7,63,6,,,,,,,,,657.3385935999995,657.8381829999998,658.5558813999996,None,657.8549660999997,658.5391236999994,659.0564413000002,None,right,1,0.3087212999998883,659.0564413000002,None,None,657.8549660999997,659.0399398999998,0.5112815000002229,0.5948749999997744,1.7130137000003742,1.7966280000000552,,,,,,syed_1,001,2020_Feb_07_1524,posner,3.1.5,59.97282031781605,
-0.5,0,1,left,1,3,2,0,2,0,8,0,64,0,,,,,,,,,659.3913656999994,659.8912254999996,660.6086822999996,None,659.9076653000002,660.5921644999999,661.109391,None,left,1,0.28766949999953795,661.109391,None,None,659.9076653000002,661.0927320999999,0.5115421000000424,0.5950776999998197,1.7130407999993622,1.7965722999997524,,,,,,syed_1,001,2020_Feb_07_1524,posner,3.1.5,59.97282031781605,
-0.5,0,1,left,1,3,2,0,2,0,8,1,65,1,,,,,,,,,661.4275240999996,661.9271637000002,662.6450095,None,661.9440622000002,662.6281724,663.1455260000002,None,left,1,0.3957417000001442,663.1455260000002,None,None,661.9440622000002,663.1291366999994,0.5113929999997708,0.59498960000019,1.7133513999997376,1.7965380000005098,,,,,,syed_1,001,2020_Feb_07_1524,posner,3.1.5,59.97282031781605,
-0.5,0,1,left,1,3,2,0,2,0,8,2,66,2,,,,,,,,,663.5639741999994,664.0636574999999,664.7812399999993,None,664.0802210000002,664.7645554000001,665.2818040000002,None,left,1,0.3873696000000564,665.2818040000002,None,None,664.0802210000002,665.2651398999997,0.5115023000007568,0.5948021000003791,1.7129690000001574,1.7963228000007803,,,,,,syed_1,001,2020_Feb_07_1524,posner,3.1.5,59.97282031781605,
0.5,180,1,right,2,4,2,0,2,0,8,3,67,5,,,,,,,,,665.6997432999997,666.1997808999995,666.9174539999995,None,666.2163228,666.9008996000002,667.4180286000001,None,right,1,0.28302239999993617,667.4180286000001,None,None,666.2163228,667.4014711999998,0.5116464999991877,0.5951743999994505,1.7133129999992889,1.7968535999998494,,,,,,syed_1,001,2020_Feb_07_1524,posner,3.1.5,59.97282031781605,
-0.5,180,0,left,2,3,2,0,2,0,8,4,68,4,,,,,,,,,667.7199063999997,668.2192241000002,668.9366847000001,None,668.2358149000002,668.9202933999995,669.4374708999994,None,left,1,0.36769159999948897,669.4374708999994,None,None,668.2358149000002,669.4208504999997,0.5114743999993152,0.5949910999997883,1.7130339999994249,1.7966200000000754,,,,,,syed_1,001,2020_Feb_07_1524,posner,3.1.5,59.97282031781605,
0.5,0,0,right,1,4,2,0,2,0,8,5,69,3,,,,,,,,,669.8222479999995,670.3220667999994,671.0397224999997,None,670.3387186999998,671.0231475,671.5404425999996,None,right,1,0.3205881000003501,671.5404425999996,None,None,670.3387186999998,671.5238033999995,0.5115739000002577,0.5952161000004708,1.7132881000006819,1.7965516000003845,,,,,,syed_1,001,2020_Feb_07_1524,posner,3.1.5,59.97282031781605,
0.5,180,1,right,2,4,2,0,2,0,8,6,70,7,,,,,,,,,671.8919528999995,672.3916571,673.1092413999995,None,672.4081483,673.0925464000002,673.6101263,None,right,1,0.35481370000070456,673.6101263,None,None,672.4081483,673.5934136999995,0.5112629000004745,0.5950092000002769,1.713002100000267,1.7962413000004744,,,,,,syed_1,001,2020_Feb_07_1524,posner,3.1.5,59.97282031781605,
0.5,180,1,right,2,4,2,0,2,0,8,7,71,6,,,,,,,,,673.9943386999994,674.4946443999997,675.2121814000002,None,674.5112810999999,675.1953949999997,675.7129175,None,right,1,0.31617670000014186,675.7129175,None,None,674.5112810999999,675.6960331,0.5118093999999473,0.5951433000000179,1.713180900000225,1.796701999999641,,,,,,syed_1,001,2020_Feb_07_1524,posner,3.1.5,59.97282031781605,
0.5,180,1,right,2,4,2,0,2,0,9,0,72,7,,,,,,,,,676.0476054999999,676.5472921999999,677.2650752,None,676.5639903000001,677.2482574999995,677.7657983999998,None,right,1,0.3191333000004306,677.7657983999998,None,None,676.5639903000001,677.7488741999996,0.5113150999995923,0.5948957999999038,1.7128775000001042,1.7964161999998396,,,,,,syed_1,001,2020_Feb_07_1524,posner,3.1.5,59.97282031781605,
0.5,0,0,right,1,4,2,0,2,0,9,1,73,3,,,,,,,,,678.1168269,678.6166912999997,679.3344538000001,None,678.6336529999999,679.3177595999996,679.8351972,None,right,1,0.33782330000030925,679.8351972,None,None,678.6336529999999,679.8184678999996,0.5115599000000657,0.5952325999996901,1.7132880999997724,1.7967314999996233,,,,,,syed_1,001,2020_Feb_07_1524,posner,3.1.5,59.97282031781605,
