targetX,cueOri,congr,corrAns,pin_cue,pin_target,block.thisRepN,block.thisTrialN,block.thisN,block.thisIndex,posner_task.thisRepN,posner_task.thisTrialN,posner_task.thisN,posner_task.thisIndex,port_start_block.started,port_start_block.stopped,text_2.started,text_2.stopped,p_port.started,p_port.stopped,text.started,text.stopped,fixation_1.started,fixation_1.stopped,fixation_2.started,fixation_2.stopped,cue.started,cue.stopped,target.started,target.stopped,correct_key_resp.keys,correct_key_resp.corr,correct_key_resp.rt,correct_key_resp.started,correct_key_resp.stopped,early_resp.keys,early_resp.started,early_resp.stopped,trigger_cue.started,trigger_cue.stopped,trigger_target.started,trigger_target.stopped,early_resp.rt,break_text.started,break_text.stopped,end_port.started,end_port.stopped,participant,session,date,expName,psychopyVersion,frameRate,
-0.5,180,0,left,2,3,0,0,0,0,0,0,0,4,1.8900000213761814e-05,0.0928829999993468,90.32285320000028,None,1.359999987471383e-05,0.09974590000001626,92.20846810000057,None,92.54586199999994,93.04318180000064,93.76092060000065,None,93.06012929999997,93.74398700000074,94.26134600000023,None,left,1,0.29562040000018897,94.26134600000023,None,None,93.06012929999997,94.24482790000002,0.506387999999788,0.5895817000000534,1.7080131000002439,1.7915125999998054,,,,,,lucie_3,001,2020_Feb_06_1342,posner,3.1.5,59.99588428221086,
0.5,180,1,right,2,4,0,0,0,0,0,1,1,7,,,,,,,,,94.5803876,95.07932410000012,95.7967363000007,None,95.09575600000062,95.78024550000009,96.29766640000071,None,right,1,0.26715389999935724,96.29766640000071,None,None,95.09575600000062,96.28081310000016,0.5104476999995313,0.5937496999995346,1.7119199999997363,1.7952164999996967,,,,,,lucie_3,001,2020_Feb_06_1342,posner,3.1.5,59.99588428221086,
-0.5,0,1,left,1,3,0,0,0,0,0,2,2,2,,,,,,,,,96.58176450000065,97.08202690000053,97.79983390000052,None,97.09870450000017,97.78307220000079,98.30063650000011,None,left,1,0.2403188999996928,98.30063650000011,None,None,97.09870450000017,98.28353870000046,0.5118357999999716,0.5952062999995178,1.7133346999999048,1.7969038000001092,,,,,,lucie_3,001,2020_Feb_06_1342,posner,3.1.5,59.99588428221086,
0.5,180,1,right,2,4,0,0,0,0,0,3,3,6,,,,,,,,,98.5683080000008,99.06809030000022,99.78565170000002,None,99.0845945000001,99.76908270000058,100.28626990000066,None,right,1,0.28635640000084095,100.28626990000066,None,None,99.0845945000001,100.27018690000023,0.5114647999998851,0.5948366000002352,1.7135327000005418,1.7965844999998808,,,,,,lucie_3,001,2020_Feb_06_1342,posner,3.1.5,59.99588428221086,
0.5,180,1,right,2,4,0,0,0,0,0,4,4,5,,,,,,,,,100.60387010000068,101.1040238000005,101.82181060000039,None,101.1209343999999,101.80515110000033,102.32285040000079,None,right,1,0.2018755000008241,102.32285040000079,None,None,101.1209343999999,102.3057587000003,0.5116141000007701,0.5955209000003379,1.713334500000201,1.7971410000000105,,,,,,lucie_3,001,2020_Feb_06_1342,posner,3.1.5,59.99588428221086,
-0.5,0,1,left,1,3,0,0,0,0,0,5,5,1,,,,,,,,,102.5403296000004,103.0400337000001,103.75804719999996,None,103.05695470000046,103.74127170000065,104.2586953,None,left,1,0.2420486000000892,104.2586953,None,None,103.05695470000046,104.2420931000006,0.5113242000006721,0.5949588000003132,1.7133601000005,1.7964577000002464,,,,,,lucie_3,001,2020_Feb_06_1342,posner,3.1.5,59.99588428221086,
-0.5,0,1,left,1,3,0,0,0,0,0,6,6,0,,,,,,,,,104.52646430000004,105.02613120000024,105.74379430000045,None,105.04300280000007,105.72754830000031,106.24458520000007,None,right,0,0.19227040000077977,106.24458520000007,None,None,105.04300280000007,106.22803320000003,0.511119100000542,0.5950653999998394,1.7129995000004783,1.796331800000189,,,,,,lucie_3,001,2020_Feb_06_1342,posner,3.1.5,59.99588428221086,
0.5,0,0,right,1,4,0,0,0,0,0,7,7,3,,,,,,,,,106.46244410000054,106.96214620000046,107.67999730000065,None,106.9790696,107.66343310000047,108.18074380000053,None,right,1,0.2959899999996196,108.18074380000053,None,None,106.9790696,108.16394160000073,0.5116373999999269,0.5949964000001273,1.7134097000007387,1.7967195999999603,,,,,,lucie_3,001,2020_Feb_06_1342,posner,3.1.5,59.99588428221086,
-0.5,180,0,left,2,3,0,0,0,0,1,0,8,4,,,,,,,,,108.49888499999997,108.99853330000042,109.71591489999992,None,109.01492770000004,109.69923110000036,110.21677390000059,None,left,1,0.27598779999971157,110.21677390000059,None,None,109.01492770000004,110.2002136000001,0.5116687999998248,0.5949462999997195,1.713334300000497,1.7966025000005175,,,,,,lucie_3,001,2020_Feb_06_1342,posner,3.1.5,59.99588428221086,
0.5,180,1,right,2,4,0,0,0,0,1,1,9,6,,,,,,,,,110.5177846000006,111.01805740000054,111.73537230000056,None,111.03452940000079,111.71879790000003,112.23597130000053,None,right,1,0.224814599999263,112.23597130000053,None,None,111.03452940000079,112.21958369999993,0.512050299999828,0.5953435000001264,1.7135608999997203,1.7968147999999928,,,,,,lucie_3,001,2020_Feb_06_1342,posner,3.1.5,59.99588428221086,
-0.5,0,1,left,1,3,0,0,0,0,1,2,10,0,,,,,,,,,112.48762500000066,112.98717519999991,113.70473110000057,None,113.0042841000004,113.68834140000035,114.20549250000022,None,left,1,0.2553878999997323,114.20549250000022,None,None,113.0042841000004,114.18896010000026,0.5115622000002986,0.5950061000003188,1.7132852000004277,1.7968401999996786,,,,,,lucie_3,001,2020_Feb_06_1342,posner,3.1.5,59.99588428221086,
-0.5,0,1,left,1,3,0,0,0,0,1,3,11,2,,,,,,,,,114.49006379999992,114.9900533,115.70763440000064,None,115.0071168000004,115.69111220000013,116.20848860000024,None,right,0,0.21222209999996267,116.20848860000024,None,None,115.0071168000004,116.19158640000023,0.5114647000000332,0.59495379999953,1.71298619999925,1.7964623999996547,,,,,,lucie_3,001,2020_Feb_06_1342,posner,3.1.5,59.99588428221086,
0.5,180,1,right,2,4,0,0,0,0,1,4,12,7,,,,,,,,,116.44288480000068,116.94277980000061,117.66040080000039,None,116.9596347000006,117.64353420000043,118.16118989999995,None,right,1,0.259604799999579,118.16118989999995,None,None,116.9596347000006,118.1443003000004,0.5116341999992073,0.5949630999994042,1.7131400999996913,1.7966322999991462,,,,,,lucie_3,001,2020_Feb_06_1342,posner,3.1.5,59.99588428221086,
0.5,0,0,right,1,4,0,0,0,0,1,5,13,3,,,,,,,,,118.44529710000006,118.94547650000004,119.66316240000015,None,118.96217419999994,119.64625419999993,120.16402710000057,None,left,0,0.1447682000007262,120.16402710000057,None,None,118.96217419999994,120.14705080000022,0.5116650999998456,0.5952138999991803,1.7132297999996808,1.7966899999992165,,,,,,lucie_3,001,2020_Feb_06_1342,posner,3.1.5,59.99588428221086,
0.5,180,1,right,2,4,0,0,0,0,1,6,14,5,,,,,,,,,120.33144930000071,120.83139819999997,121.54915430000074,None,120.8481711000004,121.53241570000046,122.04966150000018,None,right,1,0.243098199999622,122.04966150000018,None,None,120.8481711000004,122.03332360000059,0.511482399999295,0.5949135000000751,1.7133912999997847,1.796485799999573,,,,,,lucie_3,001,2020_Feb_06_1342,posner,3.1.5,59.99588428221086,
-0.5,0,1,left,1,3,0,0,0,0,1,7,15,1,,,,,,,,,122.31748000000061,122.81738840000071,123.53505700000005,None,122.8340302000006,123.51853790000041,124.03570110000055,None,left,1,0.313014899999871,124.03570110000055,None,None,122.8340302000006,124.01921390000007,0.5115684000002148,0.5950396000007458,1.7133695000002263,1.7966960000003382,,,,,,lucie_3,001,2020_Feb_06_1342,posner,3.1.5,59.99588428221086,
0.5,180,1,right,2,4,0,0,0,0,2,0,16,6,,,,,,,,,124.37024160000055,124.87033620000057,125.5880414000003,None,124.88701190000029,125.57141470000079,126.08885040000041,None,right,1,0.24394949999987148,126.08885040000041,None,None,124.88701190000029,126.07192960000066,0.5116723999999522,0.5950935999999274,1.7132527000003392,1.7965533999995387,,,,,,lucie_3,001,2020_Feb_06_1342,posner,3.1.5,59.99588428221086,
-0.5,0,1,left,1,3,0,0,0,0,2,1,17,1,,,,,,,,,126.35577830000057,126.8563408,127.57411480000064,None,126.87307469999996,127.5575458000003,128.07459830000062,None,left,1,0.3221843000001172,128.07459830000062,None,None,126.87307469999996,128.0580700999999,0.5121111999997083,0.5955733999999211,1.7138228999992862,1.7973347999995894,,,,,,lucie_3,001,2020_Feb_06_1342,posner,3.1.5,59.99588428221086,
0.5,0,0,right,1,4,0,0,0,0,2,2,18,3,,,,,,,,,128.42618240000047,128.9260290000002,129.64355930000056,None,128.94282610000027,129.62676140000076,130.14410540000063,None,right,1,0.1728118999999424,130.14410540000063,None,None,128.94282610000027,130.12770080000064,0.5117446000003838,0.5953002000005654,1.713396900000589,1.7967238999999608,,,,,,lucie_3,001,2020_Feb_06_1342,posner,3.1.5,59.99588428221086,
0.5,180,1,right,2,4,0,0,0,0,2,3,19,5,,,,,,,,,130.34454630000073,130.84506890000011,131.56306870000026,None,130.86194400000022,131.54620969999996,132.06366490000073,None,right,1,0.26133870000012394,132.06366490000073,None,None,130.86194400000022,132.04664200000025,0.5120098999996117,0.5956969999997455,1.7135644999998476,1.7972519999993892,,,,,,lucie_3,001,2020_Feb_06_1342,posner,3.1.5,59.99588428221086,
-0.5,0,1,left,1,3,0,0,0,0,2,4,20,2,,,,,,,,,132.3482285,132.8479084999999,133.5655041,None,132.8645232000008,133.5490673000004,134.0663445,None,left,1,0.09053409999978612,134.0663445,None,None,132.8645232000008,134.04979580000054,0.5111942999992607,0.594768799999656,1.7130617999991955,1.796480399999382,,,,,,lucie_3,001,2020_Feb_06_1342,posner,3.1.5,59.99588428221086,
0.5,180,1,right,2,4,0,0,0,0,2,5,21,7,,,,,,,,,134.18394340000032,134.68390030000046,135.40160240000023,None,134.7007334,135.3848951,135.9022569000008,None,right,1,0.2306075000005876,135.9022569000008,None,None,134.7007334,135.88540030000058,0.5117432000006374,0.5951509000005899,1.7132258000001457,1.7967747000002419,,,,,,lucie_3,001,2020_Feb_06_1342,posner,3.1.5,59.99588428221086,
-0.5,0,1,left,1,3,0,0,0,0,2,6,22,0,,,,,,,,,136.15346399999999,136.6530627000002,137.3709587000003,None,136.66993619999994,137.35419140000067,137.87161450000076,None,left,1,0.2690767000003689,137.87161450000076,None,None,136.66993619999994,137.85486889999993,0.5113443000000188,0.5947918000001664,1.7131287000001976,1.7967220000000452,,,,,,lucie_3,001,2020_Feb_06_1342,posner,3.1.5,59.99588428221086,
-0.5,180,0,left,2,3,0,0,0,0,2,7,23,4,,,,,,,,,138.15687120000075,138.65580840000075,139.37371080000048,None,138.67273620000014,139.35708570000043,139.87428890000047,None,right,0,0.12261690000013914,139.87428890000047,None,None,138.67273620000014,139.85757360000025,0.5108436000000438,0.5945247999998173,1.712604100000135,1.7961092999994435,,,,,,lucie_3,001,2020_Feb_06_1342,posner,3.1.5,59.99588428221086,
0.5,180,1,right,2,4,0,0,0,0,3,0,24,5,,,,,,,,,140.02431890000025,140.52506520000043,141.24308160000055,None,140.54199550000067,141.22613640000054,141.74379110000064,None,right,1,0.4129156000008152,141.74379110000064,None,None,140.54199550000067,141.7268899999999,0.5119119999999384,0.5957655000001978,1.7137264000002688,1.7973288000002867,,,,,,lucie_3,001,2020_Feb_06_1342,posner,3.1.5,59.99588428221086,
-0.5,180,0,left,2,3,0,0,0,0,3,1,25,4,,,,,,,,,142.1783886000003,142.67830529999992,143.3957605000005,None,142.69482020000032,143.37907739999991,143.89643650000016,None,left,1,0.2923494999995455,143.89643650000016,None,None,142.69482020000032,143.87981560000026,0.5115322999999989,0.5948307999997269,1.7130289999995512,1.7965944999996282,,,,,,lucie_3,001,2020_Feb_06_1342,posner,3.1.5,59.99588428221086,
0.5,180,1,right,2,4,0,0,0,0,3,2,26,7,,,,,,,,,144.21442530000058,144.71426950000023,145.4321387,None,144.73110930000075,145.41533049999998,145.93271900000036,None,right,1,0.29601300000013,145.93271900000036,None,None,144.73110930000075,145.9160795000007,0.5116493000004994,0.5954765000005864,1.7134435000007215,1.7969231000006403,,,,,,lucie_3,001,2020_Feb_06_1342,posner,3.1.5,59.99588428221086,
-0.5,0,1,left,1,3,0,0,0,0,3,3,27,1,,,,,,,,,146.25096070000018,146.75062870000056,147.46825100000024,None,146.76712170000064,147.45158320000064,147.96876479999992,None,left,1,0.41998319999947853,147.96876479999992,None,None,146.76712170000064,147.95260400000006,0.5115359999999782,0.5947820999999749,1.713492099999712,1.7964062999999442,,,,,,lucie_3,001,2020_Feb_06_1342,posner,3.1.5,59.99588428221086,
0.5,0,0,right,1,4,0,0,0,0,3,4,28,3,,,,,,,,,148.42000420000022,148.92021990000012,149.6378809000007,None,148.9367654000007,149.62110420000045,150.1387093000003,None,right,1,0.27405069999986154,150.1387093000003,None,None,148.9367654000007,150.12193860000025,0.5113596999999572,0.5946284000001469,1.713068099999873,1.7962707000006048,,,,,,lucie_3,001,2020_Feb_06_1342,posner,3.1.5,59.99588428221086,
-0.5,0,1,left,1,3,0,0,0,0,3,5,29,0,,,,,,,,,150.43965200000002,150.93974849999995,151.6575055000003,None,150.9562158000008,151.64062340000055,152.15801250000004,None,left,1,0.1107110000002649,152.15801250000004,None,None,150.9562158000008,152.1415394000005,0.51159589999952,0.5948453000000882,1.713369899999634,1.7964701999999306,,,,,,lucie_3,001,2020_Feb_06_1342,posner,3.1.5,59.99588428221086,
-0.5,0,1,left,1,3,0,0,0,0,3,6,30,2,,,,,,,,,152.2921053,152.79227130000072,153.50991040000008,None,152.80903360000048,153.4931841000007,154.01062420000017,None,left,1,0.3623191000006045,154.01062420000017,None,None,152.80903360000048,153.99388330000056,0.5119178999993892,0.5951922999993258,1.7135073999997985,1.7966701999994257,,,,,,lucie_3,001,2020_Feb_06_1342,posner,3.1.5,59.99588428221086,
0.5,180,1,right,2,4,0,0,0,0,3,7,31,6,,,,,,,,,154.3942846,154.89503930000046,155.6128262000002,None,154.9118096000002,155.5959427000007,156.1133075000007,None,right,1,0.21939719999954832,156.1133075000007,None,None,154.9118096000002,156.0967429000002,0.5115822999996453,0.5950476999996681,1.7132642999995369,1.7966866999995545,,,,,,lucie_3,001,2020_Feb_06_1342,posner,3.1.5,59.99588428221086,
0.5,180,1,right,2,4,0,0,0,0,4,0,32,5,,,,,,,,,156.36401650000062,156.8643021000007,157.58200060000036,None,156.88106250000055,157.5653039000008,158.08281510000052,158.56669030000012,right,1,0.6179331999992428,158.08281510000052,None,None,156.88106250000055,158.0659501,0.5117411999999604,0.5954434999994191,1.713374400000248,1.7969678999997996,,,,,,lucie_3,001,2020_Feb_06_1342,posner,3.1.5,59.99588428221086,
0.5,180,1,right,2,4,0,0,0,0,4,1,33,6,,,,,,,,,158.71781069999997,159.21764600000006,159.9354860000003,None,159.2342881000004,159.91882650000025,160.43591520000064,None,left,0,0.10482289999981731,160.43591520000064,None,None,159.2342881000004,160.4195662000002,0.5115228999993633,0.5950372999996034,1.7134102999998504,1.7966895999998087,,,,,,lucie_3,001,2020_Feb_06_1342,posner,3.1.5,59.99588428221086,
-0.5,180,0,left,2,3,0,0,0,0,4,2,34,4,,,,,,,,,160.5700579000004,161.0704996000004,161.78798730000017,None,161.08670530000018,161.77133510000021,162.2888094,None,left,1,0.2198330999999598,162.2888094,None,None,161.08670530000018,162.27202490000036,0.5117821999992884,0.5949842999998509,1.7132918999996036,1.7965464999997494,,,,,,lucie_3,001,2020_Feb_06_1342,posner,3.1.5,59.99588428221086,
-0.5,0,1,left,1,3,0,0,0,0,4,3,35,0,,,,,,,,,162.5398365000001,163.0397092000003,163.7572052000005,None,163.05628200000046,163.74050460000035,164.25817450000068,None,left,1,0.28254349999951955,164.25817450000068,None,None,163.05628200000046,164.24123430000054,0.5112408000004507,0.5947820000001229,1.7127526000003854,1.7961420999999973,,,,,,lucie_3,001,2020_Feb_06_1342,posner,3.1.5,59.99588428221086,
0.5,180,1,right,2,4,0,0,0,0,4,4,36,7,,,,,,,,,164.55956650000007,165.05933690000074,165.77672789999997,None,165.07585070000005,165.76033950000055,166.27740240000003,None,right,1,0.24744620000001305,166.27740240000003,None,None,165.07585070000005,166.26087720000032,0.5117021000005479,0.5948995000007926,1.7132233000002088,1.7964263000003484,,,,,,lucie_3,001,2020_Feb_06_1342,posner,3.1.5,59.99588428221086,
0.5,0,0,right,1,4,0,0,0,0,4,5,37,3,,,,,,,,,166.5446948000008,167.04568749999999,167.76332000000002,None,167.06203630000073,167.7460671000008,168.26347760000044,None,right,1,0.29332590000012715,168.26347760000044,None,left,167.06203630000073,168.2467441000008,0.512596499999745,0.5957116999998107,1.713611299999684,1.7969740999997157,1.0385974000000715,,,,,lucie_3,001,2020_Feb_06_1342,posner,3.1.5,59.99588428221086,
-0.5,0,1,left,1,3,0,0,0,0,4,6,38,2,,,,,,,,,168.58081579999998,169.08240300000034,169.7987019000002,None,169.0979696000004,169.78179650000038,170.29993439999998,None,left,1,0.24886530000003404,170.29993439999998,None,None,169.0979696000004,170.2823840000001,0.5130472000000736,0.5950781000001371,1.7130033000003095,1.7970947000003434,,,,,,lucie_3,001,2020_Feb_06_1342,posner,3.1.5,59.99588428221086,
-0.5,0,1,left,1,3,0,0,0,0,4,7,39,1,,,,,,,,,170.56855320000068,171.06693870000072,171.78480730000047,None,171.08381850000023,171.76834710000003,172.28560350000043,None,left,1,0.29519949999939854,172.28560350000043,None,None,171.08381850000023,172.26922820000073,0.5103440000002593,0.5939917000005153,1.7126222000006237,1.7959630000004836,,,,,,lucie_3,001,2020_Feb_06_1342,posner,3.1.5,59.99588428221086,
0.5,180,1,right,2,4,0,0,0,0,5,0,40,6,,,,,,,,,172.60364520000076,173.10394420000011,173.82100940000055,None,173.12005560000034,173.80454940000072,174.3218641000003,None,right,1,0.1949192000001858,174.3218641000003,None,None,173.12005560000034,174.30509690000054,0.5118949000006978,0.5949070000006031,1.7130363000005673,1.7966237000000547,,,,,,lucie_3,001,2020_Feb_06_1342,posner,3.1.5,59.99588428221086,
0.5,0,0,right,1,4,0,0,0,0,5,1,41,3,,,,,,,,,174.53973170000063,175.03953440000078,175.7572183000002,None,175.05628010000055,175.74059860000034,176.25800380000055,None,right,1,0.3068466000004264,176.25800380000055,None,None,175.05628010000055,176.24112110000078,0.5114355000005162,0.5949970000001485,1.713010000000395,1.796433500000603,,,,,,lucie_3,001,2020_Feb_06_1342,posner,3.1.5,59.99588428221086,
0.5,180,1,right,2,4,0,0,0,0,5,2,42,7,,,,,,,,,176.59204060000047,177.09246050000002,177.80999350000002,None,177.10909840000022,177.79351810000026,178.3110187000002,None,right,1,0.14186160000008385,178.3110187000002,None,None,177.10909840000022,178.29424689999996,0.5117927999999665,0.5950904999999693,1.7135475999994014,1.7969033999997919,,,,,,lucie_3,001,2020_Feb_06_1342,posner,3.1.5,59.99588428221086,
-0.5,0,1,left,1,3,0,0,0,0,5,3,43,1,,,,,,,,,178.47846890000073,178.97851480000008,179.6961369999999,None,178.99492050000026,179.67925840000044,180.19664009999997,None,left,1,0.36821899999995367,180.19664009999997,None,None,178.99492050000026,180.18002460000025,0.511836000000585,0.5952244000000064,1.713328900000306,1.796638200000416,,,,,,lucie_3,001,2020_Feb_06_1342,posner,3.1.5,59.99588428221086,
-0.5,0,1,left,1,3,0,0,0,0,5,4,44,0,,,,,,,,,180.5811437000002,181.08118940000077,181.79889720000028,None,181.09803749999992,181.78217800000039,182.2997514000008,None,left,1,0.41706559999965975,182.2997514000008,None,None,181.09803749999992,182.28294860000005,0.5115103000007366,0.5950055000002976,1.7132581000005302,1.7965547000003426,,,,,,lucie_3,001,2020_Feb_06_1342,posner,3.1.5,59.99588428221086,
0.5,180,1,right,2,4,0,0,0,0,5,5,45,5,,,,,,,,,182.7339853000003,183.2340294000005,183.95196720000058,None,183.25076760000047,183.93501800000013,184.45254010000008,184.93639410000014,right,1,0.5521304000003511,184.45254010000008,None,None,183.25076760000047,184.43571790000078,0.51163489999999,0.5953964999998789,1.713306000000557,1.7974051999999574,,,,,,lucie_3,001,2020_Feb_06_1342,posner,3.1.5,59.99588428221086,
-0.5,180,0,left,2,3,0,0,0,0,5,6,46,4,,,,,,,,,185.03709890000027,185.5371683000003,186.25496550000025,None,185.55405040000005,186.23837920000005,186.75562530000025,None,left,1,0.30521629999930155,186.75562530000025,None,None,185.55405040000005,186.73903109999992,0.5116674999999304,0.5952462000004743,1.7134806000003664,1.7968689999997878,,,,,,lucie_3,001,2020_Feb_06_1342,posner,3.1.5,59.99588428221086,
-0.5,0,1,left,1,3,0,0,0,0,5,7,47,2,,,,,,,,,187.09041049999996,187.59006410000075,188.30822230000012,None,187.6070107000005,188.29122370000005,188.8085946000001,None,left,1,0.2440738000004785,188.8085946000001,None,None,187.6070107000005,188.79191770000034,0.5110382000002573,0.5945488000006662,1.712868000000526,1.7960418000002392,,,,,,lucie_3,001,2020_Feb_06_1342,posner,3.1.5,59.99588428221086,
-0.5,0,1,left,1,3,0,0,0,0,6,0,48,2,,,,,,,,,189.07544320000034,189.5760706000001,190.29383580000012,None,189.59307210000043,190.27711870000076,190.79445430000033,None,left,1,0.266327000000274,190.79445430000033,None,None,189.59307210000043,190.77800210000078,0.5118104000002859,0.595484899999974,1.7137179000001197,1.797125699999924,,,,,,lucie_3,001,2020_Feb_06_1342,posner,3.1.5,59.99588428221086,
-0.5,0,1,left,1,3,0,0,0,0,6,1,49,0,,,,,,,,,191.07958940000026,191.57897130000038,192.29672120000032,None,191.5956210000004,192.27992630000062,192.79724280000028,None,left,1,0.24762849999933678,192.79724280000028,None,None,191.5956210000004,192.78060520000054,0.5113442000001669,0.5949827000004007,1.7129530000001978,1.7963472000001275,,,,,,lucie_3,001,2020_Feb_06_1342,posner,3.1.5,59.99588428221086,
0.5,180,1,right,2,4,0,0,0,0,6,2,50,6,,,,,,,,,193.06521950000024,193.5650252000005,194.28269270000055,None,193.5821349000007,194.26594950000072,194.78350279999995,None,right,1,0.26144879999992554,194.78350279999995,None,None,193.5821349000007,194.7665495000001,0.5115049999994881,0.5950521999993725,1.7130102000000988,1.7967195000001084,,,,,,lucie_3,001,2020_Feb_06_1342,posner,3.1.5,59.99588428221086,
0.5,180,1,right,2,4,0,0,0,0,6,3,51,7,,,,,,,,,195.0682024000007,195.56786980000015,196.28536299999996,None,195.58420520000072,196.26881520000006,196.78609030000007,None,left,0,0.13860750000003463,196.78609030000007,None,None,195.58420520000072,196.7695917000001,0.5115435000006983,0.5950390000007246,1.7132504999999583,1.796630599999844,,,,,,lucie_3,001,2020_Feb_06_1342,posner,3.1.5,59.99588428221086,
0.5,0,0,right,1,4,0,0,0,0,6,4,52,3,,,,,,,,,196.95375160000003,197.45396560000063,198.17145040000014,None,197.47048440000071,198.1546016000002,198.67242070000066,None,right,1,0.29231959999924584,198.67242070000066,None,None,197.47048440000071,198.65527079999993,0.5117182000003595,0.5948723999999856,1.7130104999996547,1.7964044999998805,,,,,,lucie_3,001,2020_Feb_06_1342,posner,3.1.5,59.99588428221086,
-0.5,0,1,left,1,3,0,0,0,0,6,5,53,1,,,,,,,,,198.98997560000043,199.4898137,200.20770979999998,None,199.5068992000006,200.19098500000018,200.70829850000064,None,left,1,0.2565846000006786,200.70829850000064,None,None,199.5068992000006,200.69164619999992,0.5114669999993566,0.5949915000001056,1.7132764999996652,1.7966038999993543,,,,,,lucie_3,001,2020_Feb_06_1342,posner,3.1.5,59.99588428221086,
0.5,180,1,right,2,4,0,0,0,0,6,6,54,5,,,,,,,,,200.99267830000008,201.4926888,202.21035890000076,None,201.50967690000016,202.1935353000008,202.71132880000005,None,left,0,0.06144049999966228,202.71132880000005,None,None,201.50967690000016,202.69414640000014,0.5117502000002787,0.5950637999994797,1.7131910999996762,1.7970501999998305,,,,,,lucie_3,001,2020_Feb_06_1342,posner,3.1.5,59.99588428221086,
-0.5,180,0,left,2,3,0,0,0,0,6,7,55,4,,,,,,,,,202.79478730000028,203.29504700000052,204.0129564000008,None,203.31186370000069,203.9960340000007,204.5135003000005,None,right,0,0.17926830000033078,204.5135003000005,None,None,203.31186370000069,204.49667750000026,0.511936799999603,0.5954304999995657,1.7135261000003084,1.7971602999996321,,,,,,lucie_3,001,2020_Feb_06_1342,posner,3.1.5,59.99588428221086,
0.5,0,0,right,1,4,0,0,0,0,7,0,56,3,,,,,,,,,204.71472130000075,205.2142360000007,205.93233730000065,None,205.23127920000024,205.91529300000002,206.43298959999993,None,right,1,0.25986379999994824,206.43298959999993,None,None,205.23127920000024,206.4160518000008,0.5113251000002492,0.5950217999998131,1.7131224000004295,1.796510699999999,,,,,,lucie_3,001,2020_Feb_06_1342,posner,3.1.5,59.99588428221086,
-0.5,0,1,left,1,3,0,0,0,0,7,1,57,2,,,,,,,,,206.71727060000012,207.2171184000008,207.93486160000066,None,207.23399700000027,207.9181879000007,208.43548950000059,None,left,1,0.2652823999997054,208.43548950000059,None,None,207.23399700000027,208.4190249000003,0.5115611999999601,0.594935500000247,1.713437100000192,1.796832600000016,,,,,,lucie_3,001,2020_Feb_06_1342,posner,3.1.5,59.99588428221086,
-0.5,0,1,left,1,3,0,0,0,0,7,2,58,1,,,,,,,,,208.71998070000063,209.22016630000053,209.93781990000025,None,209.23666580000008,209.92105820000052,210.43844250000075,None,right,0,0.046339600000465,210.43844250000075,None,None,209.23666580000008,210.42159320000064,0.5115965000004508,0.594699700000092,1.7130151000001206,None,,,,,,lucie_3,001,2020_Feb_06_1342,posner,3.1.5,59.99588428221086,
0.5,180,1,right,2,4,0,0,0,0,7,3,59,6,,,,,,,,,210.50609669999994,211.00602290000006,211.7234365000004,None,211.0226835000003,211.70667550000053,212.22401700000046,None,left,0,0.14884859999983746,212.22401700000046,None,None,211.0226835000003,212.20745630000056,0.5117126000004646,0.5950386000004073,1.7131288000000495,1.7965556999997716,,,,,,lucie_3,001,2020_Feb_06_1342,posner,3.1.5,59.99588428221086,
0.5,180,1,right,2,4,0,0,0,0,7,4,60,5,,,,,,,,,212.3915923000004,212.89166490000025,213.60938140000053,None,212.9084542999999,213.59280770000078,214.11027960000047,None,right,1,0.27046340000015334,214.11027960000047,None,None,212.9084542999999,214.09349900000052,0.5115501999998742,0.5949962999993659,1.713372199999867,1.7965291999998954,,,,,,lucie_3,001,2020_Feb_06_1342,posner,3.1.5,59.99588428221086,
-0.5,0,1,left,1,3,0,0,0,0,7,5,61,0,,,,,,,,,214.41101250000065,214.9113342999999,215.62895710000066,None,214.9279217000003,215.61238050000065,216.12971620000008,None,left,1,0.20307909999974072,216.12971620000008,None,None,214.9279217000003,216.11295490000066,0.5116885999996157,0.5950421999996252,1.7132934999999634,1.7965032000001884,,,,,,lucie_3,001,2020_Feb_06_1342,posner,3.1.5,59.99588428221086,
-0.5,180,0,left,2,3,0,0,0,0,7,6,62,4,,,,,,,,,216.36359150000044,216.86384400000043,217.58174380000037,None,216.88052980000066,217.56489990000046,218.08221070000036,None,right,0,0.1625240000003032,218.08221070000036,None,None,216.88052980000066,218.06548740000017,0.5116069000005155,0.5952175000002171,1.7132310000006328,1.7967693999999028,,,,,,lucie_3,001,2020_Feb_06_1342,posner,3.1.5,59.99588428221086,
0.5,180,1,right,2,4,0,0,0,0,7,7,63,7,,,,,,,,,218.26658670000052,218.76631760000055,219.48398870000074,None,218.78305350000028,219.46738060000007,219.98480520000066,None,right,1,0.25201689999994414,219.98480520000066,None,None,218.78305350000028,219.96827810000013,0.511350400000083,0.5949766000003365,1.7132850000007238,1.7967615000006845,,,,,,lucie_3,001,2020_Feb_06_1342,posner,3.1.5,59.99588428221086,
-0.5,180,0,left,2,3,0,0,0,0,8,0,64,4,,,,,,,,,220.25258940000003,220.75255710000056,221.47023100000024,None,220.7693749,221.45347200000015,221.9707928000007,None,right,0,0.17819520000011835,221.9707928000007,None,None,220.7693749,221.95409870000003,0.5115454999995563,0.5948754000000918,1.713068299999577,1.7969240000002173,,,,,,lucie_3,001,2020_Feb_06_1342,posner,3.1.5,59.99588428221086,
0.5,0,0,right,1,4,0,0,0,0,8,1,65,3,,,,,,,,,222.17185620000055,222.67197880000003,223.38962590000028,None,222.68862919999992,223.37307020000026,223.89027030000034,None,right,1,0.26671650000025693,223.89027030000034,None,None,222.68862919999992,223.8735727000003,0.51180579999982,0.5951104000005216,1.7133871000005456,1.7968314999998256,,,,,,lucie_3,001,2020_Feb_06_1342,posner,3.1.5,59.99588428221086,
0.5,180,1,right,2,4,0,0,0,0,8,2,66,5,,,,,,,,,224.1741120000006,224.67446710000058,225.39252920000035,None,224.69137740000042,225.37550630000078,225.8931035000005,None,right,1,0.2796204000005673,225.8931035000005,None,None,224.69137740000042,225.8761938000007,0.5113824000000022,0.5950921000003291,1.7130917000004047,1.7967901000001802,,,,,,lucie_3,001,2020_Feb_06_1342,posner,3.1.5,59.99588428221086,
0.5,180,1,right,2,4,0,0,0,0,8,3,67,7,,,,,,,,,226.19436870000027,226.69405690000076,227.41180170000007,None,226.71101760000056,227.39497670000037,227.9125967,None,left,0,0.21213859999988927,227.9125967,None,None,226.71101760000056,227.89571909999995,0.5115697000001092,0.5951944000007643,1.7132134000003134,1.7966876000000411,,,,,,lucie_3,001,2020_Feb_06_1342,posner,3.1.5,59.99588428221086,
-0.5,0,1,left,1,3,0,0,0,0,8,4,68,2,,,,,,,,,228.14681890000065,228.64674110000033,229.3644419000002,None,228.66352310000002,229.3476636000005,229.86501040000076,None,left,1,0.23580330000004324,229.86501040000076,None,None,228.66352310000002,229.84847850000006,0.5112742999999682,0.5948021000003791,1.7129940000004353,1.7965768000003663,,,,,,lucie_3,001,2020_Feb_06_1342,posner,3.1.5,59.99588428221086,
-0.5,0,1,left,1,3,0,0,0,0,8,5,69,0,,,,,,,,,230.1161985000008,230.61619169999994,231.33372090000012,None,230.63311840000006,231.31699630000003,231.8345134000001,None,left,1,0.28231200000027457,231.8345134000001,None,None,230.63311840000006,231.81809460000022,0.5115291000001889,0.5953506999994715,1.7134103999997023,1.7967260999994323,,,,,,lucie_3,001,2020_Feb_06_1342,posner,3.1.5,59.99588428221086,
0.5,180,1,right,2,4,0,0,0,0,8,6,70,6,,,,,,,,,232.1355407000001,232.63546150000002,233.3531627000002,None,232.6523861000005,233.3365745000001,233.85395719999997,234.33805400000074,right,1,0.7429147000002558,233.85395719999997,None,None,232.6523861000005,233.83730040000046,0.5112321000005977,0.5951363000003767,1.713047600000209,1.796615500000371,,,,,,lucie_3,001,2020_Feb_06_1342,posner,3.1.5,59.99588428221086,
-0.5,0,1,left,1,3,0,0,0,0,8,7,71,1,,,,,,,,,234.6223260000006,235.12253690000034,235.8401702000001,None,235.13929030000054,235.82366870000078,236.34095070000058,None,left,1,0.26383290000012494,236.34095070000058,None,None,235.13929030000054,236.32386680000036,0.5118947000000844,0.5951470999998492,1.7132051999997202,1.7968276000001424,,,,,,lucie_3,001,2020_Feb_06_1342,posner,3.1.5,59.99588428221086,
-0.5,180,0,left,2,3,0,0,0,0,9,0,72,4,,,,,,,,,236.62453690000075,237.1250168000006,237.84313760000077,None,237.14188130000002,237.82614510000076,238.34348370000043,None,left,1,0.32543059999989055,238.34348370000043,None,None,237.14188130000002,238.32678320000014,0.5113234999998895,0.5950551999994786,1.7130697000002328,1.796801599999526,,,,,,lucie_3,001,2020_Feb_06_1342,posner,3.1.5,59.99588428221086,
-0.5,0,1,left,1,3,0,0,0,0,9,1,73,0,,,,,,,,,238.69456609999997,239.19453760000033,239.91235420000066,None,239.21143540000048,239.89553990000059,240.41306150000037,None,left,1,0.2239389000005758,240.41306150000037,None,None,239.21143540000048,240.39621310000075,0.5114702999999281,0.595143200000166,1.7131270999998378,1.7968563000003996,,,,,,lucie_3,001,2020_Feb_06_1342,posner,3.1.5,59.99588428221086,
-0.5,0,1,left,1,3,0,0,0,0,9,2,74,1,,,,,,,,,240.66401630000018,241.16413610000018,241.88172360000044,None,241.18081220000022,241.86507400000028,242.38266960000055,None,left,1,0.2702286000003369,242.38266960000055,None,None,241.18081220000022,242.3655400000007,0.5117839000004096,0.5952890000007756,1.713174500000605,1.7969099000001734,,,,,,lucie_3,001,2020_Feb_06_1342,posner,3.1.5,59.99588428221086,
0.5,180,1,right,2,4,0,0,0,0,9,3,75,7,,,,,,,,,242.68303960000048,243.18367860000035,243.90121650000037,None,243.20019440000033,243.88437880000038,244.4021283000002,None,right,1,0.20262560000082885,244.4021283000002,None,None,243.20019440000033,244.3853151000003,0.5118464999995922,0.5949633999998696,1.7134711999997307,1.7969188999995822,,,,,,lucie_3,001,2020_Feb_06_1342,posner,3.1.5,59.99588428221086,
0.5,0,0,right,1,4,0,0,0,0,9,4,76,3,,,,,,,,,244.63590460000069,245.1361194000001,245.85385320000023,None,245.15299250000044,245.83721700000024,246.3545225000007,None,right,1,0.2182597999999416,246.3545225000007,None,None,245.15299250000044,246.3382571000002,0.5113900000005742,0.5948526000001948,1.7135080000007292,1.7965918999998394,,,,,,lucie_3,001,2020_Feb_06_1342,posner,3.1.5,59.99588428221086,
0.5,180,1,right,2,4,0,0,0,0,9,5,77,6,,,,,,,,,246.58876409999993,247.08890240000073,247.8065888000001,None,247.10545830000046,247.7898578000004,248.30726940000022,None,right,1,0.2254848000002312,248.30726940000022,None,None,247.10545830000046,248.29053139999996,0.5122567999997045,0.5957452000002377,1.7138617999999042,1.7972164000002522,,,,,,lucie_3,001,2020_Feb_06_1342,posner,3.1.5,59.99588428221086,
0.5,180,1,right,2,4,0,0,0,0,9,6,78,5,,,,,,,,,248.55851970000003,249.0583989000006,249.77593100000013,None,249.07494420000057,249.7596567999999,250.27663819999998,None,right,1,0.24026789999970788,250.27663819999998,None,None,249.07494420000057,250.26002719999997,0.5117336000002979,0.5950843999999051,1.7133413999999902,1.7969330000005357,,,,,,lucie_3,001,2020_Feb_06_1342,posner,3.1.5,59.99588428221086,
-0.5,0,1,left,1,3,0,0,0,0,9,7,79,2,,,,,,,,,250.5443451000001,251.0443361000007,251.76212730000043,None,251.06132490000073,251.74525350000022,252.26299670000026,None,right,0,0.1819098000005397,252.26299670000026,None,None,251.06132490000073,252.2458497000007,0.5116084999999657,0.5950503999993089,1.7131024000000252,1.7966962000000422,,,,,,lucie_3,001,2020_Feb_06_1342,posner,3.1.5,59.99588428221086,
0.5,0,0,right,1,4,0,0,0,0,10,0,80,3,,,,,,,,,252.46385869999995,252.9638229000002,253.68133860000034,None,252.9804090000007,253.66463960000056,254.18229240000073,None,right,1,0.2306112000005669,254.18229240000073,None,None,252.9804090000007,254.16519380000045,0.5118045999997776,0.5950941999999486,1.713162499999271,1.7968898999997691,,,,,,lucie_3,001,2020_Feb_06_1342,posner,3.1.5,59.99588428221086,
0.5,180,1,right,2,4,0,0,0,0,10,1,81,7,,,,,,,,,254.4331402000007,254.93324819999998,255.65087210000002,None,254.94978870000068,255.6339994,256.15152080000007,None,right,1,0.29330170000048383,256.15152080000007,None,None,254.94978870000068,256.1345525000006,0.5117783999994572,0.5950482999996893,1.7130707999995138,1.7966937000001053,,,,,,lucie_3,001,2020_Feb_06_1342,posner,3.1.5,59.99588428221086,
-0.5,180,0,left,2,3,0,0,0,0,10,2,82,4,,,,,,,,,256.4694347000004,256.9692541000004,257.68669320000026,None,256.9857107000007,257.6700451000006,258.1875184999999,None,left,1,0.2653643000003285,258.1875184999999,None,None,256.9857107000007,258.17089340000075,0.5115976999995837,0.5952141999996456,1.7132246000001032,1.796485500000017,,,,,,lucie_3,001,2020_Feb_06_1342,posner,3.1.5,59.99588428221086,
-0.5,0,1,left,1,3,0,0,0,0,10,3,83,0,,,,,,,,,258.4720161000005,258.9720461000006,259.68955840000035,None,258.98894480000035,259.6730531000003,260.1903484000004,None,left,1,0.2945724000001064,260.1903484000004,None,None,258.98894480000035,260.17358650000006,0.5115761000006387,0.5948970999997982,1.7130925000001298,1.7964720999998463,,,,,,lucie_3,001,2020_Feb_06_1342,posner,3.1.5,59.99588428221086,
-0.5,0,1,left,1,3,0,0,0,0,10,4,84,2,,,,,,,,,260.5086497000002,261.00847860000067,261.7256489000001,None,261.02475200000026,261.7092837,262.2265255000002,None,right,0,0.23413999999957014,262.2265255000002,None,None,261.02475200000026,262.2100194000004,0.5119521000005989,0.5952414000003046,1.7134641000002375,1.7969147000003431,,,,,,lucie_3,001,2020_Feb_06_1342,posner,3.1.5,59.99588428221086,
-0.5,0,1,left,1,3,0,0,0,0,10,5,85,1,,,,,,,,,262.47804560000077,262.9776930000007,263.69519579999996,None,262.9941714000006,263.6784972000005,264.1958031000004,None,right,0,0.0809121000002051,264.1958031000004,None,None,262.9941714000006,264.1792731000005,0.5117402999994738,0.595115000000078,1.7133046999997532,1.7965901999996277,,,,,,lucie_3,001,2020_Feb_06_1342,posner,3.1.5,59.99588428221086,
0.5,180,1,right,2,4,0,0,0,0,10,6,86,5,,,,,,,,,264.2964193000007,264.79655920000005,265.5142151,None,264.8132512000002,265.4976677000004,266.01518470000065,None,right,1,0.24554929999976594,266.01518470000065,None,None,264.8132512000002,265.99853190000067,0.5113809000004039,0.5950344000002588,1.7133358999999473,1.7967882000002646,,,,,,lucie_3,001,2020_Feb_06_1342,posner,3.1.5,59.99588428221086,
0.5,180,1,right,2,4,0,0,0,0,10,7,87,6,,,,,,,,,266.28284260000055,266.78290840000045,267.5005566,None,266.79935300000034,267.48364590000074,268.0012355000008,None,right,1,0.25966799999969226,268.0012355000008,None,None,266.79935300000034,267.98425490000045,0.5116903000007369,0.5949766000003365,1.7130354999999327,1.7967349999998987,,,,,,lucie_3,001,2020_Feb_06_1342,posner,3.1.5,59.99588428221086,
,,,,,,0,0,0,0,,,,,,,,,,,,,,,,,,,,,,,,,,,,,,,,,,268.2850543000004,None,1.900000006571645e-05,0.9965793999999732,lucie_3,001,2020_Feb_06_1342,posner,3.1.5,59.99588428221086,
-0.5,180,0,left,2,3,1,0,1,0,0,0,0,4,1.1599999197642319e-05,0.09780299999965791,329.3024430000005,None,1.4700000065204222e-05,0.0978768000004493,331.4053023000006,None,331.67911129999993,332.18984309999996,332.8905523000003,None,332.18984309999996,332.8738348000006,333.39136340000005,None,left,1,0.28546339999957127,333.39136340000005,None,None,332.18984309999996,333.3745228000007,0.5032234000000244,0.6034128999999666,1.7046487999996316,1.7882956000003105,,,,,,lucie_3,001,2020_Feb_06_1342,posner,3.1.5,59.99588428221086,
-0.5,0,1,left,1,3,1,0,1,0,0,1,1,0,,,,,,,,,333.6934874000008,334.1925759000005,334.9101171000002,None,334.20908150000014,334.8932453000007,335.41093,None,left,1,0.27395500000056927,335.41093,None,None,334.20908150000014,335.3940431000001,0.5108840000002601,0.5942018000005191,1.712336100000357,1.7956985000000714,,,,,,lucie_3,001,2020_Feb_06_1342,posner,3.1.5,59.99588428221086,
0.5,0,0,right,1,4,1,0,1,0,0,2,2,3,,,,,,,,,335.71191400000043,336.21205630000077,336.9296137000001,None,336.22868820000076,336.91285120000066,337.4301555000002,None,right,1,0.22277000000030966,337.4301555000002,None,None,336.22868820000076,337.4136690000005,0.5118980000006559,0.5950459000005139,1.7134941000003892,1.796783100000539,,,,,,lucie_3,001,2020_Feb_06_1342,posner,3.1.5,59.99588428221086,
0.5,180,1,right,2,4,1,0,1,0,0,3,3,7,,,,,,,,,337.6814346000001,338.18123150000065,338.89893480000046,None,338.19794920000004,338.88242700000046,339.39961290000065,None,right,1,0.32522510000035254,339.39961290000065,None,None,338.19794920000004,339.3830775000006,0.5113741000004666,0.5945723000004364,1.7132031000001007,1.796479300000101,,,,,,lucie_3,001,2020_Feb_06_1342,posner,3.1.5,59.99588428221086,
-0.5,0,1,left,1,3,1,0,1,0,0,4,4,2,,,,,,,,,339.75082250000014,340.25099750000027,340.9683234000004,None,340.2674683000005,340.95183910000014,341.4692896000006,None,left,1,0.2795898999993369,341.4692896000006,None,None,340.2674683000005,341.4525908000005,0.5117410999991989,0.5948645999997098,1.713321299999734,1.7965323999997054,,,,,,lucie_3,001,2020_Feb_06_1342,posner,3.1.5,59.99588428221086,
-0.5,0,1,left,1,3,1,0,1,0,0,5,5,1,,,,,,,,,341.7703715000007,342.27026060000026,342.9878168000005,None,342.2868769000006,342.97117250000065,343.48870780000016,None,left,1,0.2440639000005831,343.48870780000016,None,None,342.2868769000006,343.472033,0.5113302999998268,0.5947414000002027,1.7130928000005952,1.7962084999999206,,,,,,lucie_3,001,2020_Feb_06_1342,posner,3.1.5,59.99588428221086,
0.5,180,1,right,2,4,1,0,1,0,0,6,6,5,,,,,,,,,343.7566304000002,344.25610250000045,344.9739453000002,None,344.2731534000004,344.9572425000006,345.4745189000005,None,right,1,0.26635630000055244,345.4745189000005,None,None,344.2731534000004,345.45814190000056,0.5112209999997503,0.5948368999997911,1.7132379999993645,1.7968120999994426,,,,,,lucie_3,001,2020_Feb_06_1342,posner,3.1.5,59.99588428221086,
0.5,180,1,right,2,4,1,0,1,0,0,7,7,6,,,,,,,,,345.75971759999993,346.2593304000002,346.9766408000005,None,346.2756975000002,346.9601790000006,347.4773528000005,None,right,1,0.22366640000018378,347.4773528000005,None,None,346.2756975000002,347.46099649999996,0.5112987000002249,0.594673800000237,1.7129649000007703,1.796391500000027,,,,,,lucie_3,001,2020_Feb_06_1342,posner,3.1.5,59.99588428221086,
0.5,180,1,right,2,4,1,0,1,0,1,0,8,5,,,,,,,,,347.72878970000056,348.22852670000066,348.94617090000065,None,348.2450486000007,348.92959659999997,349.4466689000001,None,right,1,0.23025779999989027,349.4466689000001,None,None,348.2450486000007,349.4303086,0.511629499999799,0.5952547999995659,1.7133874000001015,1.7966946999995344,,,,,,lucie_3,001,2020_Feb_06_1342,posner,3.1.5,59.99588428221086,
0.5,180,1,right,2,4,1,0,1,0,1,1,9,6,,,,,,,,,349.6976934000004,350.19780770000034,350.9155444000007,None,350.2144528000008,350.89877720000004,351.41610350000064,None,right,1,0.3569157999991148,351.41610350000064,None,None,350.2144528000008,351.39950170000066,0.5118423000003531,0.5953546999999162,1.7135131000004549,1.7969911999998658,,,,,,lucie_3,001,2020_Feb_06_1342,posner,3.1.5,59.99588428221086,
-0.5,0,1,left,1,3,1,0,1,0,1,2,10,2,,,,,,,,,351.80068220000067,352.30084930000066,353.0183551,None,352.31741970000076,353.0019534000003,353.51915740000004,None,left,1,0.2697614999997313,353.51915740000004,None,None,352.31741970000076,353.5024678,0.5115643999997701,0.5947510999994847,1.7131663000000117,1.796448999999484,,,,,,lucie_3,001,2020_Feb_06_1342,posner,3.1.5,59.99588428221086,
-0.5,0,1,left,1,3,1,0,1,0,1,3,11,0,,,,,,,,,353.82005670000035,354.3204519000001,355.0379195000005,None,354.3368076000006,355.02104920000056,355.53879159999997,None,left,1,0.3140557999995508,355.53879159999997,None,None,354.3368076000006,355.5218726000003,0.5116336000000956,0.5948821000001772,1.713041300000441,1.7964497000002666,,,,,,lucie_3,001,2020_Feb_06_1342,posner,3.1.5,59.99588428221086,
-0.5,180,0,left,2,3,1,0,1,0,1,4,12,4,,,,,,,,,355.8731207999999,356.37317390000044,357.090682,None,356.3899013,357.07437200000004,357.5914431000001,None,right,0,0.20558379999965837,357.5914431000001,None,None,356.3899013,357.5748106000001,0.5117673999993713,0.5949597999997422,1.7133966999999757,1.7967715999993743,,,,,,lucie_3,001,2020_Feb_06_1342,posner,3.1.5,59.99588428221086,
0.5,0,0,right,1,4,1,0,1,0,1,5,13,3,,,,,,,,,357.82501560000037,358.3256171000003,359.04338690000077,None,358.3425756000006,359.02664559999994,359.5441510999999,None,right,1,0.04483499999969354,359.5441510999999,None,None,358.3425756000006,359.5271908000004,0.5123800000001211,0.5959794000000329,1.7139350999996168,None,,,,,,lucie_3,001,2020_Feb_06_1342,posner,3.1.5,59.99588428221086,
0.5,180,1,right,2,4,1,0,1,0,1,6,14,7,,,,,,,,,359.61155450000024,360.11159450000014,360.8293530000001,None,360.1282052000006,360.81254890000037,361.3300581000003,None,right,1,0.23487810000005993,361.3300581000003,None,None,360.1282052000006,361.31334530000004,0.5110417000005327,0.5941983000002438,1.712777100000494,1.796027100000174,,,,,,lucie_3,001,2020_Feb_06_1342,posner,3.1.5,59.99588428221086,
-0.5,0,1,left,1,3,1,0,1,0,1,7,15,1,,,,,,,,,361.58086170000024,362.0809382000007,362.7985189000001,None,362.09746220000034,362.7820190000002,363.29931020000004,None,right,0,0.12147490000006655,363.29931020000004,None,None,362.09746220000034,363.28263920000063,0.511502900000778,0.5948530000005121,1.7131930000005013,1.7965616999999838,,,,,,lucie_3,001,2020_Feb_06_1342,posner,3.1.5,59.99588428221086,
-0.5,0,1,left,1,3,1,0,1,0,2,0,16,1,,,,,,,,,363.44960620000074,363.95036170000003,364.6677800000007,None,363.96676950000074,364.6511782000007,365.16849679999996,None,left,1,0.27634870000019873,365.16849679999996,None,None,363.96676950000074,365.1518979000002,0.5123937999996997,0.5956722000000809,1.7139164000000164,1.7972031999997853,,,,,,lucie_3,001,2020_Feb_06_1342,posner,3.1.5,59.99588428221086,
0.5,180,1,right,2,4,1,0,1,0,2,1,17,6,,,,,,,,,365.4695563000005,365.9697251000007,366.68722920000073,None,365.98624720000043,366.67043900000044,367.18821019999996,None,right,1,0.21661420000054932,367.18821019999996,None,None,365.98624720000043,367.17129640000076,0.5114539000005607,0.5948149000005287,1.7130080000006274,1.7964354000005187,,,,,,lucie_3,001,2020_Feb_06_1342,posner,3.1.5,59.99588428221086,
-0.5,0,1,left,1,3,1,0,1,0,2,2,18,0,,,,,,,,,367.4217569000002,367.92239490000065,368.6402072000001,None,367.93916179999997,368.6233723000005,369.1406422,None,left,1,0.26429060000009486,369.1406422,None,None,367.93916179999997,369.1239802,0.5124940999994578,0.5959573000000091,1.714057000000139,1.7975084999998217,,,,,,lucie_3,001,2020_Feb_06_1342,posner,3.1.5,59.99588428221086,
-0.5,180,0,left,2,3,1,0,1,0,2,3,19,4,,,,,,,,,369.4251004000007,369.9250098000002,370.64282710000043,None,369.94172640000033,370.62592330000007,371.1434472000001,None,left,1,0.2934086000004754,371.1434472000001,None,None,369.94172640000033,371.12661000000026,0.5115937000000486,0.5952624999999898,1.7131746000004568,1.7969559000002846,,,,,,lucie_3,001,2020_Feb_06_1342,posner,3.1.5,59.99588428221086,
0.5,180,1,right,2,4,1,0,1,0,2,4,20,5,,,,,,,,,371.4612508,371.96147870000004,372.6790682000001,None,371.9777399000004,372.66251680000005,373.1796393000004,None,right,1,0.2251746000001731,373.1796393000004,None,None,371.9777399000004,373.1629780000003,0.5118775000000824,0.5949320999998235,1.7133684000000358,1.7965643000006821,,,,,,lucie_3,001,2020_Feb_06_1342,posner,3.1.5,59.99588428221086,
0.5,0,0,right,1,4,1,0,1,0,2,5,21,3,,,,,,,,,373.4307744000007,373.9304572000001,374.6482439000001,None,373.9471659000001,374.6317402000004,375.1488923000006,None,right,1,0.4640699000001405,375.1488923000006,None,None,373.9471659000001,375.13251240000045,0.5112817000008363,0.594830500000171,1.7133131000000503,1.7964007000000493,,,,,,lucie_3,001,2020_Feb_06_1342,posner,3.1.5,59.99588428221086,
-0.5,0,1,left,1,3,1,0,1,0,2,6,22,2,,,,,,,,,375.63434380000035,376.13379800000075,376.8513416000005,None,376.15009760000066,376.83453910000026,377.35221640000054,375.63434380000035,left,1,0.23657210000055784,377.35221640000054,None,None,376.15009760000066,377.3351210999999,0.5114642999997159,0.5946631999995589,1.7127818999997544,1.7963585999996212,,,,,,lucie_3,001,2020_Feb_06_1342,posner,3.1.5,59.99588428221086,
0.5,180,1,right,2,4,1,0,1,0,2,7,23,7,,,,,,,,,377.6196807000006,378.11982250000074,378.8372446000003,None,378.1363244000004,378.82055840000066,379.3382861,None,right,1,0.2104046999993443,379.3382861,None,None,378.1363244000004,379.3214117000007,0.5114809000006062,0.5949363999998241,1.7130599000001894,1.7970045000001846,,,,,,lucie_3,001,2020_Feb_06_1342,posner,3.1.5,59.99588428221086,
0.5,180,1,right,2,4,1,0,1,0,3,0,24,5,,,,,,,,,379.57163800000035,380.07239540000046,380.7900989,None,380.0891270000002,380.7736082000001,381.2907445999999,None,right,1,0.21810540000024048,381.2907445999999,None,None,380.0891270000002,381.2741863000001,0.512564999999995,0.5958620000001247,1.7143345999993471,1.7976693000000523,,,,,,lucie_3,001,2020_Feb_06_1342,posner,3.1.5,59.99588428221086,
-0.5,0,1,left,1,3,1,0,1,0,3,1,25,2,,,,,,,,,381.5244521000004,382.0249373000006,382.74280590000035,None,382.04197530000056,382.7259911000001,383.24355950000063,None,left,1,0.265265900000486,383.24355950000063,None,None,382.04197530000056,383.22682330000043,0.5109424000002036,0.5946512999998959,1.7128090000005614,1.7963894000004075,,,,,,lucie_3,001,2020_Feb_06_1342,posner,3.1.5,59.99588428221086,
-0.5,0,1,left,1,3,1,0,1,0,3,2,26,1,,,,,,,,,383.5282186000004,384.02776580000045,384.7455219000003,None,384.04452240000046,384.72888760000023,385.2461443000002,None,left,1,0.35072609999951965,385.2461443000002,None,None,384.04452240000046,385.2296001000004,0.5114604000000327,0.5950033999997686,1.7132712000002357,1.7967115000001286,,,,,,lucie_3,001,2020_Feb_06_1342,posner,3.1.5,59.99588428221086,
-0.5,0,1,left,1,3,1,0,1,0,3,3,27,0,,,,,,,,,385.61385130000053,386.1139499000001,386.83174340000005,None,386.1306155000002,386.8150101000001,387.33261440000024,None,left,1,0.24832140000034997,387.33261440000024,None,None,386.1306155000002,387.31566060000023,0.5118009999996502,0.5953714999996009,1.713497599999755,1.7968534999999974,,,,,,lucie_3,001,2020_Feb_06_1342,posner,3.1.5,59.99588428221086,
-0.5,180,0,left,2,3,1,0,1,0,3,4,28,4,,,,,,,,,387.6003432000007,388.10027530000025,388.81783930000074,None,388.11678780000057,388.8013504999999,389.31854509999994,None,left,1,0.3263747000000876,389.31854509999994,None,None,388.11678780000057,389.3017669000001,0.5113583000002109,0.5946007000002282,1.7128381000002264,1.7964149999997971,,,,,,lucie_3,001,2020_Feb_06_1342,posner,3.1.5,59.99588428221086,
0.5,180,1,right,2,4,1,0,1,0,3,5,29,6,,,,,,,,,389.66981510000005,390.1696064000007,390.88717280000037,None,390.18641389999993,390.8707815000007,391.3880497,None,right,1,0.280894200000148,391.3880497,None,None,390.18641389999993,391.37149490000047,0.5114671000001181,0.5951457000001028,1.713335399999778,1.7965316999998322,,,,,,lucie_3,001,2020_Feb_06_1342,posner,3.1.5,59.99588428221086,
0.5,0,0,right,1,4,1,0,1,0,3,6,30,3,,,,,,,,,391.68931950000024,392.18913390000034,392.9067064999999,None,392.20563440000024,392.8900915000004,393.4074455,None,right,1,0.27733189999980823,393.4074455,None,None,392.20563440000024,393.39077140000063,0.5113034999994852,0.5947900999999547,1.712928699999793,1.7963779000001523,,,,,,lucie_3,001,2020_Feb_06_1342,posner,3.1.5,59.99588428221086,
0.5,180,1,right,2,4,1,0,1,0,3,7,31,7,,,,,,,,,393.7087033000007,394.2087508000004,394.9260899000001,None,394.22520220000024,394.90972390000024,395.42678200000046,None,right,1,0.2660433999999441,395.42678200000046,None,None,394.22520220000024,395.4101556000005,0.5116580000003523,0.5948892000005799,1.7130538999999771,1.796661700000186,,,,,,lucie_3,001,2020_Feb_06_1342,posner,3.1.5,59.99588428221086,
0.5,180,1,right,2,4,1,0,1,0,4,0,32,5,,,,,,,,,395.7118928,396.21161290000055,396.9292180000002,None,396.22792930000014,396.91244559999996,397.42979600000035,None,right,1,0.4629957999995895,397.42979600000035,None,None,396.22792930000014,397.4128991000007,0.5114896999994016,0.5946051999999327,1.7127638000001753,1.7961789999999382,,,,,,lucie_3,001,2020_Feb_06_1342,posner,3.1.5,59.99588428221086,
-0.5,0,1,left,1,3,1,0,1,0,4,1,33,2,,,,,,,,,397.9147363000002,398.4143270000004,399.1320052000001,None,398.43101280000064,399.11509790000036,399.63274340000044,397.9147363000002,left,1,0.34815789999993285,399.63274340000044,None,None,398.43101280000064,399.6160309000006,0.5114000000003216,0.5948662000000695,1.71308769999996,1.7968087999997806,,,,,,lucie_3,001,2020_Feb_06_1342,posner,3.1.5,59.99588428221086,
-0.5,180,0,left,2,3,1,0,1,0,4,2,34,4,,,,,,,,,400.00079470000037,400.5006217,401.21830769999997,None,400.5172480000001,401.2015895000004,401.7191040000007,None,left,1,0.30977569999959087,401.7191040000007,None,None,400.5172480000001,401.70220430000063,0.511580800000047,0.5949765000004845,1.7131461999997555,1.7966182999998637,,,,,,lucie_3,001,2020_Feb_06_1342,posner,3.1.5,59.99588428221086,
-0.5,0,1,left,1,3,1,0,1,0,4,3,35,1,,,,,,,,,402.05318070000067,402.55343340000036,403.2710530000004,None,402.57002230000035,403.25424360000034,403.77165610000065,None,left,1,0.4413589999994656,403.77165610000065,None,None,402.57002230000035,403.75508510000054,0.5118489000005866,0.5951601000006121,1.7134811000005357,1.7970894999998563,,,,,,lucie_3,001,2020_Feb_06_1342,posner,3.1.5,59.99588428221086,
0.5,180,1,right,2,4,1,0,1,0,4,4,36,7,,,,,,,,,404.24011169999994,404.7397225000004,405.4575218,None,404.75630790000014,405.4408290000001,405.95813480000015,None,right,1,0.2707013999997798,405.95813480000015,None,None,404.75630790000014,405.9413932000007,0.5110869000000093,0.5946602000003622,1.7127331000001504,1.7961281999996572,,,,,,lucie_3,001,2020_Feb_06_1342,posner,3.1.5,59.99588428221086,
-0.5,0,1,left,1,3,1,0,1,0,4,5,37,0,,,,,,,,,406.25922510000055,406.7593418000006,407.47691699999996,None,406.77587140000014,407.4602896000006,407.9775730000001,None,left,1,0.2032350999998016,407.9775730000001,None,None,406.77587140000014,407.9609461,0.5116199000003689,0.5950540000003457,1.7132108000005246,1.7965481000001091,,,,,,lucie_3,001,2020_Feb_06_1342,posner,3.1.5,59.99588428221086,
0.5,0,0,right,1,4,1,0,1,0,4,6,38,3,,,,,,,,,408.21158540000033,408.71195890000035,409.42964930000016,None,408.7285832000007,409.41313979999995,409.93028310000045,None,right,1,0.30676819999916916,409.93028310000045,None,None,408.7285832000007,409.91373440000007,0.5117812999997113,0.5950835999992705,1.7135417999998026,1.7967234999996435,,,,,,lucie_3,001,2020_Feb_06_1342,posner,3.1.5,59.99588428221086,
0.5,180,1,right,2,4,1,0,1,0,4,7,39,6,,,,,,,,,410.26491330000044,410.7646368000005,411.48261619999994,None,410.78149530000064,411.4656100000002,411.9830931000006,None,right,1,0.22183289999975386,411.9830931000006,None,None,410.78149530000064,411.9663565000001,0.5113956000004691,0.5947901999998066,1.7130980000001728,1.7966317000000345,,,,,,lucie_3,001,2020_Feb_06_1342,posner,3.1.5,59.99588428221086,
-0.5,0,1,left,1,3,1,0,1,0,5,0,40,1,,,,,,,,,412.23421600000074,412.7339441000004,413.45190060000004,None,412.7509961000005,413.4349705000004,413.9525885000003,None,left,1,0.2042159000002357,413.9525885000003,None,None,412.7509961000005,413.9356287999999,0.511350400000083,0.595188600000256,1.7130188999999518,1.7967165999998542,,,,,,lucie_3,001,2020_Feb_06_1342,posner,3.1.5,59.99588428221086,
-0.5,0,1,left,1,3,1,0,1,0,5,1,41,0,,,,,,,,,414.18673020000006,414.6866740000005,415.4043121000004,None,414.7036743000008,415.38781240000026,415.9051100000006,None,left,1,0.36377710000033403,415.9051100000006,None,None,414.7036743000008,415.8885097000002,0.5114114999996673,0.5949708999996801,1.7132258999999976,1.7967278000005535,,,,,,lucie_3,001,2020_Feb_06_1342,posner,3.1.5,59.99588428221086,
-0.5,180,0,left,2,3,1,0,1,0,5,2,42,4,,,,,,,,,416.2900419000007,416.7897554000001,417.5079818000004,None,416.8064619000006,417.49072610000076,418.0081693000002,None,left,1,0.3246243000003233,418.0081693000002,None,None,416.8064619000006,417.9912327000002,0.5112606000002415,0.5949135000000751,1.7127275000002555,1.796223899999859,,,,,,lucie_3,001,2020_Feb_06_1342,posner,3.1.5,59.99588428221086,
0.5,0,0,right,1,4,1,0,1,0,5,3,43,3,,,,,,,,,418.3596320000006,418.8591780000006,419.57674300000053,None,418.8759768,419.56039130000045,420.0776575,None,right,1,0.3431782000006933,420.0776575,None,None,418.8759768,420.0609400000003,0.5114643000006254,0.5952300999997533,1.7132151000005251,1.7964444999997795,,,,,,lucie_3,001,2020_Feb_06_1342,posner,3.1.5,59.99588428221086,
0.5,180,1,right,2,4,1,0,1,0,5,4,44,7,,,,,,,,,420.4453650000005,420.94543710000016,421.66315960000065,None,420.9623846000004,421.6463217999999,422.1638144000008,None,right,1,0.10518349999983911,422.1638144000008,None,None,420.9623846000004,422.1470380999999,0.5116762999996354,0.5955106999999771,1.7132994999992661,1.7968222999998034,,,,,,lucie_3,001,2020_Feb_06_1342,posner,3.1.5,59.99588428221086,
-0.5,0,1,left,1,3,1,0,1,0,5,5,45,2,,,,,,,,,422.2982798000003,422.79802030000064,423.51561290000063,None,422.81455580000056,423.49911690000044,424.01631950000046,None,left,1,0.14872550000018236,424.01631950000046,None,None,422.81455580000056,423.99954720000005,0.5115525999999591,0.5950625999994372,1.713068199999725,1.796681400000125,,,,,,lucie_3,001,2020_Feb_06_1342,posner,3.1.5,59.99588428221086,
0.5,180,1,right,2,4,1,0,1,0,5,6,46,5,,,,,,,,,424.1843514000002,424.68390940000063,425.4017313000004,None,424.7008048000007,425.38487800000075,425.9023416,426.3864220000005,None,0,,425.9023416,None,None,424.7008048000007,425.8856445000001,0.5114832999997816,0.5952589999997144,1.7132027999996353,1.796726700000363,,,,,,lucie_3,001,2020_Feb_06_1342,posner,3.1.5,59.99588428221086,
0.5,180,1,right,2,4,1,0,1,0,5,7,47,6,,,,,,,,,426.8869777,427.3877844000008,428.1052404000002,426.8869777,427.4043036000003,428.0887229,428.6059087000003,None,right,1,0.24694540000018605,428.6059087000003,None,right,427.4043036000003,428.58947400000034,0.513883700000406,0.5972702999997637,1.7155574999997043,1.7989027000003261,0.4085863000000245,,,,,lucie_3,001,2020_Feb_06_1342,posner,3.1.5,59.99588428221086,
0.5,180,1,right,2,4,1,0,1,0,6,0,48,5,,,,,,,,,428.87370030000056,429.3738039,430.0914773000004,None,429.39054620000024,430.07453669999995,430.5923188000006,None,right,1,0.27664610000010725,430.5923188000006,None,None,429.39054620000024,430.57535350000035,0.5116570999998657,0.5950142000001506,1.7131878000000142,1.7969383999998172,,,,,,lucie_3,001,2020_Feb_06_1342,posner,3.1.5,59.99588428221086,
-0.5,0,1,left,1,3,1,0,1,0,6,1,49,2,,,,,,,,,430.89298529999996,431.39333090000036,432.1109398000008,None,431.41003100000034,432.0941900000007,432.61166350000076,None,left,1,0.23327419999986887,432.61166350000076,None,None,431.41003100000034,432.5948150000004,0.511961600000177,0.5952831000004153,1.7134329000000434,1.7971952999996574,,,,,,lucie_3,001,2020_Feb_06_1342,posner,3.1.5,59.99588428221086,
-0.5,0,1,left,1,3,1,0,1,0,6,2,50,1,,,,,,,,,432.8626755000005,433.36257300000034,434.0802375000003,None,433.3793918000001,434.06367390000014,434.58099240000047,None,left,1,0.3838771999999153,434.58099240000047,None,None,433.3793918000001,434.56414510000013,0.5115263999996387,0.5948904999995648,1.7130763999994087,1.7965672999998787,,,,,,lucie_3,001,2020_Feb_06_1342,posner,3.1.5,59.99588428221086,
0.5,0,0,right,1,4,1,0,1,0,6,3,51,3,,,,,,,,,434.9820492000008,435.4823997000003,436.1998583000004,None,435.4989968,436.1833365000002,436.70072000000073,None,right,1,0.29613570000037726,436.70072000000073,None,None,435.4989968,436.6837587,0.512023300000692,0.5952445000002626,1.713365500000691,1.7969182000006185,,,,,,lucie_3,001,2020_Feb_06_1342,posner,3.1.5,59.99588428221086,
0.5,180,1,right,2,4,1,0,1,0,6,4,52,7,,,,,,,,,437.0188783000003,437.5182444000002,438.2357746000007,None,437.53494480000063,438.2192085000006,438.73649300000034,None,right,1,0.3004657000001316,438.73649300000034,None,None,437.53494480000063,438.72004520000064,0.5113103999992745,0.5949070999995456,1.7130954999993264,1.7964272999997775,,,,,,lucie_3,001,2020_Feb_06_1342,posner,3.1.5,59.99588428221086,
-0.5,180,0,left,2,3,1,0,1,0,6,5,53,4,,,,,,,,,439.0540417000002,439.5543839000002,440.27222860000074,None,439.571234,440.2553880000005,440.77296860000024,None,left,1,0.2561124000003474,440.77296860000024,None,None,439.571234,440.75600570000006,0.5119324999996024,0.5955612999996447,1.7135414000003948,1.7971623000003092,,,,,,lucie_3,001,2020_Feb_06_1342,posner,3.1.5,59.99588428221086,
-0.5,0,1,left,1,3,1,0,1,0,6,6,54,0,,,,,,,,,441.0571419000007,441.55723149999994,442.27484820000063,None,441.5740986999999,442.25848420000057,442.77553740000076,None,left,1,0.2693317000002935,442.77553740000076,None,None,441.5740986999999,442.75899540000046,0.511603599999944,0.5949651999999332,1.713345300000583,1.7969473000002836,,,,,,lucie_3,001,2020_Feb_06_1342,posner,3.1.5,59.99588428221086,
0.5,180,1,right,2,4,1,0,1,0,6,7,55,6,,,,,,,,,443.0768214,443.5765513000006,444.2944049000007,None,443.5933012000005,444.27757700000075,444.79490090000036,None,right,1,0.31400049999956536,444.79490090000036,None,None,443.5933012000005,444.7783763000007,0.5112643000002208,0.5950939000003928,1.7130705000008675,1.7967085000000225,,,,,,lucie_3,001,2020_Feb_06_1342,posner,3.1.5,59.99588428221086,
-0.5,180,0,left,2,3,1,0,1,0,7,0,56,4,,,,,,,,,445.1298916000005,445.62964850000026,446.3472898,None,445.64609980000023,446.3305751000007,446.84840390000045,None,left,1,0.2524807999998302,446.84840390000045,None,None,445.64609980000023,446.83123010000054,0.5114215000003242,0.5946968000007473,1.71298730000035,1.7963533000001917,,,,,,lucie_3,001,2020_Feb_06_1342,posner,3.1.5,59.99588428221086,
-0.5,0,1,left,1,3,1,0,1,0,7,1,57,2,,,,,,,,,447.1318839000005,447.6323611000007,448.34986260000005,None,447.64896260000023,448.33350690000043,448.85078670000075,None,left,1,0.45021489999999176,448.85078670000075,None,None,447.64896260000023,448.8338480000002,0.5117956000003687,0.5952594999998837,1.7132665999997698,1.7967334000004485,,,,,,lucie_3,001,2020_Feb_06_1342,posner,3.1.5,59.99588428221086,
0.5,0,0,right,1,4,1,0,1,0,7,2,58,3,,,,,,,,,449.31886699999995,449.81872810000004,450.5361290999999,None,449.8351698000006,450.5196571000006,451.0368092000008,None,right,1,0.312031699999352,451.0368092000008,None,None,449.8351698000006,451.0202188000003,0.5115691000000879,0.5950374000003649,1.7130471000000398,1.7965984000002209,,,,,,lucie_3,001,2020_Feb_06_1342,posner,3.1.5,59.99588428221086,
0.5,180,1,right,2,4,1,0,1,0,7,3,59,6,,,,,,,,,451.3717912000002,451.8718105000007,452.58916600000066,None,451.8881917000008,452.5726620000005,453.0898044000005,None,right,1,0.2509978999996747,453.0898044000005,None,None,451.8881917000008,453.07323090000045,0.5119795000000522,0.5949183000002449,1.7133837999999741,1.7966666000002078,,,,,,lucie_3,001,2020_Feb_06_1342,posner,3.1.5,59.99588428221086,
-0.5,0,1,left,1,3,1,0,1,0,7,4,60,1,,,,,,,,,453.35761320000074,453.8577163,454.57503520000046,None,453.8742230000007,454.5585146000003,455.0758764000002,None,left,1,0.21706409999933385,455.0758764000002,None,None,453.8742230000007,455.0593862000005,0.5118695000001026,0.5951516000004631,1.7135236000003715,1.7968026999997164,,,,,,lucie_3,001,2020_Feb_06_1342,posner,3.1.5,59.99588428221086,
-0.5,0,1,left,1,3,1,0,1,0,7,5,61,0,,,,,,,,,455.31061240000054,455.8102736000001,456.52800130000014,None,455.8267325000006,456.51130420000027,457.0286049000006,None,left,1,0.2641877000005479,457.0286049000006,None,None,455.8267325000006,457.0121371000005,0.5114739999999074,0.5948396000003413,1.7133127000006425,1.7963545000002341,,,,,,lucie_3,001,2020_Feb_06_1342,posner,3.1.5,59.99588428221086,
0.5,180,1,right,2,4,1,0,1,0,7,6,62,7,,,,,,,,,457.31330010000056,457.81318400000055,458.5308229000002,None,457.82962860000043,458.5138799000006,459.0311317000005,None,right,1,0.27766430000065156,459.0311317000005,None,None,457.82962860000043,459.01442700000007,0.5118051999997988,0.5949435000002268,1.7130286000001433,1.7967218000003413,,,,,,lucie_3,001,2020_Feb_06_1342,posner,3.1.5,59.99588428221086,
0.5,180,1,right,2,4,1,0,1,0,7,7,63,5,,,,,,,,,459.3318201000002,459.8325726000003,460.5501989000004,None,459.84921010000016,460.53364469999997,461.0507554000005,None,right,1,0.26612350000050355,461.0507554000005,None,None,459.84921010000016,461.0339909000004,0.5117620999999417,0.5949185999998008,1.7131638000000748,1.7967088999994303,,,,,,lucie_3,001,2020_Feb_06_1342,posner,3.1.5,59.99588428221086,
0.5,180,1,right,2,4,1,0,1,0,8,0,64,6,,,,,,,,,461.33478920000016,461.83509720000075,462.55285790000016,None,461.85214630000064,462.5361554000001,463.0533905000002,None,right,1,0.3275359999997818,463.0533905000002,None,None,461.85214630000064,463.0367662000008,0.5110779000006005,0.5945394000000306,1.712727800000721,1.7963053000003129,,,,,,lucie_3,001,2020_Feb_06_1342,posner,3.1.5,59.99588428221086,
-0.5,0,1,left,1,3,1,0,1,0,8,1,65,2,,,,,,,,,463.40437890000067,463.9048204999999,464.6225129000004,None,463.9213027000005,464.6055543000002,465.12311840000075,None,left,1,0.36182800000005955,465.12311840000075,None,None,463.9213027000005,465.10631640000065,0.5122457999996186,0.595748700000513,1.713718500000141,1.7972891999997955,,,,,,lucie_3,001,2020_Feb_06_1342,posner,3.1.5,59.99588428221086,
-0.5,180,0,left,2,3,1,0,1,0,8,2,66,4,,,,,,,,,465.5085291000005,466.0081209,466.7253086999999,None,466.02416560000074,466.70865159999994,467.2259741000007,None,left,1,0.29112179999992804,467.2259741000007,None,None,466.02416560000074,467.2093850000001,0.5120374999996784,0.5951649999997244,1.7132775000000038,1.7966937000001053,,,,,,lucie_3,001,2020_Feb_06_1342,posner,3.1.5,59.99588428221086,
-0.5,0,1,left,1,3,1,0,1,0,8,3,67,0,,,,,,,,,467.5438586,468.04377420000037,468.7616484,None,468.0606020000005,468.7446706999999,469.2621902000001,None,left,1,0.27874640000027284,469.2621902000001,None,None,468.0606020000005,469.2454105000006,0.5116453000000547,0.5949098000000959,1.7132683999998335,1.796937699999944,,,,,,lucie_3,001,2020_Feb_06_1342,posner,3.1.5,59.99588428221086,
0.5,180,1,right,2,4,1,0,1,0,8,4,68,7,,,,,,,,,469.5633548000005,470.0632312000007,470.78084000000035,None,470.07990400000017,470.76426830000037,471.2815246,None,right,1,0.09945880000032048,471.2815246,None,None,470.07990400000017,471.2647084,0.5115921000005983,0.5949397000003955,1.7130489000001035,1.7966369000005216,,,,,,lucie_3,001,2020_Feb_06_1342,posner,3.1.5,59.99588428221086,
0.5,0,0,right,1,4,1,0,1,0,8,5,69,3,,,,,,,,,471.39880450000055,471.89932080000017,472.6167387000005,None,471.9156746000008,472.60005700000056,473.1174881000006,None,right,1,0.3913252999991528,473.1174881000006,None,None,471.9156746000008,473.1008474,0.5126178999998956,0.5960197000003973,1.71413130000019,1.797278600000027,,,,,,lucie_3,001,2020_Feb_06_1342,posner,3.1.5,59.99588428221086,
0.5,180,1,right,2,4,1,0,1,0,8,6,70,5,,,,,,,,,473.53509250000025,474.0352552000004,474.7530314000005,None,474.0519742000006,474.73616820000007,475.25364870000067,None,right,1,0.2791620999996667,475.25364870000067,None,None,474.0519742000006,475.2368282000007,0.5116227999997136,0.5952839000001404,1.7131782999995266,1.7969101999997292,,,,,,lucie_3,001,2020_Feb_06_1342,posner,3.1.5,59.99588428221086,
-0.5,0,1,left,1,3,1,0,1,0,8,7,71,1,,,,,,,,,475.55444460000035,476.05471710000074,476.77256600000055,None,476.07146020000073,476.75568509999994,477.2734997000007,None,left,1,0.23525379999955476,477.2734997000007,None,None,476.07146020000073,477.2563841000001,0.5118182999995042,0.5953610999995362,1.7134710999998788,1.7970618999997896,,,,,,lucie_3,001,2020_Feb_06_1342,posner,3.1.5,59.99588428221086,
-0.5,0,1,left,1,3,1,0,1,0,9,0,72,0,,,,,,,,,477.5244818000001,478.02402320000056,478.74190870000075,None,478.0409845000004,478.72520090000035,479.2427095000003,None,left,1,0.362227200000234,479.2427095000003,None,None,478.0409845000004,479.22574950000035,0.5111633000005895,0.5948032000005696,1.7128755000003366,1.7966476000001421,,,,,,lucie_3,001,2020_Feb_06_1342,posner,3.1.5,59.99588428221086,
-0.5,0,1,left,1,3,1,0,1,0,9,1,73,2,,,,,,,,,479.6273680000004,480.1270265000003,480.8446636000008,None,480.14367240000047,480.82796940000026,481.3454743000002,None,left,1,0.28353690000039933,481.3454743000002,None,None,480.14367240000047,481.32891330000075,0.5113701000000219,0.5951937999998336,1.7132041000004392,1.7964689000000362,,,,,,lucie_3,001,2020_Feb_06_1342,posner,3.1.5,59.99588428221086,
0.5,180,1,right,2,4,1,0,1,0,9,2,74,6,,,,,,,,,481.64660490000006,482.1464984000004,482.8640479000005,None,482.1633683,482.8473182000007,483.36468950000017,None,right,1,0.3681613999997353,483.36468950000017,None,None,482.1633683,483.3483513000001,0.5113193999995929,0.5949544999994032,1.7131491000000096,1.796593899999607,,,,,,lucie_3,001,2020_Feb_06_1342,posner,3.1.5,59.99588428221086,
-0.5,0,1,left,1,3,1,0,1,0,9,3,75,1,,,,,,,,,483.74975990000075,484.2494449000005,484.96716840000045,None,484.26612750000004,484.9503220000006,485.46807510000053,None,left,1,0.25686709999990853,485.46807510000053,None,None,484.26612750000004,485.45115630000055,0.5114714000001186,0.5950734999996712,1.7131690999995044,1.7964752999996563,,,,,,lucie_3,001,2020_Feb_06_1342,posner,3.1.5,59.99588428221086,
0.5,0,0,right,1,4,1,0,1,0,9,4,76,3,,,,,,,,,485.7521867000005,486.2523305000004,486.96982170000047,None,486.26893240000027,486.9533302,487.4706236000002,None,right,1,0.22244510000018636,487.4706236000002,None,None,486.26893240000027,487.45392470000024,0.5116394000006039,0.5949357999998028,1.7132183000003351,1.7966761000006954,,,,,,lucie_3,001,2020_Feb_06_1342,posner,3.1.5,59.99588428221086,
-0.5,180,0,left,2,3,1,0,1,0,9,5,77,4,,,,,,,,,487.7215169000001,488.22168630000033,488.93916290000016,None,488.23839750000025,488.92290820000017,489.4400871000007,None,left,1,0.3568676000004416,489.4400871000007,None,None,488.23839750000025,489.42329210000025,0.5118262000005416,0.5951497000005475,1.7134151999998721,1.7971478999997998,,,,,,lucie_3,001,2020_Feb_06_1342,posner,3.1.5,59.99588428221086,
0.5,180,1,right,2,4,1,0,1,0,9,6,78,7,,,,,,,,,489.8246893000005,490.3244622000002,491.04221790000065,None,490.3413655000004,491.02542859999994,491.5429961,None,right,1,0.45380999999997584,491.5429961,None,None,490.3413655000004,491.5262706000003,0.5114482999997563,0.5951370000002498,1.7132394999998724,1.7965923000001567,,,,,,lucie_3,001,2020_Feb_06_1342,posner,3.1.5,59.99588428221086,
0.5,180,1,right,2,4,1,0,1,0,9,7,79,5,,,,,,,,,492.0273788000004,492.5275233000002,493.24519469999996,None,492.5443057000002,493.2285944000005,493.7459004000002,492.0273788000004,right,1,0.2589576999998826,493.7459004000002,None,None,492.5443057000002,493.7290963000005,0.5113953000000038,0.59496130000025,1.7129230999998981,1.7965186999999787,,,,,,lucie_3,001,2020_Feb_06_1342,posner,3.1.5,59.99588428221086,
-0.5,180,0,left,2,3,1,0,1,0,10,0,80,4,,,,,,,,,494.0305189999999,494.5303186000001,495.2482260000006,None,494.5468832000006,495.2312892,495.74857040000006,None,left,1,0.2404774999995425,495.74857040000006,None,None,494.5468832000006,495.7321726,0.5114118000001326,0.5949610999996366,1.7132374000002528,1.796480199999678,,,,,,lucie_3,001,2020_Feb_06_1342,posner,3.1.5,59.99588428221086,
0.5,180,1,right,2,4,1,0,1,0,10,1,81,6,,,,,,,,,496.01627650000046,496.5163190000003,497.23399060000065,None,496.5331842000005,497.21736950000013,497.73490160000074,None,right,1,0.22197109999979148,497.73490160000074,None,None,496.5331842000005,497.7179451000002,0.5115178000005471,0.5950775999999678,1.7131279000004724,1.7966684000002715,,,,,,lucie_3,001,2020_Feb_06_1342,posner,3.1.5,59.99588428221086,
0.5,180,1,right,2,4,1,0,1,0,10,2,82,7,,,,,,,,,497.9857303000008,498.48562519999996,499.2035968,None,498.5025335,499.1867813000008,499.7041635000005,None,right,1,0.17280630000004749,499.7041635000005,None,None,498.5025335,499.6873108,0.5114929000001212,0.5950889000005191,1.7131564000001163,1.7967311000002155,,,,,,lucie_3,001,2020_Feb_06_1342,posner,3.1.5,59.99588428221086,
-0.5,0,1,left,1,3,1,0,1,0,10,3,83,1,,,,,,,,,499.9048879000002,500.4048855000001,501.1228948000007,None,500.42174670000077,501.10585530000026,501.6234568,None,left,1,0.2454035999999178,501.6234568,None,None,500.42174670000077,501.6066969000003,0.5114839999996548,0.5950622000000294,1.7132738000000245,1.796784999999545,,,,,,lucie_3,001,2020_Feb_06_1342,posner,3.1.5,59.99588428221086,
0.5,180,1,right,2,4,1,0,1,0,10,4,84,5,,,,,,,,,501.8913687000004,502.3912500000006,503.1091054000008,None,502.4079416000004,503.09217850000005,503.6098002000008,None,right,1,0.2669620999995459,503.6098002000008,None,None,502.4079416000004,503.5930864000002,0.511627299999418,0.5948469999993904,1.7134474999993472,1.7964556999995693,,,,,,lucie_3,001,2020_Feb_06_1342,posner,3.1.5,59.99588428221086,
-0.5,0,1,left,1,3,1,0,1,0,10,5,85,0,,,,,,,,,503.89370750000035,504.39389090000077,505.11153060000015,None,504.4107526000007,505.0950195000005,505.61254420000023,None,left,1,0.14448259999971924,505.61254420000023,None,None,504.4107526000007,505.5955666,0.5117393000000448,0.5950547000002189,1.7134040000000823,1.796997200000078,,,,,,lucie_3,001,2020_Feb_06_1342,posner,3.1.5,59.99588428221086,
-0.5,0,1,left,1,3,1,0,1,0,10,6,86,2,,,,,,,,,505.77981400000044,506.28000900000006,506.99779900000067,None,506.2963995,506.98070590000043,507.4984039000001,None,right,0,0.13850010000078328,507.4984039000001,None,None,506.2963995,507.48163470000054,0.5120270000006713,0.5954233000002205,1.7136366000004273,1.7968843000007837,,,,,,lucie_3,001,2020_Feb_06_1342,posner,3.1.5,59.99588428221086,
0.5,0,0,right,1,4,1,0,1,0,10,7,87,3,,,,,,,,,507.66556220000075,508.1656720000001,508.8834483999999,None,508.18262890000005,508.8667578000004,509.38421950000065,None,right,1,0.2686649999996007,509.38421950000065,None,None,508.18262890000005,509.36726739999995,0.5115802000000258,0.5951985000001514,1.713155800000095,1.7967631000001347,,,,,,lucie_3,001,2020_Feb_06_1342,posner,3.1.5,59.99588428221086,
,,,,,,1,0,1,0,,,,,,,,,,,,,,,,,,,,,,,,,,,,,,,,,,509.6680862000003,None,1.6899999536690302e-05,0.9961726000001363,lucie_3,001,2020_Feb_06_1342,posner,3.1.5,59.99588428221086,
0.5,180,1,right,2,4,2,0,2,0,0,0,0,6,1.140000040322775e-05,0.09742030000052182,570.6852213000002,None,1.4700000065204222e-05,0.09749560000000201,572.7883767000003,None,573.0604820000008,573.5558497000002,574.2738956000003,None,573.5728928000008,574.2569479000003,574.7742664000007,None,right,1,0.21459599999980128,574.7742664000007,None,None,573.5728928000008,574.7580017,0.5042911000000458,0.5879480000003241,1.7064312000002246,1.7897227000003113,,,,,,lucie_3,001,2020_Feb_06_1342,posner,3.1.5,59.99588428221086,
-0.5,180,0,left,2,3,2,0,2,0,0,1,1,4,,,,,,,,,575.0092694000004,575.5088716,576.2262356000001,None,575.5253779000004,576.2098592000002,576.7269040000001,None,left,1,0.27011100000072474,576.7269040000001,None,None,575.5253779000004,576.7107209000005,0.5108139000003575,0.5941705000004731,1.7126385999999911,1.7958728000003248,,,,,,lucie_3,001,2020_Feb_06_1342,posner,3.1.5,59.99588428221086,
0.5,180,1,right,2,4,2,0,2,0,0,2,2,5,,,,,,,,,577.0281580999999,577.5281738000003,578.2457877000006,None,577.5447313000004,578.2293329000004,578.7466030000005,None,right,1,0.23422180000034132,578.7466030000005,None,None,577.5447313000004,578.7298100000007,0.5115968999998586,0.5951807999999801,1.7132210999998279,1.7967274999991787,,,,,,lucie_3,001,2020_Feb_06_1342,posner,3.1.5,59.99588428221086,
-0.5,0,1,left,1,3,2,0,2,0,0,3,3,1,,,,,,,,,578.9975678000001,579.4976192000004,580.2150467000001,None,579.5143051000005,580.1986051000003,580.7158183000001,None,left,1,0.2011050000000978,580.7158183000001,None,None,579.5143051000005,580.6992800000007,0.5114309000000503,0.5948414999993474,1.7130706999996619,1.796582899999521,,,,,,lucie_3,001,2020_Feb_06_1342,posner,3.1.5,59.99588428221086,
0.5,180,1,right,2,4,2,0,2,0,0,4,4,7,,,,,,,,,580.9334706,581.4334906000004,582.1512622,None,581.4503676000004,582.1343696000004,582.6520140000002,None,right,1,0.19300090000069758,582.6520140000002,None,None,581.4503676000004,582.6352695000005,0.5117220000001907,0.5950513999996474,1.7134816999996474,1.796763700000156,,,,,,lucie_3,001,2020_Feb_06_1342,posner,3.1.5,59.99588428221086,
-0.5,0,1,left,1,3,2,0,2,0,0,5,5,0,,,,,,,,,582.8698852000007,583.3696411000001,584.0870774000005,None,583.3863083000006,584.0705889999999,584.5878841000003,None,left,1,0.19301050000012765,584.5878841000003,None,None,583.3863083000006,584.5711622000008,0.5115491999995356,0.5949856999995973,1.713053100000252,1.796456600000056,,,,,,lucie_3,001,2020_Feb_06_1342,posner,3.1.5,59.99588428221086,
-0.5,0,1,left,1,3,2,0,2,0,0,6,6,2,,,,,,,,,584.8056366000001,585.3054190000003,586.0233686000001,None,585.3221248,586.0069959000002,586.5239124,587.0085175000004,None,0,,586.5239124,None,None,585.3221248,586.5077504999999,0.511287799999991,0.5950529000001552,1.7135995999997249,1.7965435999994952,,,,,,lucie_3,001,2020_Feb_06_1342,posner,3.1.5,59.99588428221086,
0.5,0,0,right,1,4,2,0,2,0,0,7,7,3,,,,,,,,,587.5088365000001,588.0096624000007,588.7268762000003,587.5088365000001,588.0260747000002,588.7104589,589.2275416000002,None,right,1,0.2735253000000739,589.2275416000002,None,None,588.0260747000002,589.2109885,0.5139418000007936,0.5970013000005565,1.7152549000002182,1.798546300000453,,,,,,lucie_3,001,2020_Feb_06_1342,posner,3.1.5,59.99588428221086,
-0.5,0,1,left,1,3,2,0,2,0,1,0,8,0,,,,,,,,,589.5283374,590.0288780000001,590.7462476999999,None,590.0453182000001,590.7298065000004,591.2470794999999,None,left,1,0.2538886000002094,591.2470794999999,None,None,590.0453182000001,591.2304544000008,0.5123750000002474,0.5957269999998971,1.7139362999996592,1.7974487999999837,,,,,,lucie_3,001,2020_Feb_06_1342,posner,3.1.5,59.99588428221086,
-0.5,0,1,left,1,3,2,0,2,0,1,1,9,2,,,,,,,,,591.5309311999999,592.0316521000004,592.7491596,None,592.0483059000007,592.7326217,593.2498570000007,None,left,1,-0.004998400000658876,593.2498570000007,None,None,592.0483059000007,593.2331314000003,0.512155200000052,0.5953308999996807,1.71360470000036,None,,,,,,lucie_3,001,2020_Feb_06_1342,posner,3.1.5,59.99588428221086,
0.5,0,0,right,1,4,2,0,2,0,1,2,10,3,,,,,,,,,593.267374,593.7671888000004,594.4848380000003,None,593.7839316,594.4682752000008,594.9854061000005,None,right,1,0.2435827999997855,594.9854061000005,None,None,593.7839316,594.9691184000003,0.5115510000005088,0.5949439000005441,1.7134701000004497,1.796842500000821,,,,,,lucie_3,001,2020_Feb_06_1342,posner,3.1.5,59.99588428221086,
0.5,180,1,right,2,4,2,0,2,0,1,3,11,5,,,,,,,,,595.2532049000001,595.7534617000001,596.4710161000003,None,595.7701393000007,596.4542039000007,596.9716811000008,None,right,1,0.25719670000034967,596.9716811000008,None,None,595.7701393000007,596.9548299000007,0.5118648999996367,0.5949551000003339,1.7132173999998486,1.7969057000000248,,,,,,lucie_3,001,2020_Feb_06_1342,posner,3.1.5,59.99588428221086,
-0.5,180,0,left,2,3,2,0,2,0,1,4,12,4,,,,,,,,,597.255357,597.7559722000005,598.4737899000002,None,597.7727251000006,598.4569288000002,598.9742480000004,None,right,0,0.20675979999941774,598.9742480000004,None,None,597.7727251000006,598.9576996000005,0.5122327000008227,0.5958752000005916,1.7139415999999983,1.797550800000863,,,,,,lucie_3,001,2020_Feb_06_1342,posner,3.1.5,59.99588428221086,
-0.5,0,1,left,1,3,2,0,2,0,1,5,13,1,,,,,,,,,599.2090533999999,599.7088805000003,600.4263230000006,None,599.7254017000005,600.4098135000004,600.9270784,None,left,1,0.2857739999999467,600.9270784,None,None,599.7254017000005,600.9106011000003,0.5115806000003431,0.5949850000006336,1.7132832000006601,1.7964085000003251,,,,,,lucie_3,001,2020_Feb_06_1342,posner,3.1.5,59.99588428221086,
0.5,180,1,right,2,4,2,0,2,0,1,6,14,6,,,,,,,,,601.2285643000005,601.7280713,602.4457621000001,None,601.7448575000008,602.4292538,602.9464011,None,right,1,0.1145554999993692,602.9464011,None,None,601.7448575000008,602.9300867000002,0.5113498999999138,0.5952697000002445,1.713348500000393,1.7966253000004144,,,,,,lucie_3,001,2020_Feb_06_1342,posner,3.1.5,59.99588428221086,
0.5,180,1,right,2,4,2,0,2,0,1,7,15,7,,,,,,,,,603.0811982000005,603.5807739000002,604.2984762000006,None,603.5974695000004,604.2818133000001,604.7991523000001,None,right,1,0.23770630000035453,604.7991523000001,None,None,603.5974695000004,604.7824965,0.5111938000000009,0.5945938000004389,1.7129052999998748,1.7962876000001415,,,,,,lucie_3,001,2020_Feb_06_1342,posner,3.1.5,59.99588428221086,
-0.5,0,1,left,1,3,2,0,2,0,2,0,16,0,,,,,,,,,605.0679335000004,605.5666980000005,606.2845366000001,None,605.5833662000005,606.2679803999999,606.7850310000003,None,left,1,0.22783410000010917,606.7850310000003,None,None,605.5833662000005,606.7685696000008,0.5104141000001619,0.5939986000003046,1.712268000000222,1.7958494000004066,,,,,,lucie_3,001,2020_Feb_06_1342,posner,3.1.5,59.99588428221086,
-0.5,0,1,left,1,3,2,0,2,0,2,1,17,1,,,,,,,,,607.0360433000005,607.5362676000004,608.2537609000001,None,607.5529927000007,608.2370524000007,608.7544486000006,None,left,1,0.2664235000002009,608.7544486000006,None,None,607.5529927000007,608.7377839999999,0.5115535000004456,0.5952124000004915,1.713052900000548,1.796621700000287,,,,,,lucie_3,001,2020_Feb_06_1342,posner,3.1.5,59.99588428221086,
0.5,180,1,right,2,4,2,0,2,0,2,2,18,5,,,,,,,,,609.0387370000008,609.5388198999999,610.2566485000007,None,609.5557681,610.2400696000004,610.7573751,None,right,1,0.30340009999963513,610.7573751,None,None,609.5557681,610.7407845000007,0.5120499000004202,0.5958724000001894,1.7139898000004905,1.7973030000002836,,,,,,lucie_3,001,2020_Feb_06_1342,posner,3.1.5,59.99588428221086,
-0.5,0,1,left,1,3,2,0,2,0,2,3,19,2,,,,,,,,,611.0915553000004,611.5921089000003,612.3095172000003,None,611.6086543000001,612.2928453000004,612.8102998000004,None,left,1,0.4106573999997636,612.8102998000004,None,left,611.6086543000001,612.7935502,0.5119719999993322,0.59516050000002,1.7134024999995745,1.7966515999996773,1.116291999999703,,,,,lucie_3,001,2020_Feb_06_1342,posner,3.1.5,59.99588428221086,
0.5,180,1,right,2,4,2,0,2,0,2,4,20,6,,,,,,,,,613.2446069000007,613.7446639,614.4624349000005,None,613.7616211000004,614.4456630000004,614.9635204000006,None,left,0,0.29732379999950354,614.9635204000006,None,None,613.7616211000004,614.9464170000001,0.5116029000000708,0.5953148999997211,1.7133420999998634,1.7968929999997272,,,,,,lucie_3,001,2020_Feb_06_1342,posner,3.1.5,59.99588428221086,
0.5,0,0,right,1,4,2,0,2,0,2,5,21,3,,,,,,,,,615.2809215000007,615.7808233000005,616.4988346,None,615.7975743000006,616.4820635000005,616.9992984999999,None,right,1,0.2537071000006108,616.9992984999999,None,None,615.7975743000006,616.9828009000003,0.5115400000004229,0.5950603999999657,1.7134937999999238,1.7967194000002564,,,,,,lucie_3,001,2020_Feb_06_1342,posner,3.1.5,59.99588428221086,
0.5,180,1,right,2,4,2,0,2,0,2,6,22,7,,,,,,,,,617.2835447000007,617.7836879000006,618.5015382000001,None,617.8003784000002,618.4845101999999,619.0020702000002,None,left,0,0.13083129999995435,619.0020702000002,None,None,617.8003784000002,618.9851429,0.5115193000001454,0.5949855999997453,1.7129605999998603,1.7966464000000997,,,,,,lucie_3,001,2020_Feb_06_1342,posner,3.1.5,59.99588428221086,
-0.5,180,0,left,2,3,2,0,2,0,2,7,23,4,,,,,,,,,619.1529203,619.6531058,620.3708821,None,619.6697689000002,620.3538299000002,620.8715812,None,right,0,0.1653335999999399,620.8715812,None,None,619.6697689000002,620.8548747000004,0.5117928999998185,0.5949424000000363,1.7135480999995707,1.7968599999994694,,,,,,lucie_3,001,2020_Feb_06_1342,posner,3.1.5,59.99588428221086,
-0.5,0,1,left,1,3,2,0,2,0,3,0,24,1,,,,,,,,,621.0549276000002,621.5555133000007,622.2733518000005,None,621.5723604000004,622.2564156000008,622.7739842999999,None,left,1,0.26287649999994755,622.7739842999999,None,None,621.5723604000004,622.7572171000002,0.5121723000002021,0.5959278000000268,1.7138519000000088,1.7972462999996424,,,,,,lucie_3,001,2020_Feb_06_1342,posner,3.1.5,59.99588428221086,
0.5,180,1,right,2,4,2,0,2,0,3,1,25,6,,,,,,,,,623.0587292,623.5583528000006,624.2759111000005,None,623.5750284000005,624.2593713000006,624.7765192000006,None,right,1,0.1962909000003492,624.7765192000006,None,None,623.5750284000005,624.7601793000003,0.5114094999998997,0.5948388000006162,1.7132126000005883,1.7964613000003737,,,,,,lucie_3,001,2020_Feb_06_1342,posner,3.1.5,59.99588428221086,
-0.5,180,0,left,2,3,2,0,2,0,3,2,26,4,,,,,,,,,624.9942545000004,625.4941736000001,626.2122422000002,None,625.5110817000004,626.1951971000008,626.7128394000001,None,left,1,0.2839603000002171,626.7128394000001,None,None,625.5110817000004,626.6958426000001,0.5114927000004172,0.5951185000003534,1.7131399999998393,1.7966979000002539,,,,,,lucie_3,001,2020_Feb_06_1342,posner,3.1.5,59.99588428221086,
0.5,180,1,right,2,4,2,0,2,0,3,3,27,5,,,,,,,,,627.0136393000002,627.5138638000008,628.2313428000007,None,627.5304563,628.2145372000004,628.7322271000003,None,right,1,0.24875890000021172,628.7322271000003,None,None,627.5304563,628.7154621,0.5118019000001368,0.5951414999999542,1.7133880999999747,1.7968811999999161,,,,,,lucie_3,001,2020_Feb_06_1342,posner,3.1.5,59.99588428221086,
-0.5,0,1,left,1,3,2,0,2,0,3,4,28,2,,,,,,,,,628.9998080000005,629.5000077000004,630.2174174000002,None,629.5165606,630.2008578000004,630.7184181000002,None,left,1,0.30241770000066026,630.7184181000002,None,None,629.5165606,630.7016352999999,0.5116016000001764,0.5948602999997092,1.7132167999998273,1.7964266999997562,,,,,,lucie_3,001,2020_Feb_06_1342,posner,3.1.5,59.99588428221086,
-0.5,0,1,left,1,3,2,0,2,0,3,5,29,0,,,,,,,,,631.0523663000004,631.5527802000006,632.2704231000007,None,631.5694203000003,632.2536070000006,632.7711411,None,left,1,0.3217461000003823,632.7711411,None,None,631.5694203000003,632.7542071000007,0.5118363000001409,0.5951039999999921,1.7132480000000214,1.7967564000000493,,,,,,lucie_3,001,2020_Feb_06_1342,posner,3.1.5,59.99588428221086,
0.5,180,1,right,2,4,2,0,2,0,3,6,30,7,,,,,,,,,633.1221621000004,633.6223743999999,634.3398827000001,None,633.6389681999999,634.3233571000001,634.8406013000003,None,right,1,0.3404798000001392,634.8406013000003,None,None,633.6389681999999,634.8240658000004,0.5118839999995544,0.594990699999471,1.7135637999999744,1.7969144999997297,,,,,,lucie_3,001,2020_Feb_06_1342,posner,3.1.5,59.99588428221086,
0.5,0,0,right,1,4,2,0,2,0,3,7,31,3,,,,,,,,,635.2083582000005,635.7084832,636.4261111000005,None,635.7250987000007,636.4097327,636.9266901999999,None,right,1,0.3103504000000612,636.9266901999999,None,None,635.7250987000007,636.9102221000003,0.5117212000004656,0.5953061999998681,1.7134474000004047,1.7967822999999044,,,,,,lucie_3,001,2020_Feb_06_1342,posner,3.1.5,59.99588428221086,
0.5,0,0,right,1,4,2,0,2,0,4,0,32,3,,,,,,,,,637.2611487000004,637.7614499000001,638.4789968000005,None,637.7779328000006,638.4622697000004,638.9799225000006,None,right,1,0.30505470000025525,638.9799225000006,None,None,637.7779328000006,638.9630624000001,0.5118505999998888,0.5949854999998934,1.7134477999998126,1.7967060999999376,,,,,,lucie_3,001,2020_Feb_06_1342,posner,3.1.5,59.99588428221086,
0.5,180,1,right,2,4,2,0,2,0,4,1,33,5,,,,,,,,,639.3143442999999,639.8140615000002,640.5319420000005,None,639.8308894000002,640.5150462000001,641.0323668999999,None,right,1,0.19658929999968677,641.0323668999999,None,None,639.8308894000002,641.0156356000007,0.5114684000000125,0.594896399999925,1.7130302999994456,1.796741000000111,,,,,,lucie_3,001,2020_Feb_06_1342,posner,3.1.5,59.99588428221086,
0.5,180,1,right,2,4,2,0,2,0,4,2,34,7,,,,,,,,,641.2502699000006,641.7501558000004,642.4677365000007,None,641.7667412999999,642.4512324000007,642.968476,None,right,1,0.2684801999994306,642.968476,None,None,641.7667412999999,642.9517417000006,0.5113511999998082,0.5947692999998253,1.7129239000005327,1.796254300000328,,,,,,lucie_3,001,2020_Feb_06_1342,posner,3.1.5,59.99588428221086,
-0.5,0,1,left,1,3,2,0,2,0,4,3,35,2,,,,,,,,,643.2526508999999,643.7530264000006,644.4704037000001,None,643.7697881000004,644.4539346000001,644.9712636000004,None,left,1,0.2975935999993453,644.9712636000004,None,None,643.7697881000004,644.9543443000002,0.5118924999997034,0.5953761000000668,1.7131978999996136,1.7967664999996487,,,,,,lucie_3,001,2020_Feb_06_1342,posner,3.1.5,59.99588428221086,
0.5,180,1,right,2,4,2,0,2,0,4,4,36,6,,,,,,,,,645.2886576000001,645.7890484,646.5070371000002,None,645.8055698000007,646.4898170000006,647.0079225,None,right,1,0.21307840000008582,647.0079225,None,None,645.8055698000007,646.9906820000006,0.5122793000000456,0.5958676000000196,1.713889300000119,1.7971612000001187,,,,,,lucie_3,001,2020_Feb_06_1342,posner,3.1.5,59.99588428221086,
-0.5,180,0,left,2,3,2,0,2,0,4,5,37,4,,,,,,,,,647.2415878000002,647.7417785000007,648.4596350000002,None,647.7585584000008,648.4427699000007,648.9601171000004,None,left,1,0.2848920000005819,648.9601171000004,None,None,647.7585584000008,648.9431700000005,0.5117067000001043,0.5949585000007573,1.713086600000679,1.7967304000003423,,,,,,lucie_3,001,2020_Feb_06_1342,posner,3.1.5,59.99588428221086,
-0.5,0,1,left,1,3,2,0,2,0,4,6,38,1,,,,,,,,,649.2611842000006,649.7614329000007,650.4788232999999,None,649.7779331000002,650.4622561000006,650.9795246000003,None,left,1,0.24951539999983652,650.9795246000003,None,None,649.7779331000002,650.9628736000004,0.5119004999996832,0.5949810000001889,1.7133293999995658,1.796627400000034,,,,,,lucie_3,001,2020_Feb_06_1342,posner,3.1.5,59.99588428221086,
-0.5,0,1,left,1,3,2,0,2,0,4,7,39,0,,,,,,,,,651.2466122000005,651.7472727000004,652.4649804000001,None,651.7638606,652.4482390000003,652.9654913000004,None,left,1,0.2634973000003811,652.9654913000004,None,None,651.7638606,652.9490236000001,0.5114831000000777,0.5948426000004474,1.713205800000651,1.7965848000003461,,,,,,lucie_3,001,2020_Feb_06_1342,posner,3.1.5,59.99588428221086,
0.5,180,1,right,2,4,2,0,2,0,5,0,40,7,,,,,,,,,653.2501151000006,653.7500696000006,654.4676674000002,None,653.7667126000006,654.4511066000005,654.9686607000003,None,right,1,0.28417850000005274,654.9686607000003,None,None,653.7667126000006,654.9517093000004,0.5113444999997228,0.5948036999998294,1.71297179999965,1.796468300000015,,,,,,lucie_3,001,2020_Feb_06_1342,posner,3.1.5,59.99588428221086,
0.5,180,1,right,2,4,2,0,2,0,5,1,41,5,,,,,,,,,655.2695475999999,655.7696567000003,656.4869784000002,None,655.7860586000006,656.4705133000007,656.9878676000008,None,left,0,0.26517489999969257,656.9878676000008,None,None,655.7860586000006,656.9712314000008,0.5116281999999046,0.5949258000000555,1.7131867999996757,1.7964256999994177,,,,,,lucie_3,001,2020_Feb_06_1342,posner,3.1.5,59.99588428221086,
0.5,180,1,right,2,4,2,0,2,0,5,2,42,6,,,,,,,,,657.2719797,657.7722623,658.4897243000005,None,657.7891084000003,658.4733670000005,658.9905881000004,None,right,1,0.2544049999996787,658.9905881000004,None,None,657.7891084000003,658.9738620000007,0.5117385999992621,0.5950150999997277,1.7133223000000726,1.7968422999992981,,,,,,lucie_3,001,2020_Feb_06_1342,posner,3.1.5,59.99588428221086,
-0.5,0,1,left,1,3,2,0,2,0,5,3,43,0,,,,,,,,,659.2747578000008,659.7748531000007,660.4927544000002,None,659.7918497999999,660.4757999000003,660.9934763000001,None,left,1,0.32366040000033536,660.9934763000001,None,None,659.7918497999999,660.9765229000004,0.5114434999995865,0.5951124000002892,1.7130951999997706,1.7968117000000348,,,,,,lucie_3,001,2020_Feb_06_1342,posner,3.1.5,59.99588428221086,
0.5,0,0,right,1,4,2,0,2,0,5,4,44,3,,,,,,,,,661.3441054000004,661.8446737000004,662.5623084000008,None,661.8612376000001,662.5454629000005,663.0629276,None,right,1,0.21407300000009855,663.0629276,None,None,661.8612376000001,663.0461219000008,0.512316300000748,0.59554449999996,1.713749800000187,1.7974128000005294,,,,,,lucie_3,001,2020_Feb_06_1342,posner,3.1.5,59.99588428221086,
-0.5,0,1,left,1,3,2,0,2,0,5,5,45,1,,,,,,,,,663.2973923,663.7970977000004,664.5147433000002,None,663.8137937000001,664.4984208000005,665.0155185000003,None,left,1,0.3175909000001411,665.0155185000003,None,None,663.8137937000001,664.9992796000006,0.5114289000002827,0.5949746999995114,1.7135901000001468,1.7967141999997693,,,,,,lucie_3,001,2020_Feb_06_1342,posner,3.1.5,59.99588428221086,
-0.5,180,0,left,2,3,2,0,2,0,5,6,46,4,,,,,,,,,665.3500561000001,665.8500173000002,666.5678218000003,None,665.8666818000002,666.5510590000004,667.0684795000006,None,left,1,0.32851099999970756,667.0684795000006,None,None,665.8666818000002,667.0517338,0.5115182999998069,0.5951251000005868,1.713212000000567,1.7966708000003564,,,,,,lucie_3,001,2020_Feb_06_1342,posner,3.1.5,59.99588428221086,
-0.5,0,1,left,1,3,2,0,2,0,5,7,47,2,,,,,,,,,667.4199255000003,667.9198357000005,668.6371242000005,None,667.9361214,668.6205102000004,669.1382051999999,None,left,1,0.29869830000006914,669.1382051999999,None,None,667.9361214,669.1213318,0.5116668000000573,0.5948953000006441,1.713146200000665,1.7962891000006493,,,,,,lucie_3,001,2020_Feb_06_1342,posner,3.1.5,59.99588428221086,
0.5,0,0,right,1,4,2,0,2,0,6,0,48,3,,,,,,,,,669.4557379000007,669.9555770000006,670.6734178000006,None,669.9724488000002,670.6566284999999,671.1741310000007,None,right,1,0.2867729999998119,671.1741310000007,None,None,669.9724488000002,671.1574710000004,0.5113836000000447,0.5951494000000821,1.7132589000002554,1.7966199000002234,,,,,,lucie_3,001,2020_Feb_06_1342,posner,3.1.5,59.99588428221086,
-0.5,0,1,left,1,3,2,0,2,0,6,1,49,1,,,,,,,,,671.4915583000002,671.9920127000005,672.7096070000007,None,672.0088588000008,672.6929042000002,673.2103748,None,left,1,0.27450599999974656,673.2103748,None,None,672.0088588000008,673.1933967000004,0.5119491000004928,0.5951079000005848,1.7133051000000705,1.7969023000005109,,,,,,lucie_3,001,2020_Feb_06_1342,posner,3.1.5,59.99588428221086,
0.5,180,1,right,2,4,2,0,2,0,6,2,50,6,,,,,,,,,673.5116085,674.0113976000002,674.7289415000005,None,674.0282461000006,674.7123688000001,675.2297194000002,None,right,1,0.23941369999920425,675.2297194000002,None,None,674.0282461000006,675.2130153000007,0.511665300000459,0.5949184000000969,1.71327250000013,1.796718200000214,,,,,,lucie_3,001,2020_Feb_06_1342,posner,3.1.5,59.99588428221086,
0.5,180,1,right,2,4,2,0,2,0,6,3,51,7,,,,,,,,,675.4975889000007,675.9973196999999,676.7149219000003,None,676.0141493000001,676.6984936000008,677.2156621000004,None,right,1,0.2691643000007389,677.2156621000004,None,None,676.0141493000001,677.1990718000006,0.5114950999995926,0.594959199999721,1.7132265000000189,1.7967476999992869,,,,,,lucie_3,001,2020_Feb_06_1342,posner,3.1.5,59.99588428221086,
-0.5,180,0,left,2,3,2,0,2,0,6,4,52,4,,,,,,,,,677.5169149000003,678.0166464000004,678.734383,None,678.0336691000002,678.7178649000007,679.2350137000003,None,right,0,0.12181860000055167,679.2350137000003,None,None,678.0336691000002,679.2186268000005,0.5112239999998565,0.5948407999994743,1.7131821000002674,1.796542099999897,,,,,,lucie_3,001,2020_Feb_06_1342,posner,3.1.5,59.99588428221086,
-0.5,0,1,left,1,3,2,0,2,0,6,5,53,0,,,,,,,,,679.3863060000003,679.8860285000001,680.6037145,None,679.9028315000005,680.5869434000006,681.1044730000003,None,left,1,0.2843001000001095,681.1044730000003,None,None,679.9028315000005,681.0883990000002,0.511368799999218,0.594765699999698,1.7137191999991046,1.7963851999993494,,,,,,lucie_3,001,2020_Feb_06_1342,posner,3.1.5,59.99588428221086,
-0.5,0,1,left,1,3,2,0,2,0,6,6,54,2,,,,,,,,,681.4051899000006,681.9054307000006,682.6233930000008,None,681.9222868000006,682.6065341000003,683.1238759000007,None,right,0,0.14503100000001723,683.1238759000007,None,None,681.9222868000006,683.1073060000008,0.5112120000003415,0.5948231000002124,1.7130753000001278,1.7963873999997304,,,,,,lucie_3,001,2020_Feb_06_1342,posner,3.1.5,59.99588428221086,
0.5,180,1,right,2,4,2,0,2,0,6,7,55,5,,,,,,,,,683.2917841000008,683.7915849000001,684.5092662000006,None,683.8082035000007,684.4927078000001,685.0102568000002,None,right,1,0.2667842999999266,685.0102568000002,None,None,683.8082035000007,684.9930306000006,0.5111574000002292,0.5943654000002425,1.712590199999795,1.7960782999998628,,,,,,lucie_3,001,2020_Feb_06_1342,posner,3.1.5,59.99588428221086,
-0.5,0,1,left,1,3,2,0,2,0,7,0,56,1,,,,,,,,,685.2939847000007,685.7942243000007,686.5119638000006,None,685.8110650000008,686.4950151000003,687.0125486000006,None,left,1,0.2884068000003026,687.0125486000006,None,None,685.8110650000008,686.9958218000002,0.5118033999997351,0.5951261999998678,1.7133799999992334,1.7968582999992577,,,,,,lucie_3,001,2020_Feb_06_1342,posner,3.1.5,59.99588428221086,
-0.5,0,1,left,1,3,2,0,2,0,7,1,57,2,,,,,,,,,687.3302693000005,687.8303646000004,688.5478977000002,None,687.8470221000007,688.5312462000002,689.0487975000005,None,left,1,0.2921459999997751,689.0487975000005,None,None,687.8470221000007,689.0321698000007,0.5113412000000608,0.5950372999996034,1.7131294000000707,1.7963167999996585,,,,,,lucie_3,001,2020_Feb_06_1342,posner,3.1.5,59.99588428221086,
0.5,180,1,right,2,4,2,0,2,0,7,2,58,7,,,,,,,,,689.3664469000005,689.8664140000001,690.5840066999999,None,689.8830874000005,690.5673693000008,691.0848120999999,None,right,1,0.2961586999999781,691.0848120999999,None,None,689.8830874000005,691.0681314000003,0.5115045000002283,0.5950321000000258,1.7132030000002487,1.7967768999997134,,,,,,lucie_3,001,2020_Feb_06_1342,posner,3.1.5,59.99588428221086,
-0.5,180,0,left,2,3,2,0,2,0,7,3,59,4,,,,,,,,,691.4028420000004,691.9025490000004,692.6204243000002,None,691.9194698000001,692.6037215000006,693.1210013,None,left,1,0.3401250999995682,693.1210013,None,None,691.9194698000001,693.1042794000005,0.5114546000004339,0.5949633000000176,1.713161300000138,1.7966237000000547,,,,,,lucie_3,001,2020_Feb_06_1342,posner,3.1.5,59.99588428221086,
0.5,180,1,right,2,4,2,0,2,0,7,4,60,6,,,,,,,,,693.4888062,693.9887686000002,694.7064678000006,None,694.0059277,694.6897942000005,695.2071454000006,None,right,1,0.2298371999995652,695.2071454000006,None,None,694.0059277,695.1904680000007,0.5115168000002086,0.5951614000005065,1.713189400000374,1.7968839000004664,,,,,,lucie_3,001,2020_Feb_06_1342,posner,3.1.5,59.99588428221086,
-0.5,0,1,left,1,3,2,0,2,0,7,5,61,0,,,,,,,,,695.4584494999999,695.9583349000004,696.6757426000004,None,695.9748345000007,696.6592851000005,697.1764654000008,None,left,1,0.3004417000001922,697.1764654000008,None,None,695.9748345000007,697.1600920000001,0.5116397000001598,0.5953084000002491,1.7133818000002066,1.7965847000004942,,,,,,lucie_3,001,2020_Feb_06_1342,posner,3.1.5,59.99588428221086,
0.5,180,1,right,2,4,2,0,2,0,7,6,62,5,,,,,,,,,697.4945798000008,697.9943469,698.7121032000005,None,698.0112980000004,698.6953999000007,699.2127543000006,None,right,1,0.2082196000001204,699.2127543000006,None,None,698.0112980000004,699.1958773000006,0.5113971000000674,0.5947469000002457,1.712913500000468,1.796607999999651,,,,,,lucie_3,001,2020_Feb_06_1342,posner,3.1.5,59.99588428221086,
0.5,0,0,right,1,4,2,0,2,0,7,7,63,3,,,,,,,,,699.4470833000005,699.9470535,700.6646213000004,None,699.9639405000007,700.6481234000003,701.1652374000005,None,right,1,0.3597257000001264,701.1652374000005,None,None,699.9639405000007,701.1487778000001,0.5116486999995686,0.5951479999994262,1.7133513999997376,1.7968267999995078,,,,,,lucie_3,001,2020_Feb_06_1342,posner,3.1.5,59.99588428221086,
-0.5,0,1,left,1,3,2,0,2,0,8,0,64,0,,,,,,,,,701.5500494000007,702.0500712000003,702.7675569000003,None,702.0664878000007,702.7510278,703.2684079999999,None,left,1,0.25665009999920585,703.2684079999999,None,None,702.0664878000007,703.2516731000005,0.5116678000003958,0.5949250000003303,1.713253199999599,1.7968205999995916,,,,,,lucie_3,001,2020_Feb_06_1342,posner,3.1.5,59.99588428221086,
0.5,180,1,right,2,4,2,0,2,0,8,1,65,7,,,,,,,,,703.5525168000004,704.0529313000006,704.7702642000004,None,704.0695400000004,704.7536684000006,705.2711157000003,None,right,1,0.2858560000004218,705.2711157000003,None,None,704.0695400000004,705.2542691000008,0.5119117000003826,0.5950875999997152,1.713235899999745,1.7971913999999742,,,,,,lucie_3,001,2020_Feb_06_1342,posner,3.1.5,59.99588428221086,
-0.5,0,1,left,1,3,2,0,2,0,8,2,66,1,,,,,,,,,705.5882851000006,706.0887446000006,706.8066303000005,None,706.1055097000008,706.7898220000006,707.3071724000001,None,left,1,0.32163910000053875,707.3071724000001,None,None,706.1055097000008,707.2904660000004,0.5121159000000262,0.5958000999999058,1.713812599999983,1.7975442000006296,,,,,,lucie_3,001,2020_Feb_06_1342,posner,3.1.5,59.99588428221086,
0.5,180,1,right,2,4,2,0,2,0,8,3,67,5,,,,,,,,,707.6585740999999,708.1584181000007,708.8758900000003,None,708.174943,708.8596297000004,709.3766578000004,None,right,1,0.2843212999996467,709.3766578000004,None,None,708.174943,709.3601857000003,0.5114094000000478,0.5950242999997499,1.7131603999996514,1.7965650999994978,,,,,,lucie_3,001,2020_Feb_06_1342,posner,3.1.5,59.99588428221086,
-0.5,180,0,left,2,3,2,0,2,0,8,4,68,4,,,,,,,,,709.6781244000003,710.1779678000003,710.8953638000003,None,710.1943042000003,710.8788932000007,711.3960941000005,None,left,1,0.33691989999988436,711.3960941000005,None,None,710.1943042000003,711.3795596,0.5116891000006945,0.5951613000006546,1.7132657000001927,1.7968160000000353,,,,,,lucie_3,001,2020_Feb_06_1342,posner,3.1.5,59.99588428221086,
0.5,0,0,right,1,4,2,0,2,0,8,5,69,3,,,,,,,,,711.7637475000001,712.2640025999999,712.9818878000005,None,712.2808877000007,712.9649724999999,713.4825120000005,None,right,1,0.33841060000031575,713.4825120000005,None,None,712.2808877000007,713.4656601000006,0.5117503999999826,0.5951806999992186,1.713403799999469,1.7968709999995554,,,,,,lucie_3,001,2020_Feb_06_1342,posner,3.1.5,59.99588428221086,
-0.5,0,1,left,1,3,2,0,2,0,8,6,70,2,,,,,,,,,713.8503151000004,714.3503110000001,715.0680185000001,None,714.3668795000003,715.0512613000001,715.5687038000005,None,left,1,0.36420950000047014,715.5687038000005,None,None,714.3668795000003,715.5520733000003,0.5113327999997637,0.594725599999947,1.713073699999768,1.7964657000002262,,,,,,lucie_3,001,2020_Feb_06_1342,posner,3.1.5,59.99588428221086,
0.5,180,1,right,2,4,2,0,2,0,8,7,71,6,,,,,,,,,715.9531888000001,716.4533612000005,717.1707941000004,None,716.4698131000005,717.1540701000004,717.6716318000008,None,right,1,0.1652933999994275,717.6716318000008,None,None,716.4698131000005,717.6547591000008,0.5118813999997656,0.5949771000005057,1.7132679000005737,1.796848900000441,,,,,,lucie_3,001,2020_Feb_06_1342,posner,3.1.5,59.99588428221086,
0.5,0,0,right,1,4,2,0,2,0,9,0,72,3,,,,,,,,,717.8558118000001,718.3556815000002,719.0736902000008,None,718.3727011999999,719.0567934000001,719.5741164000001,None,right,1,0.2788114000004498,719.5741164000001,None,None,718.3727011999999,719.5574948000003,0.5112892000006468,0.5950030000003608,1.7131046000004062,1.7965988000005382,,,,,,lucie_3,001,2020_Feb_06_1342,posner,3.1.5,59.99588428221086,
