targetX,cueOri,congr,corrAns,pin_cue,pin_target,block.thisRepN,block.thisTrialN,block.thisN,block.thisIndex,posner_task.thisRepN,posner_task.thisTrialN,posner_task.thisN,posner_task.thisIndex,port_start_block.started,port_start_block.stopped,text_2.started,text_2.stopped,p_port.started,p_port.stopped,text.started,text.stopped,fixation_1.started,fixation_1.stopped,fixation_2.started,fixation_2.stopped,cue.started,cue.stopped,target.started,target.stopped,correct_key_resp.keys,correct_key_resp.corr,correct_key_resp.rt,correct_key_resp.started,correct_key_resp.stopped,early_resp.keys,early_resp.started,early_resp.stopped,trigger_cue.started,trigger_cue.stopped,trigger_target.started,trigger_target.stopped,break_text.started,break_text.stopped,end_port.started,end_port.stopped,participant,session,date,expName,psychopyVersion,frameRate,
0.5,0,0,right,1,4,0,0,0,0,0,0,0,3,1.720000000204891e-05,0.09692319999976462,52.46311849999984,None,1.3500000022759195e-05,0.0995850999997856,54.34885159999976,None,54.687451099999635,55.18340569999964,55.901040300000204,None,55.200245500000165,55.88485469999978,56.4016802999995,None,right,1,0.3389731000006577,56.4016802999995,None,None,55.200245500000165,56.385425999999825,0.5052002000002176,0.5886953999997786,1.707197300000189,1.7902942000000621,,,,,nat_3,001,2020_Jan_31_1445,posner,3.1.5,60.05392842752349,
0.5,180,1,right,2,4,0,0,0,0,0,1,1,5,,,,,,,,,56.76978119999967,57.26980300000014,57.98722949999956,None,57.286247,57.97044929999993,58.48794279999947,None,right,1,0.3166019000000233,58.48794279999947,None,None,57.286247,58.47136450000016,0.5106912000001103,0.5940007999997761,1.7122310999993715,1.7954297999995106,,,,,nat_3,001,2020_Jan_31_1445,posner,3.1.5,60.05392842752349,
-0.5,180,0,left,2,3,0,0,0,0,0,2,2,4,,,,,,,,,58.822648800000024,59.32239819999995,60.039998500000365,None,59.33892019999985,60.02348770000026,60.540760099999716,None,left,1,0.29574179999963235,60.540760099999716,None,None,59.33892019999985,60.524144299999534,0.5112129999997705,0.5947323999998844,1.7129377999999633,1.7962298000002193,,,,,nat_3,001,2020_Jan_31_1445,posner,3.1.5,60.05392842752349,
-0.5,0,1,left,1,3,0,0,0,0,0,3,3,0,,,,,,,,,60.858378699999776,61.358573700000306,62.07621870000003,None,61.37535459999981,62.05955629999971,62.576815700000225,None,left,1,0.2595719000000827,62.576815700000225,None,None,61.37535459999981,62.56020929999977,0.5119182999997065,0.5953337000000829,1.713528899999801,1.7969209000002593,,,,,nat_3,001,2020_Jan_31_1445,posner,3.1.5,60.05392842752349,
-0.5,0,1,left,1,3,0,0,0,0,0,4,4,1,,,,,,,,,62.861354599999686,63.36142730000029,64.07885970000007,None,63.377947899999526,64.06240739999976,64.57961109999997,None,left,1,0.2569143000000622,64.57961109999997,None,None,63.377947899999526,64.56299909999962,0.5114949999997407,0.5947613999996975,1.7130507000001671,1.796411000000262,,,,,nat_3,001,2020_Jan_31_1445,posner,3.1.5,60.05392842752349,
0.5,180,1,right,2,4,0,0,0,0,0,5,5,6,,,,,,,,,64.86402840000028,65.36426479999955,66.08166989999972,None,65.38080179999997,66.06519459999981,66.58243709999988,None,right,1,0.2699488000007477,66.58243709999988,None,None,65.38080179999997,66.56566329999987,0.5119187000000238,0.5951396999998906,1.7133048999994571,1.797009199999593,,,,,nat_3,001,2020_Jan_31_1445,posner,3.1.5,60.05392842752349,
-0.5,0,1,left,1,3,0,0,0,0,0,6,6,2,,,,,,,,,66.88352010000017,67.38388250000025,68.10119049999957,None,67.40017309999985,68.08465939999951,68.60189429999991,None,left,1,0.2825537999997323,68.60189429999991,None,None,67.40017309999985,68.58532139999988,0.5120738000005076,0.5950845000006666,1.7134978000003684,1.7967036000000007,,,,,nat_3,001,2020_Jan_31_1445,posner,3.1.5,60.05392842752349,
0.5,180,1,right,2,4,0,0,0,0,0,7,7,7,,,,,,,,,68.90385160000005,69.40310919999956,70.12071139999989,None,69.41957420000017,70.10394240000005,70.62124359999962,None,right,1,0.24720650000017486,70.62124359999962,None,None,69.41957420000017,70.60468919999948,0.5112219000002369,0.5944250000002285,1.7127877000002627,1.7962969000000157,,,,,nat_3,001,2020_Jan_31_1445,posner,3.1.5,60.05392842752349,
-0.5,0,1,left,1,3,0,0,0,0,1,0,8,1,,,,,,,,,70.88945919999969,71.3888552999997,72.10651869999947,None,71.40566919999947,72.0899717000002,72.60724219999975,None,left,1,0.26102850000006583,72.60724219999975,None,None,71.40566919999947,72.59074330000021,0.5113492000000406,0.5950732000001153,1.7132202000002508,1.7965604000000894,,,,,nat_3,001,2020_Jan_31_1445,posner,3.1.5,60.05392842752349,
0.5,180,1,right,2,4,0,0,0,0,1,1,9,7,,,,,,,,,72.89193419999992,73.39185629999974,74.10949770000025,None,73.4083811999999,74.09286669999983,74.6100962999999,None,right,1,0.2743640000007872,74.6100962999999,None,None,73.4083811999999,74.5935129999998,0.5114311000006637,0.5948028000002523,1.7130710000001272,1.7963184999998703,,,,,nat_3,001,2020_Jan_31_1445,posner,3.1.5,60.05392842752349,
0.5,180,1,right,2,4,0,0,0,0,1,2,10,6,,,,,,,,,74.91120390000015,75.41113320000022,76.12886879999951,None,75.42777339999975,76.11216379999951,76.62954269999955,None,right,1,0.2547173000002658,76.62954269999955,None,None,75.42777339999975,76.61293870000009,0.5116049999996903,0.5951314000003549,1.7133855000001859,1.7967816000000312,,,,,nat_3,001,2020_Jan_31_1445,posner,3.1.5,60.05392842752349,
0.5,0,0,right,1,4,0,0,0,0,1,3,11,3,,,,,,,,,76.91383549999955,77.41408719999981,78.13152960000025,None,77.43060520000017,78.11479340000005,78.63230320000002,None,right,1,0.26817729999947915,78.63230320000002,None,None,77.43060520000017,78.61553120000008,0.5116813000004186,0.5948651000007885,1.7131136000007245,1.7968651000001046,,,,,nat_3,001,2020_Jan_31_1445,posner,3.1.5,60.05392842752349,
-0.5,0,1,left,1,3,0,0,0,0,1,4,12,2,,,,,,,,,78.91668690000006,79.41664440000022,80.13446879999992,None,79.43357139999989,80.11754219999966,80.63520210000024,None,left,1,0.2811437999998816,80.63520210000024,None,None,79.43357139999989,80.61831090000032,0.5114075999999841,0.5950493999998798,1.7130549000003157,1.7965870999996696,,,,,nat_3,001,2020_Jan_31_1445,posner,3.1.5,60.05392842752349,
0.5,180,1,right,2,4,0,0,0,0,1,5,13,5,,,,,,,,,80.93545960000029,81.43623949999983,82.15391269999964,None,81.45278330000019,82.13704619999953,82.65447369999947,None,right,1,0.26176959999975224,82.65447369999947,None,None,81.45278330000019,82.63778720000028,0.5119553000004089,0.5953066000001854,1.7134839000000284,1.7970776000001933,,,,,nat_3,001,2020_Jan_31_1445,posner,3.1.5,60.05392842752349,
-0.5,0,1,left,1,3,0,0,0,0,1,6,14,0,,,,,,,,,82.93887429999995,83.43939090000003,84.15635500000008,None,83.4555706000001,84.13999700000022,84.65700579999975,None,left,1,0.2592590000003838,84.65700579999975,None,None,83.4555706000001,84.64059759999964,0.5119554000002609,0.5946181999997862,1.7131456999995862,1.7966115999997783,,,,,nat_3,001,2020_Jan_31_1445,posner,3.1.5,60.05392842752349,
-0.5,180,0,left,2,3,0,0,0,0,1,7,15,4,,,,,,,,,84.94176239999979,85.44154849999995,86.15950299999986,None,85.45820559999993,86.14283549999982,86.66002579999986,None,left,1,0.3203603000001749,86.66002579999986,None,None,85.45820559999993,86.64335709999978,0.5113534000001891,0.5949175000005198,1.7131569000002855,1.796376300000702,,,,,nat_3,001,2020_Jan_31_1445,posner,3.1.5,60.05392842752349,
0.5,180,1,right,2,4,0,0,0,0,2,0,16,6,,,,,,,,,87.01100560000032,87.5112207000002,88.22874330000013,None,87.5278859,88.21206530000018,88.72955730000012,None,right,1,0.2828012999998464,88.72955730000012,None,None,87.5278859,88.7130287,0.5116178999996919,0.5949534999999742,1.7134108000000197,1.7968590999998924,,,,,nat_3,001,2020_Jan_31_1445,posner,3.1.5,60.05392842752349,
0.5,180,1,right,2,4,0,0,0,0,2,1,17,5,,,,,,,,,89.03111830000034,89.53069219999998,90.24821509999947,None,89.5472834000002,90.23159130000022,90.749057,None,right,1,0.279197099999692,90.749057,None,None,89.5472834000002,90.73231190000024,0.5114240999992035,0.5948865000000296,1.7130268999999316,1.7964985999997225,,,,,nat_3,001,2020_Jan_31_1445,posner,3.1.5,60.05392842752349,
0.5,0,0,right,1,4,0,0,0,0,2,2,18,3,,,,,,,,,91.04993550000017,91.55008970000017,92.26762989999952,None,91.56666119999954,92.25099339999997,92.76837960000012,None,right,1,0.32400909999978467,92.76837960000012,None,None,91.56666119999954,92.75172219999968,0.5117384999994101,0.5951156000000992,1.713348600000245,1.7969513999996707,,,,,nat_3,001,2020_Jan_31_1445,posner,3.1.5,60.05392842752349,
-0.5,0,1,left,1,3,0,0,0,0,2,3,19,0,,,,,,,,,93.11981319999995,93.6196232000002,94.33708260000003,None,93.6361466999997,94.32044599999972,94.8377830999998,None,left,1,0.30243350000000646,94.8377830999998,None,None,93.6361466999997,94.82123289999981,0.5113234999998895,0.5945529000000533,1.712917699999707,1.7962203999995836,,,,,nat_3,001,2020_Jan_31_1445,posner,3.1.5,60.05392842752349,
-0.5,0,1,left,1,3,0,0,0,0,2,4,20,1,,,,,,,,,95.17234839999946,95.672415,96.3901450000003,None,95.68918010000016,96.37321390000034,96.89075099999991,None,left,1,0.297554200000377,96.89075099999991,None,None,95.68918010000016,96.87398849999954,0.511769099999583,0.595100900000034,1.7133228000002418,1.7969113999997717,,,,,nat_3,001,2020_Jan_31_1445,posner,3.1.5,60.05392842752349,
-0.5,0,1,left,1,3,0,0,0,0,2,5,21,2,,,,,,,,,97.20858520000002,97.70841480000036,98.4260991000001,None,97.72539340000003,98.40958779999983,98.9269091999995,None,left,1,0.27733489999991434,98.9269091999995,None,None,97.72539340000003,98.91023059999952,0.5114837999999509,0.5948600000001534,1.7132767000002787,1.7967146000000866,,,,,nat_3,001,2020_Jan_31_1445,posner,3.1.5,60.05392842752349,
-0.5,180,0,left,2,3,0,0,0,0,2,6,22,4,,,,,,,,,99.22822559999986,99.72792659999959,100.44544459999997,None,99.74486609999985,100.4288660000002,100.94611890000033,None,left,1,0.3221504000002824,100.94611890000033,None,None,99.74486609999985,100.92975569999999,0.5113899999996647,0.5950181999996857,1.7131986999993387,1.796502999999575,,,,,nat_3,001,2020_Jan_31_1445,posner,3.1.5,60.05392842752349,
0.5,180,1,right,2,4,0,0,0,0,2,7,23,7,,,,,,,,,101.29770399999961,101.7976233999998,102.51512159999947,None,101.8141155000003,102.49830699999984,103.01594430000023,None,right,1,0.31643590000021504,103.01594430000023,None,None,101.8141155000003,102.99908549999964,0.5116147999997338,0.594984000000295,1.7130580000002738,1.7966710999999123,,,,,nat_3,001,2020_Jan_31_1445,posner,3.1.5,60.05392842752349,
0.5,180,1,right,2,4,0,0,0,0,3,0,24,6,,,,,,,,,103.35058579999986,103.8504727999998,104.56789750000007,None,103.86687379999967,104.55143099999987,105.0685524999999,None,right,1,0.2637132999998357,105.0685524999999,None,None,103.86687379999967,105.05203650000021,0.5115469000002122,0.5949283999998443,1.7130938000000242,1.796377399999983,,,,,nat_3,001,2020_Jan_31_1445,posner,3.1.5,60.05392842752349,
-0.5,0,1,left,1,3,0,0,0,0,3,1,25,1,,,,,,,,,105.35296670000025,105.85315710000032,106.57063319999997,None,105.86974929999997,106.55418019999979,107.07131839999965,None,left,1,0.2928684999997131,107.07131839999965,None,None,105.86974929999997,107.0546704999997,0.5115797999997085,0.5947875000001659,1.7130811999995785,1.7964167999998608,,,,,nat_3,001,2020_Jan_31_1445,posner,3.1.5,60.05392842752349,
0.5,180,1,right,2,4,0,0,0,0,3,2,26,5,,,,,,,,,107.38940660000026,107.88897679999991,108.60680969999976,None,107.90579160000016,108.5902473999995,109.10747970000011,None,right,1,0.33669129999998404,109.10747970000011,None,None,107.90579160000016,109.09092249999958,0.5114374999993743,0.5950291999997717,1.7133610999999291,1.79683919999934,,,,,nat_3,001,2020_Jan_31_1445,posner,3.1.5,60.05392842752349,
0.5,180,1,right,2,4,0,0,0,0,3,3,27,7,,,,,,,,,109.47503080000024,109.97528630000033,110.69297509999979,None,109.99208980000003,110.6762792999998,111.19375510000009,None,right,1,0.2505338999999367,111.19375510000009,None,None,109.99208980000003,111.17709139999988,0.5115985000002183,0.595242600000347,1.713389300000017,1.7965942000000723,,,,,nat_3,001,2020_Jan_31_1445,posner,3.1.5,60.05392842752349,
0.5,0,0,right,1,4,0,0,0,0,3,4,28,3,,,,,,,,,111.46119850000014,111.96148869999979,112.67892589999974,None,111.97794390000035,112.66246330000013,113.17972490000011,None,right,1,0.312423200000012,113.17972490000011,None,None,111.97794390000035,113.16305420000026,0.5117909000000509,0.5950512999997954,1.7133450000001176,1.7968972999997277,,,,,nat_3,001,2020_Jan_31_1445,posner,3.1.5,60.05392842752349,
-0.5,0,1,left,1,3,0,0,0,0,3,5,29,2,,,,,,,,,113.51462549999997,114.01430559999972,114.73185999999987,None,114.03081049999946,114.71509379999952,115.23273890000019,None,left,1,0.2913690999994287,115.23273890000019,None,None,114.03081049999946,115.21576040000036,0.5113445999995747,0.5946844999998575,1.7127867999997761,1.796505299999808,,,,,nat_3,001,2020_Jan_31_1445,posner,3.1.5,60.05392842752349,
-0.5,180,0,left,2,3,0,0,0,0,3,6,30,4,,,,,,,,,115.5504848999999,116.05054980000023,116.76804730000003,None,116.06692519999979,116.75160789999973,117.26885479999964,None,left,1,0.3193907000004401,117.26885479999964,None,None,116.06692519999979,117.25204920000033,0.5115695999993477,0.5950504999991608,1.7130581999999777,1.7963717999991786,,,,,nat_3,001,2020_Jan_31_1445,posner,3.1.5,60.05392842752349,
-0.5,0,1,left,1,3,0,0,0,0,3,7,31,0,,,,,,,,,117.61933959999988,118.11988610000026,118.8374216000002,None,118.13660189999973,118.82088459999977,119.33814369999982,None,left,1,0.2659674999995332,119.33814369999982,None,None,118.13660189999973,119.32160569999996,0.5121891999997388,0.5957036999998309,1.7138909000004787,1.7971033000003445,,,,,nat_3,001,2020_Jan_31_1445,posner,3.1.5,60.05392842752349,
-0.5,0,1,left,1,3,0,0,0,0,4,0,32,0,,,,,,,,,119.6226145999999,120.12269399999968,120.84037179999996,None,120.1392808999999,120.82367179999983,121.34112730000015,None,left,1,0.311331899999459,121.34112730000015,None,None,120.1392808999999,121.3244636999998,0.5115577999995367,0.5948723999999856,1.7133108999996693,1.7965099999992162,,,,,nat_3,001,2020_Jan_31_1445,posner,3.1.5,60.05392842752349,
0.5,180,1,right,2,4,0,0,0,0,4,1,33,7,,,,,,,,,121.67549570000028,122.1754775999998,122.89313469999979,None,122.19214730000022,122.87642030000006,123.3937533999997,None,right,1,0.2904498000007152,123.3937533999997,None,None,122.19214730000022,123.37697240000034,0.5114350000003469,0.5949006000000736,1.7128947999999582,1.7966145000000324,,,,,nat_3,001,2020_Jan_31_1445,posner,3.1.5,60.05392842752349,
0.5,0,0,right,1,4,0,0,0,0,4,2,34,3,,,,,,,,,123.71156840000003,124.21162050000021,124.92925000000014,None,124.22822449999967,124.91253940000024,125.42999169999985,None,right,1,0.3981832999998005,125.42999169999985,None,None,124.22822449999967,125.41336899999988,0.5114137999999002,0.5947033000002193,1.7131462999996074,1.7965526999996655,,,,,nat_3,001,2020_Jan_31_1445,posner,3.1.5,60.05392842752349,
-0.5,180,0,left,2,3,0,0,0,0,4,3,35,4,,,,,,,,,125.84799089999979,126.34795649999978,127.06548469999962,None,126.36466289999953,127.04888949999986,127.56613620000007,None,left,1,0.34198039999955654,127.56613620000007,None,None,126.36466289999953,127.54962569999952,0.5114453999995021,0.5948499999994965,1.713093299999855,1.7964830999999322,,,,,nat_3,001,2020_Jan_31_1445,posner,3.1.5,60.05392842752349,
0.5,180,1,right,2,4,0,0,0,0,4,4,36,6,,,,,,,,,127.93408720000025,128.43430369999987,129.15175610000006,None,128.45078869999998,129.13509390000036,129.65257380000003,None,right,1,0.2555001999999149,129.65257380000003,None,None,128.45078869999998,129.6354470999995,0.5119805000003907,0.5950079000003825,1.713115000000471,1.797008100000312,,,,,nat_3,001,2020_Jan_31_1445,posner,3.1.5,60.05392842752349,
0.5,180,1,right,2,4,0,0,0,0,4,5,37,5,,,,,,,,,129.93678569999975,130.43672940000033,131.15437659999952,None,130.4536118999995,131.13779160000013,131.6553713000003,None,right,1,0.2846552999999403,131.6553713000003,None,None,130.4536118999995,131.63846329999978,0.5116237000002002,0.5950697000007494,1.713334300000497,1.796686900000168,,,,,nat_3,001,2020_Jan_31_1445,posner,3.1.5,60.05392842752349,
-0.5,0,1,left,1,3,0,0,0,0,4,6,38,2,,,,,,,,,131.95609729999978,132.4560862999997,133.17400859999998,None,132.47308259999954,133.15718959999958,133.67476590000024,None,left,1,0.28130220000002737,133.67476590000024,None,None,132.47308259999954,133.65783360000023,0.5116025999996054,0.5951566999992792,1.7133327000001373,1.796937899999648,,,,,nat_3,001,2020_Jan_31_1445,posner,3.1.5,60.05392842752349,
-0.5,0,1,left,1,3,0,0,0,0,4,7,39,1,,,,,,,,,133.97553460000017,134.4755482999999,135.19340850000026,None,134.4923735000002,135.1766004000001,135.69409050000013,None,left,1,0.30992049999986193,135.69409050000013,None,None,134.4923735000002,135.67733950000002,0.5113685999995141,0.5951482999998916,1.713148299999375,1.7967457999993712,,,,,nat_3,001,2020_Jan_31_1445,posner,3.1.5,60.05392842752349,
-0.5,180,0,left,2,3,0,0,0,0,5,0,40,4,,,,,,,,,136.02869480000027,136.52847539999948,137.24613399999998,None,136.54502330000014,137.22941379999975,137.74686999999994,None,left,1,0.3531096999995498,137.74686999999994,None,None,136.54502330000014,137.7300884999995,0.5113805000000866,0.5950252000002365,1.7129783000000316,1.7965410999995584,,,,,nat_3,001,2020_Jan_31_1445,posner,3.1.5,60.05392842752349,
0.5,180,1,right,2,4,0,0,0,0,5,1,41,6,,,,,,,,,138.1311840999997,138.63127989999975,139.34913169999982,None,138.6480501999995,139.33244879999984,139.84984989999975,None,right,1,0.2662038999997094,139.84984989999975,None,None,138.6480501999995,139.8331251999998,0.5114415999996709,0.5950015999997049,1.713260900000023,1.7966129999995246,,,,,nat_3,001,2020_Jan_31_1445,posner,3.1.5,60.05392842752349,
-0.5,0,1,left,1,3,0,0,0,0,5,2,42,0,,,,,,,,,140.1344382999996,140.63409330000013,141.35187450000012,None,140.65098299999954,141.33509890000005,141.85247979999986,None,left,1,0.32746899999983725,141.85247979999986,None,None,140.65098299999954,141.8357858999998,0.5114200999996683,0.5947397999998429,1.7130944000000454,1.7966544999999314,,,,,nat_3,001,2020_Jan_31_1445,posner,3.1.5,60.05392842752349,
-0.5,0,1,left,1,3,0,0,0,0,5,3,43,2,,,,,,,,,142.2033451999996,142.7038633000002,143.42136779999964,None,142.72031140000036,143.4046454999998,143.92212409999956,None,left,1,0.2578224000008049,143.92212409999956,None,None,142.72031140000036,143.90509659999952,0.511830600000394,0.5949551000003339,1.713052200000675,1.796641200000522,,,,,nat_3,001,2020_Jan_31_1445,posner,3.1.5,60.05392842752349,
0.5,0,0,right,1,4,0,0,0,0,5,4,44,3,,,,,,,,,144.20594299999993,144.7062407000003,145.4241092000002,None,144.7233057000003,145.40727719999995,145.92501280000033,None,right,1,0.30295569999998406,145.92501280000033,None,None,144.7233057000003,145.90795799999978,0.5117440000003626,0.5955140000005485,1.7134436000005735,1.7971290000004956,,,,,nat_3,001,2020_Jan_31_1445,posner,3.1.5,60.05392842752349,
-0.5,0,1,left,1,3,0,0,0,0,5,5,45,1,,,,,,,,,146.25900379999985,146.75954050000018,147.47685300000012,None,146.77590320000036,147.46010560000013,147.97759510000014,None,left,1,0.29840930000045773,147.97759510000014,None,None,146.77590320000036,147.96073429999979,0.51192809999975,0.5952358000004097,1.7130957999997918,1.796801399999822,,,,,nat_3,001,2020_Jan_31_1445,posner,3.1.5,60.05392842752349,
0.5,180,1,right,2,4,0,0,0,0,5,6,46,7,,,,,,,,,148.29471939999985,148.7953090000001,149.51292300000023,None,148.8122199999998,149.49644590000025,150.01384289999987,None,right,1,0.27811130000009143,150.01384289999987,None,None,148.8122199999998,149.99703580000005,0.5115736999996443,0.5950469999997949,1.713278000000173,1.7966668999997637,,,,,nat_3,001,2020_Jan_31_1445,posner,3.1.5,60.05392842752349,
0.5,180,1,right,2,4,0,0,0,0,5,7,47,5,,,,,,,,,150.31473069999993,150.81494209999983,151.5323655000002,None,150.83172680000007,151.51576589999968,152.03326149999975,None,right,1,0.29080379999959405,152.03326149999975,None,None,150.83172680000007,152.01640270000007,0.5117645999998786,0.5949475999996139,1.7132148000000598,1.7969000999992204,,,,,nat_3,001,2020_Jan_31_1445,posner,3.1.5,60.05392842752349,
0.5,0,0,right,1,4,0,0,0,0,6,0,48,3,,,,,,,,,152.35088519999954,152.85088220000034,153.56876740000007,None,152.86752780000006,153.55207280000013,154.06916889999957,None,right,1,0.3028137000001152,154.06916889999957,None,None,152.86752780000006,154.0525447,0.511570099999517,0.5951908999995794,1.7132127999993827,1.7965424999993047,,,,,nat_3,001,2020_Jan_31_1445,posner,3.1.5,60.05392842752349,
0.5,180,1,right,2,4,0,0,0,0,6,1,49,5,,,,,,,,,154.40391459999955,154.90386119999948,155.62148909999996,None,154.9205965000001,155.60497159999977,156.12216389999958,None,right,1,0.24989430000005086,156.12216389999958,None,None,154.9205965000001,156.1053122000003,0.5115350000005492,0.5947507000000769,1.7129757000002428,1.7964222000000518,,,,,nat_3,001,2020_Jan_31_1445,posner,3.1.5,60.05392842752349,
0.5,180,1,right,2,4,0,0,0,0,6,2,50,7,,,,,,,,,156.39045799999985,156.8898337999999,157.60752890000003,None,156.90653629999997,157.59086750000006,158.10810289999972,None,right,1,0.2797989000000598,158.10810289999972,None,None,156.90653629999997,158.09136690000014,0.5112866999998005,0.5948953999995865,1.7128079999993133,1.7963279999994484,,,,,nat_3,001,2020_Jan_31_1445,posner,3.1.5,60.05392842752349,
-0.5,0,1,left,1,3,0,0,0,0,6,3,51,1,,,,,,,,,158.4095424999996,158.90934509999988,159.62691730000006,None,158.9259095999996,159.61038180000014,160.12767480000002,None,left,1,0.2602415999999721,160.12767480000002,None,None,158.9259095999996,160.1108893999999,0.5115026999992551,0.594788299999891,1.7130322999992131,1.7965340000000651,,,,,nat_3,001,2020_Jan_31_1445,posner,3.1.5,60.05392842752349,
-0.5,0,1,left,1,3,0,0,0,0,6,4,52,2,,,,,,,,,160.4116637999996,160.9120911,161.6296451999997,None,160.9285444999996,161.61298579999948,162.1302493000003,None,left,1,0.30575970000063535,162.1302493000003,None,None,160.9285444999996,162.11375810000027,0.5118775999999343,0.5951500000001033,1.7135355000000345,1.7968597999997655,,,,,nat_3,001,2020_Jan_31_1445,posner,3.1.5,60.05392842752349,
-0.5,180,0,left,2,3,0,0,0,0,6,5,53,4,,,,,,,,,162.46459820000018,162.9647600999997,163.68252289999964,None,162.9815510999997,163.66574669999954,164.1833128999997,None,left,1,0.31677229999968404,164.1833128999997,None,None,162.9815510999997,164.16639339999983,0.5116892999994889,0.5954925999994884,1.7133087000001979,1.7971133999999438,,,,,nat_3,001,2020_Jan_31_1445,posner,3.1.5,60.05392842752349,
0.5,180,1,right,2,4,0,0,0,0,6,6,54,6,,,,,,,,,164.51765859999978,165.01773150000008,165.73526500000025,None,165.03461599999991,165.71895680000034,166.23591549999946,None,right,1,0.31190089999927295,166.23591549999946,None,None,165.03461599999991,166.21965679999994,0.5119312000006175,0.5953458000003593,1.7138339000002816,1.7970492000004015,,,,,nat_3,001,2020_Jan_31_1445,posner,3.1.5,60.05392842752349,
-0.5,0,1,left,1,3,0,0,0,0,6,7,55,0,,,,,,,,,166.57048310000027,167.07045899999957,167.78814340000008,None,167.08721179999975,167.77132830000028,168.28876560000026,None,left,1,0.29102400000010675,168.28876560000026,None,None,167.08721179999975,168.27212429999963,0.5115401000002748,0.5950855000000956,1.7131909000008818,1.796550600000046,,,,,nat_3,001,2020_Jan_31_1445,posner,3.1.5,60.05392842752349,
0.5,180,1,right,2,4,0,0,0,0,7,0,56,6,,,,,,,,,168.60603019999962,169.106538,169.8244149000002,None,169.1233586999997,169.80746259999978,170.32501349999984,None,right,1,0.25482650000049034,170.32501349999984,None,None,169.1233586999997,170.3081718000003,0.5123490999994829,0.5957883999999467,1.7139709000002767,1.7974944999996296,,,,,nat_3,001,2020_Jan_31_1445,posner,3.1.5,60.05392842752349,
-0.5,0,1,left,1,3,0,0,0,0,7,1,57,2,,,,,,,,,170.60875579999993,171.10951579999983,171.82699760000014,None,171.1260274999995,171.8104315999999,172.32766300000003,None,left,1,0.2202053999999407,172.32766300000003,None,None,171.1260274999995,172.31099910000012,0.5117617000005339,0.5952150000002803,1.7132328000006964,1.7967498000007254,,,,,nat_3,001,2020_Jan_31_1445,posner,3.1.5,60.05392842752349,
-0.5,0,1,left,1,3,0,0,0,0,7,2,58,1,,,,,,,,,172.57855300000028,173.07877670000016,173.79630309999993,None,173.09535200000028,173.77972789999967,174.29701620000014,None,left,1,0.21892300000035902,174.29701620000014,None,None,173.09535200000028,174.28038639999977,0.5117000999998709,0.5949785000002521,1.7132877000003646,1.7968743999999788,,,,,nat_3,001,2020_Jan_31_1445,posner,3.1.5,60.05392842752349,
-0.5,180,0,left,2,3,0,0,0,0,7,3,59,4,,,,,,,,,174.5479677000003,175.04811859999973,175.76578400000017,None,175.06483180000032,175.74908510000023,176.2664722999998,None,left,1,0.32925519999935204,176.2664722999998,None,None,175.06483180000032,176.24977839999974,0.511577600000237,0.5949788999996599,1.7132160999999542,1.7966861000004428,,,,,nat_3,001,2020_Jan_31_1445,posner,3.1.5,60.05392842752349,
0.5,0,0,right,1,4,0,0,0,0,7,4,60,3,,,,,,,,,176.61795859999984,177.11750239999947,177.83533290000014,None,177.1343383000003,177.81847500000003,178.33596750000015,None,right,1,0.259848100000454,178.33596750000015,None,None,177.1343383000003,178.31919779999953,0.5112263999999413,0.5948323000002347,1.7129030000005514,1.7965466000005108,,,,,nat_3,001,2020_Jan_31_1445,posner,3.1.5,60.05392842752349,
-0.5,0,1,left,1,3,0,0,0,0,7,5,61,0,,,,,,,,,178.62034029999995,179.12052029999995,179.83802259999993,None,179.13720289999947,179.8213126999999,180.33884070000022,None,left,1,0.3050220999994053,180.33884070000022,None,None,179.13720289999947,180.32206919999953,0.5116384000002654,0.594979699999385,1.713170899999568,1.796590500000093,,,,,nat_3,001,2020_Jan_31_1445,posner,3.1.5,60.05392842752349,
0.5,180,1,right,2,4,0,0,0,0,7,6,62,5,,,,,,,,,180.67315280000003,181.17315719999988,181.8907638999999,None,181.19010369999978,181.87423750000016,182.39159070000005,None,right,1,0.18810480000047392,182.39159070000005,None,None,181.19010369999978,182.37470550000035,0.5114847000004374,0.5950179999999818,1.7130228000005445,1.7965251000005082,,,,,nat_3,001,2020_Jan_31_1445,posner,3.1.5,60.05392842752349,
0.5,180,1,right,2,4,0,0,0,0,7,7,63,7,,,,,,,,,182.6094707000002,183.1091577999996,183.8267810999996,None,183.1258517999995,183.81025450000016,184.3274881999996,None,right,1,0.28425349999997707,184.3274881999996,None,None,183.1258517999995,184.31082359999982,0.511498599999868,0.5949490000002697,1.7131424999997762,1.7968319999999949,,,,,nat_3,001,2020_Jan_31_1445,posner,3.1.5,60.05392842752349,
-0.5,180,0,left,2,3,0,0,0,0,8,0,64,4,,,,,,,,,184.6286871000002,185.1287328999997,185.84640510000008,None,185.1454759999997,185.82967439999993,186.34703519999948,None,left,1,0.29668110000056913,186.34703519999948,None,None,185.1454759999997,186.33035370000016,0.5116628999994646,0.5951434999997218,1.713272699999834,1.7967925000002651,,,,,nat_3,001,2020_Jan_31_1445,posner,3.1.5,60.05392842752349,
-0.5,0,1,left,1,3,0,0,0,0,8,1,65,2,,,,,,,,,186.66493360000004,187.1646284999997,187.88259060000019,None,187.1814089999998,187.86547400000018,188.38354569999956,None,left,1,0.26023069999973814,188.38354569999956,None,None,187.1814089999998,188.36635839999963,0.5113911000007647,0.5949239999999918,1.7131013000007442,1.7966870999998719,,,,,nat_3,001,2020_Jan_31_1445,posner,3.1.5,60.05392842752349,
-0.5,0,1,left,1,3,0,0,0,0,8,2,66,1,,,,,,,,,188.66786839999986,189.1675183999996,189.88548300000002,None,189.18436389999988,189.86829450000005,190.38604399999986,None,left,1,0.305729099999553,190.38604399999986,None,None,189.18436389999988,190.36914789999992,0.5113394999998491,0.5946099000002505,1.7129465999996683,1.7962196999997104,,,,,nat_3,001,2020_Jan_31_1445,posner,3.1.5,60.05392842752349,
0.5,180,1,right,2,4,0,0,0,0,8,3,67,7,,,,,,,,,190.71998509999958,191.22018490000028,191.93783580000036,None,191.23690309999984,191.92140269999982,192.43855110000004,None,right,1,0.31746190000012575,192.43855110000004,None,None,191.23690309999984,192.42202449999968,0.5119213999996646,0.5955420000000231,1.7137405000003127,1.7969647999998415,,,,,nat_3,001,2020_Jan_31_1445,posner,3.1.5,60.05392842752349,
0.5,180,1,right,2,4,0,0,0,0,8,4,68,6,,,,,,,,,192.77302770000006,193.27312979999988,193.99094659999992,None,193.28990350000004,193.97426939999968,194.4916192999999,None,right,1,0.32830310000008467,194.4916192999999,None,None,193.28990350000004,194.47486930000014,0.5118965000001481,0.5952585000004547,1.7136239999999816,1.796985400000267,,,,,nat_3,001,2020_Jan_31_1445,posner,3.1.5,60.05392842752349,
-0.5,0,1,left,1,3,0,0,0,0,8,5,69,0,,,,,,,,,194.8427332000001,195.34277870000005,196.0603226000003,None,195.3593976000002,196.0436738999997,196.56088480000017,None,left,1,0.25886239999999816,196.56088480000017,None,None,195.3593976000002,196.54457379999985,0.5115708000002996,0.5947790000000168,1.7133450000001176,1.7967610000005152,,,,,nat_3,001,2020_Jan_31_1445,posner,3.1.5,60.05392842752349,
0.5,0,0,right,1,4,0,0,0,0,8,6,70,3,,,,,,,,,196.84529109999949,197.34548689999974,198.06314949999978,None,197.36208199999965,198.04660069999954,198.56387639999957,None,right,1,0.31981770000038523,198.56387639999957,None,None,197.36208199999965,198.54707150000013,0.5116829999997208,0.5952363999995214,1.7132537999996202,1.7967098999997688,,,,,nat_3,001,2020_Jan_31_1445,posner,3.1.5,60.05392842752349,
0.5,180,1,right,2,4,0,0,0,0,8,7,71,5,,,,,,,,,198.91468059999988,199.41494069999953,200.1325637,None,199.43172419999973,200.11574870000004,200.63331409999955,None,right,1,0.29840189999958966,200.63331409999955,None,None,199.43172419999973,200.61656859999948,0.511617699999988,0.5949807999995755,1.713233699999364,1.796836099999382,,,,,nat_3,001,2020_Jan_31_1445,posner,3.1.5,60.05392842752349,
-0.5,0,1,left,1,3,0,0,0,0,9,0,72,1,,,,,,,,,200.9510306000002,201.45098570000027,202.1688334999999,None,201.4677031000001,202.15202529999988,202.66924569999992,None,left,1,0.3906189999997878,202.66924569999992,None,None,201.4677031000001,202.6528962000002,0.5114471999995658,0.5949825999996392,1.7133415999996942,1.7965356999993674,,,,,nat_3,001,2020_Jan_31_1445,posner,3.1.5,60.05392842752349,
-0.5,0,1,left,1,3,0,0,0,0,9,1,73,2,,,,,,,,,203.08731460000035,203.58728880000035,204.30499090000012,None,203.6039807999996,204.2879270000003,204.8056528999996,None,left,1,0.30208290000064153,204.8056528999996,None,None,203.6039807999996,204.78892949999954,0.5114934999992329,0.5950193999997282,1.7131121999991592,1.7967126999992615,,,,,nat_3,001,2020_Jan_31_1445,posner,3.1.5,60.05392842752349,
-0.5,0,1,left,1,3,0,0,0,0,9,2,74,0,,,,,,,,,205.12349859999995,205.62363649999952,206.3412773,None,205.6402446000002,206.32464609999988,206.84189969999989,None,left,1,0.2658134000002974,206.84189969999989,None,None,205.6402446000002,206.8250892999995,0.5119095999998535,0.5950730999993539,1.7133428999995886,1.7969622000000527,,,,,nat_3,001,2020_Jan_31_1445,posner,3.1.5,60.05392842752349,
0.5,180,1,right,2,4,0,0,0,0,9,3,75,5,,,,,,,,,207.12669129999995,207.62616340000022,208.34397249999984,None,207.6430244000003,208.32715219999955,208.8443858999999,None,right,1,0.2792557000002489,208.8443858999999,None,None,207.6430244000003,208.82780660000026,0.5111748999997872,0.5948706999997739,1.7128102999995463,1.7963249999993423,,,,,nat_3,001,2020_Jan_31_1445,posner,3.1.5,60.05392842752349,
0.5,180,1,right,2,4,0,0,0,0,9,4,76,6,,,,,,,,,209.1455016,209.64562039999964,210.3632547999996,None,209.66255629999978,210.3466943000003,210.86409819999972,None,right,1,0.37149719999979425,210.86409819999972,None,None,209.66255629999978,210.8472657000002,0.5118952999991961,0.5953769999996439,1.7135183000000325,1.7969372999996267,,,,,nat_3,001,2020_Jan_31_1445,posner,3.1.5,60.05392842752349,
0.5,180,1,right,2,4,0,0,0,0,9,5,77,7,,,,,,,,,211.26506820000031,211.76518860000033,212.4829080999998,None,211.7819983999998,212.46622860000025,212.9836507,None,right,1,0.33196529999986524,212.9836507,None,None,211.7819983999998,212.9670871999997,0.5117227000000639,0.5952498000006017,1.7136018000001059,1.7969683999999688,,,,,nat_3,001,2020_Jan_31_1445,posner,3.1.5,60.05392842752349,
-0.5,180,0,left,2,3,0,0,0,0,9,6,78,4,,,,,,,,,213.33480080000027,213.8345145000003,214.55234560000008,None,213.85153979999995,214.53562499999953,215.05320239999946,None,right,0,0.19837319999987812,215.05320239999946,None,None,213.85153979999995,215.03639569999996,0.5114404999994804,0.5952780999996321,1.71330719999969,1.7968221999999514,,,,,nat_3,001,2020_Jan_31_1445,posner,3.1.5,60.05392842752349,
0.5,0,0,right,1,4,0,0,0,0,9,7,79,3,,,,,,,,,215.27093479999985,215.77083380000022,216.4882988999998,None,215.7874813999997,216.4719127999997,216.9892731,None,right,1,0.32636770000044635,216.9892731,None,None,215.7874813999997,216.9724513000001,0.5114561000000322,0.5947885999994469,1.7130568999991738,1.7963738999997076,,,,,nat_3,001,2020_Jan_31_1445,posner,3.1.5,60.05392842752349,
0.5,180,1,right,2,4,0,0,0,0,10,0,80,6,,,,,,,,,217.3401769000002,217.84030950000033,218.5578032000003,None,217.85692850000032,218.54120039999998,219.05863229999977,None,right,1,0.2732134000007136,219.05863229999977,None,None,217.85692850000032,219.0417725999996,0.5116265999995449,0.5949958999999581,1.7130778000000646,1.7966153999996095,,,,,nat_3,001,2020_Jan_31_1445,posner,3.1.5,60.05392842752349,
-0.5,0,1,left,1,3,0,0,0,0,10,1,81,2,,,,,,,,,219.35943680000037,219.8597946,220.57722959999955,None,219.87631280000005,220.56060340000022,221.07797370000026,None,left,1,0.3016339000005246,221.07797370000026,None,None,219.87631280000005,221.06121100000018,0.511996299999737,0.5953466999999364,1.7133991999999125,1.796900800000003,,,,,nat_3,001,2020_Jan_31_1445,posner,3.1.5,60.05392842752349,
0.5,0,0,right,1,4,0,0,0,0,10,2,82,3,,,,,,,,,221.39568520000012,221.89595199999985,222.6133823,None,221.9125578000003,222.59687609999946,223.1142688,None,right,1,0.31332930000007764,223.1142688,None,None,221.9125578000003,223.0973799000003,0.5117995000000519,0.5951177000006282,1.713212200000271,1.7966892000004009,,,,,nat_3,001,2020_Jan_31_1445,posner,3.1.5,60.05392842752349,
0.5,180,1,right,2,4,0,0,0,0,10,3,83,7,,,,,,,,,223.44865779999964,223.94873279999956,224.66625120000026,None,223.96530489999986,224.6499520999996,225.16687470000033,None,right,1,0.29266420000021753,225.16687470000033,None,None,223.96530489999986,225.15034259999993,0.5117552000001524,0.595108400000754,1.7133551000006264,1.7969298000007257,,,,,nat_3,001,2020_Jan_31_1445,posner,3.1.5,60.05392842752349,
-0.5,0,1,left,1,3,0,0,0,0,10,4,84,1,,,,,,,,,225.48466039999948,225.98476149999988,226.70245220000015,None,226.00160870000036,226.68574290000015,227.20302470000024,None,left,1,0.2726204999999027,227.20302470000024,None,None,226.00160870000036,227.18653670000003,0.5116352999993978,0.5949480999997832,1.7133877999995093,1.7968000999999276,,,,,nat_3,001,2020_Jan_31_1445,posner,3.1.5,60.05392842752349,
0.5,180,1,right,2,4,0,0,0,0,10,5,85,5,,,,,,,,,227.5043998000001,228.00438889999987,228.7219153999995,None,228.02096449999954,228.7050073999999,229.22256939999988,None,right,1,0.2690181999996639,229.22256939999988,None,None,228.02096449999954,229.20593089999966,0.511768999999731,0.5948899999993955,1.7132990999998583,1.7967254999994111,,,,,nat_3,001,2020_Jan_31_1445,posner,3.1.5,60.05392842752349,
-0.5,180,0,left,2,3,0,0,0,0,10,6,86,4,,,,,,,,,229.50725020000027,230.00683670000035,230.72448540000005,None,230.02380300000004,230.70784279999953,231.22528049999983,None,left,1,0.31433449999985896,231.22528049999983,None,None,230.02380300000004,231.20864699999947,0.5113853000002564,0.595029600000089,1.713170799999716,1.796615500000371,,,,,nat_3,001,2020_Jan_31_1445,posner,3.1.5,60.05392842752349,
-0.5,0,1,left,1,3,0,0,0,0,10,7,87,0,,,,,,,,,231.55974259999948,232.0596599999999,232.7773791999998,None,232.07652400000006,232.76079279999976,233.2781401000002,None,left,1,0.29336439999951835,233.2781401000002,None,None,232.07652400000006,233.2613849999998,0.511359099999936,0.5951360999997632,1.7130606000000625,1.7964847999992344,,,,,nat_3,001,2020_Jan_31_1445,posner,3.1.5,60.05392842752349,
,,,,,,0,0,0,0,,,,,,,,,,,,,,,,,,,,,,,,,,,,,,,,,233.59617619999972,None,1.810000048863003e-05,0.9960795000006328,nat_3,001,2020_Jan_31_1445,posner,3.1.5,60.05392842752349,
-0.5,0,1,left,1,3,1,0,1,0,0,0,0,2,1.249999968422344e-05,0.09739139999965118,294.61236409999947,None,1.5199999324977398e-05,0.09849419999954989,296.71530429999984,None,296.99053319999985,297.49990009999965,298.2006443999999,None,297.49990009999965,298.2006443999999,298.7013724999997,None,left,1,0.3257800999999745,298.7013724999997,None,None,297.49990009999965,298.7013724999997,0.5022423999998864,0.6023470999998608,1.703611599999931,1.8037567999999737,,,,,nat_3,001,2020_Jan_31_1445,posner,3.1.5,60.05392842752349,
0.5,180,1,right,2,4,1,0,1,0,0,1,1,6,,,,,,,,,299.0533478999996,299.5526510999998,300.27009850000013,None,299.56917989999965,300.2535393999997,300.77110679999987,None,right,1,0.3040071999994325,300.77110679999987,None,None,299.56917989999965,300.75444739999966,0.510784799999783,0.5941044000001057,1.7125718999996025,1.7957691999999952,,,,,nat_3,001,2020_Jan_31_1445,posner,3.1.5,60.05392842752349,
0.5,180,1,right,2,4,1,0,1,0,0,2,2,5,,,,,,,,,301.1047276999998,301.60531809999975,302.3232148999996,None,301.6221595999996,302.3063750000001,302.8239378999997,None,right,1,0.28326540000034583,302.8239378999997,None,None,301.6221595999996,302.8069304999999,0.5120121999998446,0.5956014000003051,1.7136054000002332,1.7973393000002034,,,,,nat_3,001,2020_Jan_31_1445,posner,3.1.5,60.05392842752349,
0.5,0,0,right,1,4,1,0,1,0,0,3,3,3,,,,,,,,,303.12496959999953,303.6249656,304.3425778000001,None,303.6415068999995,304.3256940000001,304.8432678999998,None,right,1,0.2959089000005406,304.8432678999998,None,None,303.6415068999995,304.82634679999956,0.5117642000004707,0.5951887000001079,1.713126800000282,1.796541900000193,,,,,nat_3,001,2020_Jan_31_1445,posner,3.1.5,60.05392842752349,
-0.5,0,1,left,1,3,1,0,1,0,0,4,4,0,,,,,,,,,305.16088560000026,305.6609161999995,306.37872379999953,None,305.6775894000002,306.3619914000001,306.87942060000023,None,left,1,0.3238111000000572,306.87942060000023,None,None,305.6775894000002,306.8626728999998,0.5116814000002705,0.5950377999997727,1.7134219999998095,1.7967471000001751,,,,,nat_3,001,2020_Jan_31_1445,posner,3.1.5,60.05392842752349,
-0.5,180,0,left,2,3,1,0,1,0,0,5,5,4,,,,,,,,,307.23054669999965,307.7304564999995,308.44808719999946,None,307.7472023,308.43155709999974,308.94886190000034,None,left,1,0.3342032000000472,308.94886190000034,None,None,307.7472023,308.9321619000002,0.5114806000001408,0.594955900000059,1.7131711000001815,1.7965205999998943,,,,,nat_3,001,2020_Jan_31_1445,posner,3.1.5,60.05392842752349,
-0.5,0,1,left,1,3,1,0,1,0,0,6,6,1,,,,,,,,,309.3003933,309.80011230000036,310.5176652,None,309.8167292999997,310.50096659999963,311.0181977000002,None,left,1,0.31290939999962575,311.0181977000002,None,None,309.8167292999997,311.0016171999996,0.5115716999998767,0.5953007999996771,1.713056499999766,1.7964812000000165,,,,,nat_3,001,2020_Jan_31_1445,posner,3.1.5,60.05392842752349,
0.5,180,1,right,2,4,1,0,1,0,0,7,7,7,,,,,,,,,311.3527296000002,311.8528411999996,312.57050359999994,None,311.8696638000001,312.5538655999999,313.07110139999986,None,right,1,0.3080159000001004,313.07110139999986,None,None,311.8696638000001,313.0545062000001,0.5117383999995582,0.5951359000000593,1.713380700000016,1.7967329000002792,,,,,nat_3,001,2020_Jan_31_1445,posner,3.1.5,60.05392842752349,
-0.5,180,0,left,2,3,1,0,1,0,1,0,8,4,,,,,,,,,313.4056824999998,313.90550950000033,314.6232227999999,None,313.9225002000003,314.6066531999995,315.12406199999987,None,left,1,0.350899500000196,315.12406199999987,None,None,313.9225002000003,315.10720949999995,0.5113342000004195,0.5949291000006269,1.7130157000001418,1.797207100000378,,,,,nat_3,001,2020_Jan_31_1445,posner,3.1.5,60.05392842752349,
0.5,180,1,right,2,4,1,0,1,0,1,1,9,5,,,,,,,,,315.4916364999999,315.9918703000003,316.7093113000001,None,316.00850960000025,316.69277390000025,317.21034020000025,None,right,1,0.26481020000028366,317.21034020000025,None,None,316.00850960000025,317.19339820000005,0.511826299999484,0.5951717999996617,1.7133420000000115,1.7969606999995449,,,,,nat_3,001,2020_Jan_31_1445,posner,3.1.5,60.05392842752349,
0.5,180,1,right,2,4,1,0,1,0,1,2,10,7,,,,,,,,,317.4945883999999,317.9944862000002,318.71228640000027,None,318.0112614999998,318.69567629999983,319.21301399999993,None,right,1,0.2780454000003374,319.21301399999993,None,None,318.0112614999998,319.19622569999956,0.5115687999996226,0.595197200000257,1.713286999999582,1.7967297999994116,,,,,nat_3,001,2020_Jan_31_1445,posner,3.1.5,60.05392842752349,
0.5,180,1,right,2,4,1,0,1,0,1,3,11,6,,,,,,,,,319.5140544999995,320.0139833000003,320.7316128000002,None,320.0309314999995,320.7149185999997,321.2324114000003,None,right,1,0.3068034000007174,321.2324114000003,None,None,320.0309314999995,321.21557380000013,0.5114739999999074,0.594839200000024,1.7130497999996805,1.7968631999992795,,,,,nat_3,001,2020_Jan_31_1445,posner,3.1.5,60.05392842752349,
0.5,0,0,right,1,4,1,0,1,0,1,4,12,3,,,,,,,,,321.5666627999999,322.06670179999946,322.78452430000016,None,322.0834672000001,322.7680141000001,323.28514970000015,None,right,1,0.31789760000083334,323.28514970000015,None,None,322.0834672000001,323.26863140000023,0.5114038000001528,0.5948918000003687,1.713317100000495,1.796661800000038,,,,,nat_3,001,2020_Jan_31_1445,posner,3.1.5,60.05392842752349,
-0.5,0,1,left,1,3,1,0,1,0,1,5,13,1,,,,,,,,,323.61971790000007,324.11966550000034,324.83698989999994,None,324.13632009999947,324.82077800000025,325.3378727999998,None,left,1,0.32914700000037556,325.3378727999998,None,None,324.13632009999947,325.3213374999996,0.5114205999998376,0.5948393999997279,1.7130740999991758,1.7962872999996762,,,,,nat_3,001,2020_Jan_31_1445,posner,3.1.5,60.05392842752349,
-0.5,0,1,left,1,3,1,0,1,0,1,6,14,2,,,,,,,,,325.6892071000002,326.1891313999995,326.9068092999996,None,326.20592510000006,326.8902742999999,327.4073185999996,None,left,1,0.3557329999994181,327.4073185999996,None,None,326.20592510000006,327.3907271999997,0.5111301999995703,0.5947615999994014,1.7127141999999367,1.7961734999998953,,,,,nat_3,001,2020_Jan_31_1445,posner,3.1.5,60.05392842752349,
-0.5,0,1,left,1,3,1,0,1,0,1,7,15,0,,,,,,,,,327.79185340000004,328.2920199,329.00983300000007,None,328.3088386999998,328.9930783,329.5105020000001,None,left,1,0.2846074999997654,329.5105020000001,None,None,328.3088386999998,329.49387279999974,0.5115815999997722,0.5949885999998514,1.713417599999957,1.79675589999988,,,,,nat_3,001,2020_Jan_31_1445,posner,3.1.5,60.05392842752349,
-0.5,180,0,left,2,3,1,0,1,0,2,0,16,4,,,,,,,,,329.81152399999974,330.3115184999997,331.0292677999996,None,330.3283972999998,331.0126878000001,331.5298679999996,None,left,1,0.3613466000006156,331.5298679999996,None,None,330.3283972999998,331.51317070000005,0.5116520999999921,0.5950722999996287,1.7132820999995602,1.7968630999994275,,,,,nat_3,001,2020_Jan_31_1445,posner,3.1.5,60.05392842752349,
-0.5,0,1,left,1,3,1,0,1,0,2,1,17,1,,,,,,,,,331.91476520000015,332.4143199,333.13202960000035,None,332.4311981999999,333.1151361000002,333.6328782999999,334.11675920000016,left,1,0.5942058999999063,333.6328782999999,None,None,332.4311981999999,333.6161003999996,0.5112269000001106,0.594804500000464,1.7129943999998432,1.7966225000000122,,,,,nat_3,001,2020_Jan_31_1445,posner,3.1.5,60.05392842752349,
0.5,180,1,right,2,4,1,0,1,0,2,2,18,5,,,,,,,,,334.2510080000002,334.75086269999974,335.4686392000003,None,334.76785889999974,335.4521573000002,335.9691452999996,None,right,1,0.3378536999998687,335.9691452999996,None,None,334.76785889999974,335.95280960000036,0.511285499999758,0.5947095999999874,1.7132105999999112,1.7963257999999769,,,,,nat_3,001,2020_Jan_31_1445,posner,3.1.5,60.05392842752349,
-0.5,0,1,left,1,3,1,0,1,0,2,3,19,0,,,,,,,,,336.3368387999999,336.8370712999995,337.5545708999998,None,336.8538744999996,337.5382859000001,338.0554254999997,None,left,1,0.2996554000001197,338.0554254999997,None,None,336.8538744999996,338.03887289999966,0.5114741999996113,0.5950254999997924,1.7132557999993878,1.7967368999998143,,,,,nat_3,001,2020_Jan_31_1445,posner,3.1.5,60.05392842752349,
0.5,0,0,right,1,4,1,0,1,0,2,4,20,3,,,,,,,,,338.3733917999998,338.8732705000002,339.5909898,None,338.8900271000002,339.57423740000013,340.09157589999995,None,right,1,0.34346999999979744,340.09157589999995,None,None,338.8900271000002,340.07495329999983,0.5115666000001511,0.5949475999996139,1.713230499999554,1.796704299999874,,,,,nat_3,001,2020_Jan_31_1445,posner,3.1.5,60.05392842752349,
-0.5,0,1,left,1,3,1,0,1,0,2,5,21,2,,,,,,,,,340.4593681999995,340.95935350000036,341.6771091999999,None,340.9761321999995,341.66039720000026,342.1778439999998,None,left,1,0.38505330000043614,342.1778439999998,None,None,340.9761321999995,342.1611524,0.5114801999998235,0.5950345000001107,1.7132566999998744,1.7965768999993088,,,,,nat_3,001,2020_Jan_31_1445,posner,3.1.5,60.05392842752349,
0.5,180,1,right,2,4,1,0,1,0,2,6,22,7,,,,,,,,,342.57904119999966,343.0789808999998,343.7969905,None,343.0958006000001,343.7801763999996,344.2974597000002,None,right,1,0.3456367999997383,344.2974597000002,None,None,343.0958006000001,344.28078840000035,0.5114659999999276,0.5948834000000716,1.7132500000006985,1.7964408000007097,,,,,nat_3,001,2020_Jan_31_1445,posner,3.1.5,60.05392842752349,
0.5,180,1,right,2,4,1,0,1,0,2,7,23,6,,,,,,,,,344.66470130000016,345.1651952000002,345.8833771999998,None,345.18200270000034,345.8660887999995,346.3839160999996,None,right,1,0.32316870000067865,346.3839160999996,None,None,345.18200270000034,346.3668496,0.5120039000003089,0.5957301999997071,1.7136405000001105,1.7974426000000676,,,,,nat_3,001,2020_Jan_31_1445,posner,3.1.5,60.05392842752349,
0.5,0,0,right,1,4,1,0,1,0,3,0,24,3,,,,,,,,,346.73472870000023,347.23449789999995,347.95244490000005,None,347.2516995999995,347.9356525000003,348.4531599000002,None,right,1,0.26978800000051706,348.4531599000002,None,None,347.2516995999995,348.43644349999977,0.5113970000002155,0.5952346000003672,1.7133222000002206,1.7967351000006602,,,,,nat_3,001,2020_Jan_31_1445,posner,3.1.5,60.05392842752349,
-0.5,0,1,left,1,3,1,0,1,0,3,1,25,1,,,,,,,,,348.7542266999999,349.2541448000002,349.97188499999993,None,349.2709396999999,349.9550223999995,350.4725467999997,None,left,1,0.3624781000007715,350.4725467999997,None,None,349.2709396999999,350.45578320000004,0.5116399999997157,0.5952543999992486,1.7132603999998537,1.7966366999999082,,,,,nat_3,001,2020_Jan_31_1445,posner,3.1.5,60.05392842752349,
0.5,180,1,right,2,4,1,0,1,0,3,2,26,5,,,,,,,,,350.8575000999999,351.3569646999995,352.0747406999999,None,351.3736825999995,352.0581425999999,352.5753933999995,None,right,1,0.37148119999983464,352.5753933999995,None,None,351.3736825999995,352.55887840000014,0.5112090000002354,0.5946605999997701,1.7131004000002577,1.7964566999999079,,,,,nat_3,001,2020_Jan_31_1445,posner,3.1.5,60.05392842752349,
-0.5,0,1,left,1,3,1,0,1,0,3,3,27,2,,,,,,,,,352.97648260000005,353.4766760000002,354.19437089999974,None,353.4935448999995,354.1776460000001,354.69497839999985,None,left,1,0.3160334000003786,354.69497839999985,None,None,353.4935448999995,354.67836160000024,0.5116433000002871,0.5950145999995584,1.7133056000002398,1.79674199999954,,,,,nat_3,001,2020_Jan_31_1445,posner,3.1.5,60.05392842752349,
-0.5,180,0,left,2,3,1,0,1,0,3,4,28,4,,,,,,,,,355.02976709999984,355.5294726000002,356.24707620000027,None,355.54621190000034,356.2304967,356.7478510000001,None,left,1,0.40722290000030625,356.7478510000001,None,None,355.54621190000034,356.7310792999997,0.5113070000006701,0.5949156000006042,1.712891099999979,1.7963703000004898,,,,,nat_3,001,2020_Jan_31_1445,posner,3.1.5,60.05392842752349,
0.5,180,1,right,2,4,1,0,1,0,3,5,29,6,,,,,,,,,357.18223229999967,357.68246610000006,358.4003512999998,None,357.6992842999998,358.3836677999998,358.9009724999996,None,right,1,0.3340200000002369,358.9009724999996,None,None,357.6992842999998,358.88442810000015,0.5117838999995001,0.5950636999996277,1.7137210000000778,1.797019999999975,,,,,nat_3,001,2020_Jan_31_1445,posner,3.1.5,60.05392842752349,
-0.5,0,1,left,1,3,1,0,1,0,3,6,30,0,,,,,,,,,359.25195259999964,359.7521165999997,360.4697661,None,359.7685725000001,360.45292379999955,360.9702639999996,None,left,1,0.34473679999973683,360.9702639999996,None,None,359.7685725000001,360.95385929999975,0.5117679999993925,0.595028399999137,1.713495399999374,1.796633899999506,,,,,nat_3,001,2020_Jan_31_1445,posner,3.1.5,60.05392842752349,
0.5,180,1,right,2,4,1,0,1,0,3,7,31,7,,,,,,,,,361.33830339999986,361.8382039999997,362.5557114000003,None,361.8547658999996,362.5389844000001,363.0564082000001,363.5405235999997,None,0,,363.0564082000001,None,None,361.8547658999996,363.03990520000025,0.5115925999998581,0.5949556999994456,1.7132655999994313,1.7966184999995676,,,,,nat_3,001,2020_Jan_31_1445,posner,3.1.5,60.05392842752349,
-0.5,0,1,left,1,3,1,0,1,0,4,0,32,0,,,,,,,,,364.0411846999996,364.5420312999995,365.25966789999984,364.0411846999996,364.5585381000001,365.24286610000036,365.7602359000002,None,left,1,0.29081179999957385,365.7602359000002,None,None,364.5585381000001,365.7435153999995,0.5138649000000441,0.5971081999996386,1.7153325999997833,1.798819900000126,,,,,nat_3,001,2020_Jan_31_1445,posner,3.1.5,60.05392842752349,
0.5,180,1,right,2,4,1,0,1,0,4,1,33,7,,,,,,,,,366.0775997999999,366.5781731999996,367.29553599999963,None,366.5944733999995,367.2790794000002,367.7964081,None,right,1,0.30238769999959914,367.7964081,None,None,366.5944733999995,367.7795350999995,0.5122577000001911,0.5955079000004844,1.7136085000001913,1.7972732000007454,,,,,nat_3,001,2020_Jan_31_1445,posner,3.1.5,60.05392842752349,
-0.5,180,0,left,2,3,1,0,1,0,4,2,34,4,,,,,,,,,368.1305645000002,368.6309197999999,369.3486319000003,None,368.6477365999999,369.3319216,369.8493317000002,None,left,1,0.3295144000003347,369.8493317000002,None,None,368.6477365999999,369.8327225000003,0.5116595999998026,0.594938700000057,1.713445800000045,1.7966479000006075,,,,,nat_3,001,2020_Jan_31_1445,posner,3.1.5,60.05392842752349,
0.5,180,1,right,2,4,1,0,1,0,4,3,35,5,,,,,,,,,370.20041990000027,370.7003816999995,371.4180865999997,None,370.71688019999965,371.40148190000036,371.9186364999996,None,right,1,0.3242769999997108,371.9186364999996,None,None,370.71688019999965,371.9019661000002,0.5114846000005855,0.5949174000006678,1.7130525000002308,1.7964507000006051,,,,,nat_3,001,2020_Jan_31_1445,posner,3.1.5,60.05392842752349,
0.5,180,1,right,2,4,1,0,1,0,4,4,36,6,,,,,,,,,372.2697713999996,372.76990529999966,373.48740369999996,None,372.78643829999965,373.4706897999995,373.98806950000017,None,right,1,0.2866980999997395,373.98806950000017,None,None,372.78643829999965,373.9716692000002,0.511808000000201,0.5952314000005572,1.7135545999999522,1.7966547000005448,,,,,nat_3,001,2020_Jan_31_1445,posner,3.1.5,60.05392842752349,
-0.5,0,1,left,1,3,1,0,1,0,4,5,37,2,,,,,,,,,374.30578499999956,374.8059285999998,375.5236884999995,None,374.82267260000026,375.5068087999998,376.02421719999984,None,left,1,0.2826685999998517,376.02421719999984,None,None,374.82267260000026,376.0076504999997,0.51146080000035,0.5950086000002557,1.7131643000002441,1.7966599000001224,,,,,nat_3,001,2020_Jan_31_1445,posner,3.1.5,60.05392842752349,
-0.5,0,1,left,1,3,1,0,1,0,4,6,38,1,,,,,,,,,376.3256252000001,376.82550830000037,377.5431773,None,376.8423313000003,377.5263054999996,378.0437572000001,None,left,1,0.3590940000003684,378.0437572000001,None,None,376.8423313000003,378.0270289,0.5113410000003569,0.5945684000007532,1.7128362000003108,1.7963721000005535,,,,,nat_3,001,2020_Jan_31_1445,posner,3.1.5,60.05392842752349,
0.5,0,0,right,1,4,1,0,1,0,4,7,39,3,,,,,,,,,378.42830520000007,378.9283540999995,379.6460778999999,None,378.9448666999997,379.6293095000001,380.1467389999998,None,right,1,0.28798550000010437,380.1467389999998,None,None,378.9448666999997,380.1298909999996,0.5116233999997348,0.5951493000002301,1.7131484000001365,1.7966915999995763,,,,,nat_3,001,2020_Jan_31_1445,posner,3.1.5,60.05392842752349,
0.5,180,1,right,2,4,1,0,1,0,5,0,40,5,,,,,,,,,380.46430189999955,380.9643506000002,381.6822569999995,None,380.98129770000014,381.66543999999976,382.18298030000005,None,right,1,0.21979089999967982,382.18298030000005,None,None,380.98129770000014,382.1660789999996,0.5115160999994259,0.595257799999672,1.7132480000000214,1.7967632999998386,,,,,nat_3,001,2020_Jan_31_1445,posner,3.1.5,60.05392842752349,
-0.5,0,1,left,1,3,1,0,1,0,5,1,41,2,,,,,,,,,382.4336000000003,382.93378980000034,383.6514717,None,382.95075329999963,383.63466999999946,384.1522460999995,None,left,1,0.2985768000007738,384.1522460999995,None,None,382.95075329999963,384.1353806999996,0.5116519000002882,0.5951832999999169,1.7132213000004413,1.796888200000467,,,,,nat_3,001,2020_Jan_31_1445,posner,3.1.5,60.05392842752349,
-0.5,0,1,left,1,3,1,0,1,0,5,2,42,1,,,,,,,,,384.47003940000013,384.96988919999967,385.6876990999999,None,384.98640239999986,385.6709413999997,386.1883736,None,left,1,0.2786699000007502,386.1883736,None,None,384.98640239999986,386.17152590000023,0.5111844000002748,0.5945109000003868,1.7128068000001804,1.7961757000002763,,,,,nat_3,001,2020_Jan_31_1445,posner,3.1.5,60.05392842752349,
0.5,180,1,right,2,4,1,0,1,0,5,3,43,7,,,,,,,,,386.48911899999985,386.9894838,387.7070034999997,None,387.0059309999997,387.69019800000024,388.2076307999996,None,right,1,0.22726529999999912,388.2076307999996,None,None,387.0059309999997,388.1912162999997,0.5121037999997498,0.5954775000000154,1.7138197000003856,1.7970851999998558,,,,,nat_3,001,2020_Jan_31_1445,posner,3.1.5,60.05392842752349,
-0.5,180,0,left,2,3,1,0,1,0,5,4,44,4,,,,,,,,,388.45888130000003,388.9588236999998,389.67640370000026,None,388.9753316999995,389.6597320000001,390.17700609999974,None,left,1,0.4176574000002802,390.17700609999974,None,None,388.9753316999995,390.1602727999998,0.5115513999999166,0.5949057999996512,1.7129884999994829,1.7965612999996665,,,,,nat_3,001,2020_Jan_31_1445,posner,3.1.5,60.05392842752349,
-0.5,0,1,left,1,3,1,0,1,0,5,5,45,0,,,,,,,,,390.6115695999997,391.1118483,391.8295842999996,None,391.1284714000003,391.8128915999996,392.3302056000002,None,left,1,0.2806027000005997,392.3302056000002,None,None,391.1284714000003,392.3133339999995,0.51185439999972,0.5951764999999796,1.7133248999998614,1.796829699999762,,,,,nat_3,001,2020_Jan_31_1445,posner,3.1.5,60.05392842752349,
0.5,0,0,right,1,4,1,0,1,0,5,6,46,3,,,,,,,,,392.63118920000034,393.1311218999999,393.8489770999995,None,393.1478651999996,393.83212300000014,394.34956239999974,None,right,1,0.34117520000017976,394.34956239999974,None,None,393.1478651999996,394.3328945000003,0.5114448000003904,0.5948825000004945,1.7132041000004392,1.796505000000252,,,,,nat_3,001,2020_Jan_31_1445,posner,3.1.5,60.05392842752349,
0.5,180,1,right,2,4,1,0,1,0,5,7,47,6,,,,,,,,,394.71753269999954,395.2174927999995,395.93500849999964,None,395.2340457,395.9183723999995,396.43556139999964,None,right,1,0.2871110999994926,396.43556139999964,None,None,395.2340457,396.4190410000001,0.5117651999998998,0.5951375999993616,1.713295300000027,1.7967292999992424,,,,,nat_3,001,2020_Jan_31_1445,posner,3.1.5,60.05392842752349,
-0.5,180,0,left,2,3,1,0,1,0,6,0,48,4,,,,,,,,,396.7535922999996,397.25345839999954,397.97135329999946,None,397.27020840000023,397.9544327000003,398.4719477999997,None,left,1,0.3468860999992103,398.4719477999997,None,None,397.27020840000023,398.45512099999996,0.5112123999997493,0.594489899999644,1.7128633000002083,1.7964218999995865,,,,,nat_3,001,2020_Jan_31_1445,posner,3.1.5,60.05392842752349,
0.5,180,1,right,2,4,1,0,1,0,6,1,49,6,,,,,,,,,398.8399833000003,399.3397205000001,400.0571841000001,None,399.3564815999998,400.04061209999963,400.55816289999984,None,right,1,0.27648410000074364,400.55816289999984,None,None,399.3564815999998,400.5413090000002,0.5115089000000808,0.5952347000002192,1.7130823000006785,1.7963808000004065,,,,,nat_3,001,2020_Jan_31_1445,posner,3.1.5,60.05392842752349,
-0.5,0,1,left,1,3,1,0,1,0,6,2,50,2,,,,,,,,,400.85931139999957,401.35908050000035,402.0766101999998,None,401.37571449999996,402.06010049999986,402.5773637000002,None,left,1,0.33727209999960905,402.5773637000002,None,None,401.37571449999996,402.5609371999999,0.5115061999995305,0.595090099999652,1.7133412999992288,1.7965697999998156,,,,,nat_3,001,2020_Jan_31_1445,posner,3.1.5,60.05392842752349,
0.5,0,0,right,1,4,1,0,1,0,6,3,51,3,,,,,,,,,402.9451184999998,403.44523709999976,404.16317679999975,None,403.46202730000005,404.14628600000015,404.6636631000001,None,right,1,0.29907530000036786,404.6636631000001,None,None,403.46202730000005,404.6469066999998,0.5115429999996195,0.5951175999998668,1.7131886999995913,1.796749699999964,,,,,nat_3,001,2020_Jan_31_1445,posner,3.1.5,60.05392842752349,
0.5,180,1,right,2,4,1,0,1,0,6,4,52,5,,,,,,,,,404.9814809999998,405.4815779999999,406.19929609999963,None,405.4981944000001,406.1824138000002,406.69983909999974,None,right,1,0.32685140000012325,406.69983909999974,None,None,405.4981944000001,406.68321259999993,0.5117586000005758,0.5951248000001215,1.7133809000006295,1.7967379000001529,,,,,nat_3,001,2020_Jan_31_1445,posner,3.1.5,60.05392842752349,
0.5,180,1,right,2,4,1,0,1,0,6,5,53,7,,,,,,,,,407.0509079000003,407.5510869999998,408.2686166000003,None,407.5678376999995,408.25200080000013,408.7693423999999,None,right,1,0.3054351000000679,408.7693423999999,None,None,407.5678376999995,408.7527592999995,0.5114754000005632,0.5946947000002183,1.7131491000000096,1.7964090000004944,,,,,nat_3,001,2020_Jan_31_1445,posner,3.1.5,60.05392842752349,
-0.5,0,1,left,1,3,1,0,1,0,6,6,54,0,,,,,,,,,409.1035406000001,409.60382180000033,410.3215296999997,None,409.6204877,410.3047053,410.82229180000013,None,left,1,0.3164513000001534,410.82229180000013,None,None,409.6204877,410.8053520000003,0.5116843999994671,0.595172399999683,1.713201399999889,1.7966381999995065,,,,,nat_3,001,2020_Jan_31_1445,posner,3.1.5,60.05392842752349,
-0.5,0,1,left,1,3,1,0,1,0,6,7,55,1,,,,,,,,,411.15683379999973,411.65657660000034,412.37423899999976,None,411.6733972000002,412.3574768999997,412.87505390000024,None,left,1,0.2636304999996355,412.87505390000024,None,None,411.6733972000002,412.85851790000015,0.5113734000005934,0.5947530000003098,1.7132792000002155,1.7965220000005502,,,,,nat_3,001,2020_Jan_31_1445,posner,3.1.5,60.05392842752349,
0.5,0,0,right,1,4,1,0,1,0,7,0,56,3,,,,,,,,,413.15952259999995,413.65949850000015,414.37706270000035,None,413.6759468999999,414.3604284000003,414.8779456000002,None,right,1,0.3246585999995659,414.8779456000002,None,None,413.6759468999999,414.8609958999996,0.5114301000003252,0.594767900000079,1.7129150999999183,1.7964326000001165,,,,,nat_3,001,2020_Jan_31_1445,posner,3.1.5,60.05392842752349,
0.5,180,1,right,2,4,1,0,1,0,7,1,57,6,,,,,,,,,415.2288118999995,415.7289516000001,416.4466024000003,None,415.74553730000025,416.4300112000001,416.9472507999999,None,right,1,0.28724400000010064,416.9472507999999,None,None,415.74553730000025,416.9304698999995,0.5116969000000609,0.5951752000000852,1.7131906000004165,1.7966341999999713,,,,,nat_3,001,2020_Jan_31_1445,posner,3.1.5,60.05392842752349,
0.5,180,1,right,2,4,1,0,1,0,7,2,58,7,,,,,,,,,417.26469629999974,417.7650972000001,418.4827798999995,None,417.7820167,418.4660093000002,418.98327340000014,None,right,1,0.26739009999982954,418.98327340000014,None,None,417.7820167,418.96658060000027,0.5117135999998936,0.5950860000002649,1.7131859999999506,1.7969196000003649,,,,,nat_3,001,2020_Jan_31_1445,posner,3.1.5,60.05392842752349,
-0.5,0,1,left,1,3,1,0,1,0,7,3,59,2,,,,,,,,,419.2682149000002,419.76792599999953,420.4854138999999,None,419.78456430000006,420.46882619999997,420.986081,None,left,1,0.2645685000006779,420.986081,None,None,419.78456430000006,420.9694158000002,0.511371099999451,0.5945428999993965,1.7128517000001011,1.796360100000129,,,,,nat_3,001,2020_Jan_31_1445,posner,3.1.5,60.05392842752349,
-0.5,0,1,left,1,3,1,0,1,0,7,4,60,0,,,,,,,,,421.27066000000013,421.77059009999994,422.48815360000026,None,421.78707060000033,422.47154930000033,422.9889819,None,left,1,0.37375949999932345,422.9889819,None,None,421.78707060000033,422.9720907000001,0.5113866000001508,0.5946634000001723,1.7128757999998925,1.7963443999997253,,,,,nat_3,001,2020_Jan_31_1445,posner,3.1.5,60.05392842752349,
0.5,180,1,right,2,4,1,0,1,0,7,5,61,5,,,,,,,,,423.39001110000027,423.8901428999998,424.6076618999996,None,423.9067316999999,424.59114299999965,425.1085948,None,right,1,0.2859236000003875,425.1085948,None,None,423.9067316999999,425.0916593000002,0.5116059000001769,0.5948227999997471,1.7131089999993492,1.7965518000000884,,,,,nat_3,001,2020_Jan_31_1445,posner,3.1.5,60.05392842752349,
-0.5,0,1,left,1,3,1,0,1,0,7,6,62,1,,,,,,,,,425.4259575999995,425.9263304999995,426.64386879999984,None,425.94291559999965,426.6272251999999,427.1444233000002,None,left,1,0.29812159999983123,427.1444233000002,None,None,425.94291559999965,427.1279489999997,0.5117552000001524,0.5952514999999039,1.7133561999999074,1.796636000000035,,,,,nat_3,001,2020_Jan_31_1445,posner,3.1.5,60.05392842752349,
-0.5,180,0,left,2,3,1,0,1,0,7,7,63,4,,,,,,,,,427.4619010999995,427.9623866000002,428.6801544,None,427.9791285000001,428.6632475999995,429.18048439999984,429.6646112999997,left,1,0.5341883000000962,429.18048439999984,None,None,427.9791285000001,429.1639249,0.512374699999782,0.5957225000001927,1.7138950999997178,1.797613700000511,,,,,nat_3,001,2020_Jan_31_1445,posner,3.1.5,60.05392842752349,
-0.5,180,0,left,2,3,1,0,1,0,8,0,64,4,,,,,,,,,429.7322833999997,430.23226429999977,430.95000809999965,None,430.2490667000002,430.93312530000003,431.45062679999955,None,left,1,0.35995199999979377,431.45062679999955,None,None,430.2490667000002,431.43382050000037,0.5116301999996722,0.5948908999998821,1.713175599999886,1.7965296999991551,,,,,nat_3,001,2020_Jan_31_1445,posner,3.1.5,60.05392842752349,
0.5,180,1,right,2,4,1,0,1,0,8,1,65,7,,,,,,,,,431.8345776999995,432.3348735999998,433.0527775999999,None,432.3517688000002,433.03593439999986,433.5532653999999,None,right,1,0.32124130000011064,433.5532653999999,None,None,432.3517688000002,433.53653510000004,0.5118298000006689,0.5954479000001811,1.713479300000472,1.797077100000024,,,,,nat_3,001,2020_Jan_31_1445,posner,3.1.5,60.05392842752349,
0.5,180,1,right,2,4,1,0,1,0,8,2,66,6,,,,,,,,,433.90405779999946,434.40451140000005,435.1221580000001,None,434.42121789999965,435.10542199999963,435.62294629999997,None,right,1,0.2836859999997614,435.62294629999997,None,None,434.42121789999965,435.60624310000003,0.5118828999993639,0.5954035999993721,1.7135958999997456,1.7971279999992475,,,,,nat_3,001,2020_Jan_31_1445,posner,3.1.5,60.05392842752349,
-0.5,0,1,left,1,3,1,0,1,0,8,3,67,0,,,,,,,,,435.92396050000025,436.4239558999998,437.1417732,None,436.44062250000025,437.1249633999996,437.64247090000026,None,left,1,0.3760500000007596,437.64247090000026,None,None,436.44062250000025,437.62552589999996,0.511603500000092,0.5951003999998647,1.7131615999996939,1.796823300000142,,,,,nat_3,001,2020_Jan_31_1445,posner,3.1.5,60.05392842752349,
-0.5,0,1,left,1,3,1,0,1,0,8,4,68,2,,,,,,,,,438.0432367000003,438.54366670000036,439.26123199999984,None,438.5602583,439.2444814999999,439.76194849999956,None,left,1,0.3685886000002938,439.76194849999956,None,None,438.5602583,439.74522890000026,0.5120257999997193,0.5951852999996845,1.7135846999999558,1.7969758999997794,,,,,nat_3,001,2020_Jan_31_1445,posner,3.1.5,60.05392842752349,
0.5,0,0,right,1,4,1,0,1,0,8,5,69,3,,,,,,,,,440.1463934000003,440.64669369999956,441.36399729999994,None,440.66305420000026,441.34762500000033,441.8646192999995,None,right,1,0.297844100000475,441.8646192999995,None,None,440.66305420000026,441.8481783999996,0.5118468000000576,0.595226399999774,1.7133138999997755,1.7968021999995472,,,,,nat_3,001,2020_Jan_31_1445,posner,3.1.5,60.05392842752349,
0.5,180,1,right,2,4,1,0,1,0,8,6,70,5,,,,,,,,,442.1825141999998,442.68246569999974,443.4004067999995,None,442.6994923000002,443.38368059999993,443.90089890000036,None,right,1,0.2935532000001331,443.90089890000036,None,None,442.6994923000002,443.88451859999986,0.5115653000002567,0.5950451999997313,1.7135990999995556,1.7967448999997941,,,,,nat_3,001,2020_Jan_31_1445,posner,3.1.5,60.05392842752349,
-0.5,0,1,left,1,3,1,0,1,0,8,7,71,1,,,,,,,,,444.21880489999967,444.7188323999999,445.4362454000002,None,444.7353579999999,445.4196546000003,445.93743209999957,None,left,1,0.3530209999998988,445.93743209999957,None,None,444.7353579999999,445.9204917999996,0.5116851000002498,0.594952700000249,1.713328900000306,1.7965962999996918,,,,,nat_3,001,2020_Jan_31_1445,posner,3.1.5,60.05392842752349,
-0.5,180,0,left,2,3,1,0,1,0,9,0,72,4,,,,,,,,,446.3211765999995,446.82166489999963,447.53916200000003,None,446.8383888999997,447.52264730000024,448.03992800000015,None,left,1,0.37847320000037143,448.03992800000015,None,None,446.8383888999997,448.0232624999999,0.5117951000001995,0.5951617999999144,1.7133813000000373,1.7968907000004037,,,,,nat_3,001,2020_Jan_31_1445,posner,3.1.5,60.05392842752349,
-0.5,0,1,left,1,3,1,0,1,0,9,1,73,2,,,,,,,,,448.4409834999997,448.94131449999986,449.6588608000002,None,448.95795009999983,449.6421855999997,450.1596233,None,left,1,0.3707464999997683,450.1596233,None,None,448.95795009999983,450.14298150000013,0.5119101999998747,0.595107499999358,1.713565899999594,1.7966356999995696,,,,,nat_3,001,2020_Jan_31_1445,posner,3.1.5,60.05392842752349,
0.5,180,1,right,2,4,1,0,1,0,9,2,74,5,,,,,,,,,450.5607248999995,451.0608323999995,451.7783260999995,None,451.0772458000001,451.76178139999956,452.2790961999999,None,right,1,0.26739679999991495,452.2790961999999,None,None,451.0772458000001,452.2626687000002,0.5115435000006983,0.5948520000001736,1.7133632000004582,1.7965994000005594,,,,,nat_3,001,2020_Jan_31_1445,posner,3.1.5,60.05392842752349,
0.5,0,0,right,1,4,1,0,1,0,9,3,75,3,,,,,,,,,452.5635763,453.0634540000001,453.7811380000003,None,453.0802170999996,453.7644061000001,454.2819172999998,None,right,1,0.31247849999999744,454.2819172999998,None,None,453.0802170999996,454.2652906000003,0.5113503000002311,0.5948669000008522,1.7131736999999703,1.7967584000007264,,,,,nat_3,001,2020_Jan_31_1445,posner,3.1.5,60.05392842752349,
0.5,180,1,right,2,4,1,0,1,0,9,4,76,7,,,,,,,,,454.6156701,455.1163588999998,455.83384099999967,None,455.1329949000001,455.8173949000002,456.3345878,None,right,1,0.2758103000005576,456.3345878,None,None,455.1329949000001,456.3181134999995,0.5116188000001785,0.5950113000008059,1.7133552000004784,1.7968054000002667,,,,,nat_3,001,2020_Jan_31_1445,posner,3.1.5,60.05392842752349,
-0.5,0,1,left,1,3,1,0,1,0,9,5,77,0,,,,,,,,,456.6360537999999,457.13567539999985,457.8533818999995,None,457.1525597,457.83674229999997,458.3539854999999,None,left,1,0.27240530000017316,458.3539854999999,None,None,457.1525597,458.33740690000013,0.5114636000007522,0.5950541000001976,1.71317530000033,1.7967783000003692,,,,,nat_3,001,2020_Jan_31_1445,posner,3.1.5,60.05392842752349,
0.5,180,1,right,2,4,1,0,1,0,9,6,78,6,,,,,,,,,458.65474769999946,459.1551314999997,459.87284660000023,None,459.1720115999997,459.85610590000033,460.37343539999983,None,right,1,0.3490332000001217,460.37343539999983,None,None,459.1720115999997,460.3570173999997,0.5121557000002213,0.5956834000007802,1.7140218000004097,1.7974878000004537,,,,,nat_3,001,2020_Jan_31_1445,posner,3.1.5,60.05392842752349,
-0.5,0,1,left,1,3,1,0,1,0,9,7,79,1,,,,,,,,,460.74141169999984,461.2418203999996,461.9589851999999,None,461.2581159000001,461.94246490000023,462.4597213999996,None,left,1,0.3266168000000107,462.4597213999996,None,None,461.2581159000001,462.44310080000014,0.5120100000003731,0.5950597999999445,1.713269500000024,1.7967324999999619,,,,,nat_3,001,2020_Jan_31_1445,posner,3.1.5,60.05392842752349,
-0.5,0,1,left,1,3,1,0,1,0,10,0,80,0,,,,,,,,,462.8108688000002,463.31084250000004,464.02864359999967,None,463.32754879999993,464.01188809999985,464.5294076,None,left,1,0.3529320999996344,464.5294076,None,None,463.32754879999993,464.5128093000003,0.5112139000002571,0.5947954000002937,1.7131660000004558,1.7965154000003167,,,,,nat_3,001,2020_Jan_31_1445,posner,3.1.5,60.05392842752349,
0.5,0,0,right,1,4,1,0,1,0,10,1,81,3,,,,,,,,,464.91375160000007,465.4137461999999,466.1315666999999,None,465.4305333000002,466.11465039999985,466.6322987000003,None,right,1,0.3301259999998365,466.6322987000003,None,None,465.4305333000002,466.6153543999999,0.5114008999998987,0.59500239999943,1.7129949999998644,1.7968063999996957,,,,,nat_3,001,2020_Jan_31_1445,posner,3.1.5,60.05392842752349,
0.5,180,1,right,2,4,1,0,1,0,10,2,82,5,,,,,,,,,466.9828723999999,467.48328690000017,468.20116450000023,None,467.50017969999953,468.18429659999947,468.70159349999994,None,right,1,0.2927742000001672,468.70159349999994,None,None,467.50017969999953,468.68504399999983,0.5118222999999489,0.5952950000000783,1.7135566999995717,1.7969937999996546,,,,,nat_3,001,2020_Jan_31_1445,posner,3.1.5,60.05392842752349,
-0.5,180,0,left,2,3,1,0,1,0,10,3,83,4,,,,,,,,,469.01941689999967,469.51970429999983,470.2371215000003,None,469.5362119000001,470.2204178000002,470.7377022999999,471.2219478999996,None,0,,470.7377022999999,None,None,469.5362119000001,470.72122839999975,0.5116251999997985,0.5946864999996251,1.7131327999995847,1.7963595000001078,,,,,nat_3,001,2020_Jan_31_1445,posner,3.1.5,60.05392842752349,
-0.5,0,1,left,1,3,1,0,1,0,10,4,84,1,,,,,,,,,471.72251289999986,472.2232205999999,472.9407779000003,471.72251289999986,472.2398522000003,472.92402570000013,473.44163539999954,None,left,1,0.304724300000089,473.44163539999954,None,None,472.2398522000003,473.42480499999965,0.5134599000002709,0.5968194000006406,1.7150306000003184,1.7983772000006866,,,,,nat_3,001,2020_Jan_31_1445,posner,3.1.5,60.05392842752349,
-0.5,0,1,left,1,3,1,0,1,0,10,5,85,2,,,,,,,,,473.7758525999998,474.2758438000001,474.99368589999995,None,474.2927772000003,474.9769261000001,475.4942712000002,None,left,1,0.45999120000033145,475.4942712000002,None,None,474.2927772000003,475.4776396999996,0.5113946000001306,0.5949579999996786,1.7131680000002234,1.7967149999994945,,,,,nat_3,001,2020_Jan_31_1445,posner,3.1.5,60.05392842752349,
0.5,180,1,right,2,4,1,0,1,0,10,6,86,6,,,,,,,,,475.97908819999975,476.47895549999976,477.1966387000002,None,476.4957529000003,477.18005280000034,477.6973971999996,478.18146389999947,None,0,,477.6973971999996,None,None,476.4957529000003,477.68071020000025,0.511464100000012,0.5951394000003347,1.713194800000565,1.7964413999998214,,,,,nat_3,001,2020_Jan_31_1445,posner,3.1.5,60.05392842752349,
0.5,180,1,right,2,4,1,0,1,0,10,7,87,7,,,,,,,,,478.6821103000002,479.1826804000002,479.9005459,478.6821103000002,479.19959579999977,479.8837834999995,480.4011254999996,None,right,1,0.32122200000048906,480.4011254999996,None,None,479.19959579999977,480.3845798000002,0.5136689000000842,0.5971725999997943,1.7155499999998938,1.7986885000000257,,,,,nat_3,001,2020_Jan_31_1445,posner,3.1.5,60.05392842752349,
,,,,,,1,0,1,0,,,,,,,,,,,,,,,,,,,,,,,,,,,,,,,,,480.75188849999995,None,1.6699999832781032e-05,0.9957576999995581,nat_3,001,2020_Jan_31_1445,posner,3.1.5,60.05392842752349,
-0.5,0,1,left,1,3,2,0,2,0,0,0,0,1,1.1199999789823778e-05,0.09736309999971127,541.7687896999996,None,1.4600000213249587e-05,0.09786859999985609,543.8718012999998,None,544.1513714000002,544.6559942000004,545.3737656000003,None,544.6727905999996,545.3572254999999,545.8743654,None,left,1,0.3035447000002023,545.8743654,None,None,544.6727905999996,545.8579565,0.5135442999999213,0.5970864999999321,1.7154838999995263,1.798621999999341,,,,,nat_3,001,2020_Jan_31_1445,posner,3.1.5,60.05392842752349,
0.5,180,1,right,2,4,2,0,2,0,0,1,1,6,,,,,,,,,546.2092379999995,546.7089534999996,547.4266803,None,546.7254577000003,547.4099009000001,547.9274437000004,None,right,1,0.2824866999999358,547.9274437000004,None,None,546.7254577000003,547.9104264999996,0.5107863000002908,0.5940857000005053,1.7122472999999445,1.7957600999998249,,,,,nat_3,001,2020_Jan_31_1445,posner,3.1.5,60.05392842752349,
-0.5,180,0,left,2,3,2,0,2,0,0,2,2,4,,,,,,,,,548.2284258999998,548.7285122000003,549.4461382999998,None,548.7449049999996,549.4294490000002,549.9468085999997,None,left,1,0.3115245999997569,549.9468085999997,None,None,548.7449049999996,549.9300706000004,0.511555899999621,0.5948396000003413,1.7130950999999186,1.796297500000037,,,,,nat_3,001,2020_Jan_31_1445,posner,3.1.5,60.05392842752349,
0.5,180,1,right,2,4,2,0,2,0,0,3,3,5,,,,,,,,,550.2810306000001,550.7811228999999,551.4990212000002,None,550.7980121,551.4820282000001,551.9995335000003,None,right,1,0.22636640000018815,551.9995335000003,None,None,550.7980121,551.9828668999999,0.5118908000004012,0.5953414000005068,1.7136091000002125,1.7969110000003639,,,,,nat_3,001,2020_Jan_31_1445,posner,3.1.5,60.05392842752349,
-0.5,0,1,left,1,3,2,0,2,0,0,4,4,2,,,,,,,,,552.2503178999996,552.7507016999998,553.4682583000003,None,552.7670343999998,553.4515834000003,553.9689132000003,None,left,1,0.2571422999999413,553.9689132000003,None,None,552.7670343999998,553.9523324000002,0.5115507999998954,0.5946383999998943,1.7131638000000748,1.7964666999996552,,,,,nat_3,001,2020_Jan_31_1445,posner,3.1.5,60.05392842752349,
0.5,0,0,right,1,4,2,0,2,0,0,5,5,3,,,,,,,,,554.2531214999999,554.7530500000003,555.4708346999996,None,554.7701322000003,555.4541810999999,555.9716960999995,None,right,1,0.2860669000001508,555.9716960999995,None,None,554.7701322000003,555.9548857999998,0.5113963000003423,0.5952907000000778,1.713221699999849,1.7968611000005694,,,,,nat_3,001,2020_Jan_31_1445,posner,3.1.5,60.05392842752349,
0.5,180,1,right,2,4,2,0,2,0,0,6,6,7,,,,,,,,,556.2892296,556.7893249999997,557.5072276999999,None,556.8060792999995,557.4904108999999,558.0077547999999,None,right,1,0.2342225000002145,558.0077547999999,None,None,556.8060792999995,557.9911638000003,0.5114713000002666,0.5950479000002815,1.7132879999999204,1.7967108000002554,,,,,nat_3,001,2020_Jan_31_1445,posner,3.1.5,60.05392842752349,
-0.5,0,1,left,1,3,2,0,2,0,0,7,7,0,,,,,,,,,558.2588989999995,558.7588106000003,559.4762811,None,558.7752927000001,559.4597512,559.9772299999995,None,left,1,0.20093089999954827,559.9772299999995,None,None,558.7752927000001,559.9604034000004,0.5114542999999685,0.5950613000004523,1.7130291000003126,1.7964956000005259,,,,,nat_3,001,2020_Jan_31_1445,posner,3.1.5,60.05392842752349,
-0.5,180,0,left,2,3,2,0,2,0,1,0,8,4,,,,,,,,,560.1949047999997,560.6946193000003,561.4126218000001,None,560.7114783999996,561.3958636999996,561.9130219999997,None,left,1,0.3290559999995821,561.9130219999997,None,None,560.7114783999996,561.8964454999996,0.5113484000003155,0.5949633000000176,1.7131569000002855,1.796525499999916,,,,,nat_3,001,2020_Jan_31_1445,posner,3.1.5,60.05392842752349,
0.5,180,1,right,2,4,2,0,2,0,1,1,9,6,,,,,,,,,562.2639319999998,562.7642720000003,563.4819559999996,None,562.7811708999998,563.4651760999996,563.9827021000001,None,right,1,0.2592019000003347,563.9827021000001,None,None,562.7811708999998,563.9657772,0.5119450000001962,0.5954965999999331,1.7134304999999586,1.7970465999997032,,,,,nat_3,001,2020_Jan_31_1445,posner,3.1.5,60.05392842752349,
0.5,0,0,right,1,4,2,0,2,0,1,2,10,3,,,,,,,,,564.2672874,564.7670667000002,565.4845984000003,None,564.7837552000001,565.4679304000001,565.9853617999997,None,right,1,0.30447189999995317,565.9853617999997,None,None,564.7837552000001,565.9686301000002,0.5116705000000366,0.5950504000002184,1.7132168999996793,1.796422800000073,,,,,nat_3,001,2020_Jan_31_1445,posner,3.1.5,60.05392842752349,
0.5,180,1,right,2,4,2,0,2,0,1,3,11,5,,,,,,,,,566.3196459999999,566.8198161,567.5377560999996,None,566.8365199999998,567.5209297000001,568.0383498000001,None,right,1,0.2836096999999427,568.0383498000001,None,None,566.8365199999998,568.0215337999998,0.5116496999999072,0.5949769999997443,1.7133162999998603,1.7966788999992787,,,,,nat_3,001,2020_Jan_31_1445,posner,3.1.5,60.05392842752349,
-0.5,0,1,left,1,3,2,0,2,0,1,4,12,1,,,,,,,,,568.3389518000004,568.8392456000001,569.5568838999998,None,568.8559898000003,569.5404073999998,570.057648,None,left,1,0.31215919999976904,570.057648,None,None,568.8559898000003,570.0408949000002,0.5113078999993377,0.5948395999994318,1.7129454999994778,1.7963341999993645,,,,,nat_3,001,2020_Jan_31_1445,posner,3.1.5,60.05392842752349,
-0.5,0,1,left,1,3,2,0,2,0,1,5,13,2,,,,,,,,,570.3921712000001,570.8922967999997,571.6097080999998,None,570.9087981000002,571.5931328999995,572.1105302999995,None,left,1,0.29122169999936887,572.1105302999995,None,None,570.9087981000002,572.0936302,0.5116484000000128,0.594947300000058,1.712973000000602,1.796615300000667,,,,,nat_3,001,2020_Jan_31_1445,posner,3.1.5,60.05392842752349,
-0.5,0,1,left,1,3,2,0,2,0,1,6,14,0,,,,,,,,,572.4281627999999,572.9280360000002,573.6464715000002,None,572.9446989999997,573.6294952999997,574.1469612000001,None,left,1,0.31883970000035333,574.1469612000001,None,None,572.9446989999997,574.1300737000001,0.5114159000004292,0.5950162000008277,1.7134443000004467,1.796792600000117,,,,,nat_3,001,2020_Jan_31_1445,posner,3.1.5,60.05392842752349,
0.5,180,1,right,2,4,2,0,2,0,1,7,15,7,,,,,,,,,574.4985387999996,574.997883,575.7153619000001,None,575.0146058,575.6988449,576.2161466999996,None,right,1,0.2657952999998088,576.2161466999996,None,None,575.0146058,576.1996567999995,0.511577600000237,0.5952022999999826,1.7133351000002222,1.7966661000000386,,,,,nat_3,001,2020_Jan_31_1445,posner,3.1.5,60.05392842752349,
-0.5,180,0,left,2,3,2,0,2,0,2,0,16,4,,,,,,,,,576.5012513000001,577.0006512999998,577.7184276999997,None,577.0173647000001,577.7018396000003,578.2193520999999,None,left,1,0.2944569999999658,578.2193520999999,None,None,577.0173647000001,578.2023809000002,0.5110770999999659,0.5945929999998043,1.7127851999994164,1.7960669999993115,,,,,nat_3,001,2020_Jan_31_1445,posner,3.1.5,60.05392842752349,
-0.5,0,1,left,1,3,2,0,2,0,2,1,17,2,,,,,,,,,578.5363685000002,579.0368344999997,579.7544169000003,None,579.0533917000002,579.7379940999999,580.2550628999998,None,left,1,0.3226893999999447,580.2550628999998,None,None,579.0533917000002,580.2385163999998,0.5124213999997664,0.5960478999995757,1.714068899999802,1.7975255999999717,,,,,nat_3,001,2020_Jan_31_1445,posner,3.1.5,60.05392842752349,
0.5,180,1,right,2,4,2,0,2,0,2,2,18,7,,,,,,,,,580.6067112000001,581.1063225999997,581.8240023999997,None,581.1230993999998,581.8073556999998,582.3247249999995,None,right,1,0.23699730000043928,582.3247249999995,None,None,581.1230993999998,582.3079687,0.5120113000002675,0.5953361000001678,1.713385400000334,1.7968557000003784,,,,,nat_3,001,2020_Jan_31_1445,posner,3.1.5,60.05392842752349,
0.5,180,1,right,2,4,2,0,2,0,2,3,19,6,,,,,,,,,582.5924070000001,583.0927093,583.8100452999997,None,583.109966,583.7934022,584.3105349999996,None,right,1,0.25111680000009073,584.3105349999996,None,None,583.109966,584.2939239999996,0.5114244000005783,0.5946917999999641,1.7126229000004969,1.7962168000003658,,,,,nat_3,001,2020_Jan_31_1445,posner,3.1.5,60.05392842752349,
-0.5,0,1,left,1,3,2,0,2,0,2,4,20,1,,,,,,,,,584.5786769999995,585.0785895999998,585.7962334000003,None,585.0953610999995,585.7795311,586.2967873999996,None,left,1,0.29705900000044494,586.2967873999996,None,None,585.0953610999995,586.2800076000003,0.5117090000003373,0.5949436999999307,1.7131200000003446,1.7966661000000386,,,,,nat_3,001,2020_Jan_31_1445,posner,3.1.5,60.05392842752349,
0.5,0,0,right,1,4,2,0,2,0,2,5,21,3,,,,,,,,,586.6148846999995,587.1147842999999,587.8323197999998,None,587.1313184,587.8154648,588.3329080000003,None,right,1,0.2767868000000817,588.3329080000003,None,None,587.1313184,588.3163856000001,0.511685700000271,0.5950743000003058,1.713257500000509,1.7964582000004157,,,,,nat_3,001,2020_Jan_31_1445,posner,3.1.5,60.05392842752349,
-0.5,0,1,left,1,3,2,0,2,0,2,6,22,0,,,,,,,,,588.6336154,589.1340159000001,589.8516837999996,None,589.1505750999995,589.8347481999999,590.3524699999998,None,left,1,0.3053352000006271,590.3524699999998,None,None,589.1505750999995,590.3355461000001,0.5121319000008953,0.5955932000006214,1.7136440000003859,1.797267500000089,,,,,nat_3,001,2020_Jan_31_1445,posner,3.1.5,60.05392842752349,
0.5,180,1,right,2,4,2,0,2,0,2,7,23,5,,,,,,,,,590.6871165000002,591.1870373000002,591.9044215000004,None,591.2034602000003,591.888027,592.4051307,None,right,1,0.2525494000001345,592.4051307,None,None,591.2034602000003,592.3884909999997,0.5118346999997812,0.594978600000104,1.7132712000002357,1.796827199999825,,,,,nat_3,001,2020_Jan_31_1445,posner,3.1.5,60.05392842752349,
-0.5,0,1,left,1,3,2,0,2,0,3,0,24,2,,,,,,,,,592.6888337999999,593.1895585000002,593.9073054,None,593.2063484999999,593.8905537999999,594.4079562999996,None,left,1,0.24981790000038018,594.4079562999996,None,None,593.2063484999999,594.3911547999996,0.512433100000635,0.5959755000003497,1.7140158000001975,1.797494899999947,,,,,nat_3,001,2020_Jan_31_1445,posner,3.1.5,60.05392842752349,
0.5,180,1,right,2,4,2,0,2,0,3,1,25,7,,,,,,,,,594.6760643999996,595.1756101999999,595.8931458999996,None,595.1923908999997,595.8768242999995,596.3939381999999,None,right,1,0.21584729999995034,596.3939381999999,None,None,595.1923908999997,596.3772066000001,0.5113068999999086,0.5948856000004525,1.7128866000002745,1.796448699999928,,,,,nat_3,001,2020_Jan_31_1445,posner,3.1.5,60.05392842752349,
-0.5,0,1,left,1,3,2,0,2,0,3,2,26,0,,,,,,,,,596.6290301999998,597.1282802999995,597.8459413999999,None,597.1450488999999,597.8295878999998,598.3469635000001,None,left,1,0.262694900000497,598.3469635000001,None,None,597.1450488999999,598.3301538999995,0.5111950000000434,0.5946948000000702,1.7130579000004218,1.7962894000002052,,,,,nat_3,001,2020_Jan_31_1445,posner,3.1.5,60.05392842752349,
-0.5,180,0,left,2,3,2,0,2,0,3,3,27,4,,,,,,,,,598.6315781000003,599.1311923000003,599.8488699,None,599.1479895000002,599.8321156000002,600.3494847000002,None,left,1,0.35633749999942665,600.3494847000002,None,None,599.1479895000002,600.3331167999995,0.5115972000003239,0.5948594999999841,1.7135096000001795,1.7965373000006366,,,,,nat_3,001,2020_Jan_31_1445,posner,3.1.5,60.05392842752349,
0.5,180,1,right,2,4,2,0,2,0,3,4,28,6,,,,,,,,,600.7350061999996,601.2338312000002,601.9517118000003,None,601.2507138999999,601.9348891,602.4524341999995,None,right,1,0.2691362999994453,602.4524341999995,None,None,601.2507138999999,602.4351750999995,0.5109780999991926,0.5947606999998243,1.712285399999928,1.7960231999995813,,,,,nat_3,001,2020_Jan_31_1445,posner,3.1.5,60.05392842752349,
0.5,0,0,right,1,4,2,0,2,0,3,5,29,3,,,,,,,,,602.7529919999997,603.2532429000003,603.9711933999997,None,603.2700009,603.9548603000003,604.4718207999995,None,right,1,0.31379479999941395,604.4718207999995,None,None,603.2700009,604.4549137000004,0.5116533999998865,0.595078299999841,1.7133053999996264,1.7968026999997164,,,,,nat_3,001,2020_Jan_31_1445,posner,3.1.5,60.05392842752349,
0.5,180,1,right,2,4,2,0,2,0,3,6,30,5,,,,,,,,,604.8204655,605.3057595999999,606.0242064000004,None,605.3228707999997,606.0071871,606.5245773999995,None,right,1,0.2929686999996193,606.5245773999995,None,None,605.3228707999997,606.5078596000003,0.5095562000005884,0.5937155999999959,1.7116397999998298,1.7955218000006425,,,,,nat_3,001,2020_Jan_31_1445,posner,3.1.5,60.05392842752349,
-0.5,0,1,left,1,3,2,0,2,0,3,7,31,1,,,,,,,,,606.8425955000002,607.3423972999999,608.0602123999997,None,607.3591073999996,608.0436086999998,608.5605495999998,None,left,1,0.3369346999998015,608.5605495999998,None,None,607.3591073999996,608.5440239,0.5117526999993061,0.5951670999993439,1.7133694999993168,1.7968225999993592,,,,,nat_3,001,2020_Jan_31_1445,posner,3.1.5,60.05392842752349,
0.5,180,1,right,2,4,2,0,2,0,4,0,32,5,,,,,,,,,608.9288359000002,609.4287118000002,610.1459239999995,None,609.4450557,610.1293238999997,610.6469105999995,None,right,1,0.26679929999954766,610.6469105999995,None,None,609.4450557,610.6297981999996,0.5117280999993454,0.5951793999993242,1.7128187999996953,1.79662289999942,,,,,nat_3,001,2020_Jan_31_1445,posner,3.1.5,60.05392842752349,
-0.5,0,1,left,1,3,2,0,2,0,4,1,33,2,,,,,,,,,610.9315737999996,611.4310210000003,612.1490148000003,None,611.4479625000004,612.1320761999996,612.6495935000003,None,left,1,0.2958881999993537,612.6495935000003,None,None,611.4479625000004,612.6329046000001,0.5113227000001643,0.5947974000000613,1.7131781000007322,1.7965779000005568,,,,,nat_3,001,2020_Jan_31_1445,posner,3.1.5,60.05392842752349,
0.5,180,1,right,2,4,2,0,2,0,4,2,34,7,,,,,,,,,612.9681576000003,613.4674041999997,614.1850530000002,None,613.4840498000003,614.1682470999995,614.6859666,None,right,1,0.259657700000389,614.6859666,None,None,613.4840498000003,614.6694402000003,0.5115945999996256,0.5951417999995101,1.7136018000001059,1.7965421999997488,,,,,nat_3,001,2020_Jan_31_1445,posner,3.1.5,60.05392842752349,
-0.5,180,0,left,2,3,2,0,2,0,4,3,35,4,,,,,,,,,614.9699418999999,615.4703565,616.1876573,None,615.4869883000001,616.1711347999999,616.6885627000001,None,left,1,0.3050741000006383,616.6885627000001,None,None,615.4869883000001,616.6716035,0.5117412999998123,0.5948644000000058,1.7129766999996718,1.7966049999995448,,,,,nat_3,001,2020_Jan_31_1445,posner,3.1.5,60.05392842752349,
-0.5,0,1,left,1,3,2,0,2,0,4,4,36,1,,,,,,,,,617.0222519999998,617.5227861000003,618.2407152999995,None,617.5398576999996,618.2235295999999,618.7414251,None,left,1,0.3322301000007428,618.7414251,None,None,617.5398576999996,618.7245334999998,0.5121194000003015,0.5956767999996373,1.713873099999546,1.7975924000002124,,,,,nat_3,001,2020_Jan_31_1445,posner,3.1.5,60.05392842752349,
0.5,180,1,right,2,4,2,0,2,0,4,5,37,6,,,,,,,,,619.0934652999995,619.5929612,620.3102504999997,None,619.6092337,620.2934975999997,620.8105205000002,None,right,1,0.26299639999979263,620.8105205000002,None,None,619.6092337,620.7940249000003,0.5117653999996037,0.5946481999999378,1.7128046999996513,1.7965303999999378,,,,,nat_3,001,2020_Jan_31_1445,posner,3.1.5,60.05392842752349,
0.5,0,0,right,1,4,2,0,2,0,4,6,38,3,,,,,,,,,621.0946475999999,621.5947482000001,622.3125926000002,None,621.6121014,622.2959806999997,622.8137000999996,None,right,1,0.29175669999949605,622.8137000999996,None,None,621.6121014,622.7975571999996,0.5117165000001478,0.5956349999996746,1.714517800000067,1.796547300000384,,,,,nat_3,001,2020_Jan_31_1445,posner,3.1.5,60.05392842752349,
-0.5,0,1,left,1,3,2,0,2,0,4,7,39,0,,,,,,,,,623.1309847000002,623.6314553000002,624.3490974999995,None,623.6480755000002,624.3321166999995,624.8501133999998,None,left,1,0.30348679999951855,624.8501133999998,None,None,623.6480755000002,624.8328648999995,0.5123449000002438,0.5956078999997771,1.7137177000004158,1.7974097000005713,,,,,nat_3,001,2020_Jan_31_1445,posner,3.1.5,60.05392842752349,
0.5,180,1,right,2,4,2,0,2,0,5,0,40,6,,,,,,,,,625.1836051,625.6840259999999,626.4017211,None,625.7010312000002,626.3849062999998,626.9024683999996,None,right,1,0.28320629999961966,626.9024683999996,None,None,625.7010312000002,626.8862989999998,0.5117546999999831,0.5954105999999229,1.7140213000002404,1.7973470000006273,,,,,nat_3,001,2020_Jan_31_1445,posner,3.1.5,60.05392842752349,
-0.5,0,1,left,1,3,2,0,2,0,5,1,41,2,,,,,,,,,627.2038781000001,627.7035354,628.4212970999997,None,627.7202841999997,628.4043430000002,628.9218036000002,None,left,1,0.2799190000005183,628.9218036000002,None,None,627.7202841999997,628.9051376999996,0.5112460000000283,0.5947314999993978,1.7128285999997388,1.7964256999994177,,,,,nat_3,001,2020_Jan_31_1445,posner,3.1.5,60.05392842752349,
0.5,180,1,right,2,4,2,0,2,0,5,2,42,7,,,,,,,,,629.2227856999998,629.7228825000002,630.4405595999997,None,629.7398164999995,630.4238532999998,630.9414635000003,None,right,1,0.24392640000041865,630.9414635000003,None,None,629.7398164999995,630.9246072999995,0.511523400000442,0.5951783999998952,1.713249800000085,1.796737700000449,,,,,nat_3,001,2020_Jan_31_1445,posner,3.1.5,60.05392842752349,
0.5,0,0,right,1,4,2,0,2,0,5,3,43,3,,,,,,,,,631.2091688999999,631.7091996999998,632.4267018999999,None,631.7256466999997,632.4101082999996,632.9274995999995,None,right,1,0.3379745999991428,632.9274995999995,None,None,631.7256466999997,632.9106258000002,0.5114613999994617,0.5946108999996795,1.7128616999998485,1.7962699999998222,,,,,nat_3,001,2020_Jan_31_1445,posner,3.1.5,60.05392842752349,
-0.5,180,0,left,2,3,2,0,2,0,5,4,44,4,,,,,,,,,633.2951086000003,633.7952907999997,634.5128374999995,None,633.8119629000003,634.4963443999995,635.0136321,None,left,1,0.3318398999999772,635.0136321,None,None,633.8119629000003,634.9969879999999,0.5120323000001008,0.5953779999999824,1.7137136999999711,1.797142299999905,,,,,nat_3,001,2020_Jan_31_1445,posner,3.1.5,60.05392842752349,
-0.5,0,1,left,1,3,2,0,2,0,5,5,45,1,,,,,,,,,635.3648320000002,635.8647539000003,636.5823695999998,None,635.8814689000001,636.5656410000001,637.0829163999997,None,left,1,0.29455379999944853,637.0829163999997,None,None,635.8814689000001,637.0664323999999,0.5115746999999828,0.5950269000004482,1.713212999999996,1.7966880000003584,,,,,nat_3,001,2020_Jan_31_1445,posner,3.1.5,60.05392842752349,
-0.5,0,1,left,1,3,2,0,2,0,5,6,46,0,,,,,,,,,637.4012959000002,637.9008112000001,638.6184708999999,None,637.9175542000003,638.6019006999995,639.1184419000001,None,left,1,0.3070391000001109,639.1184419000001,None,None,637.9175542000003,639.1035313000002,0.5108112999996592,0.5943116999997073,1.7135342000001401,1.7964696999997614,,,,,nat_3,001,2020_Jan_31_1445,posner,3.1.5,60.05392842752349,
0.5,180,1,right,2,4,2,0,2,0,5,7,47,5,,,,,,,,,639.4537887999995,639.9537675000001,640.6715500999999,None,639.9706569,640.6544348999996,641.1721163000002,None,right,1,0.3175740999995469,641.1721163000002,None,None,639.9706569,641.1547314999998,0.5117330000002767,0.5955322999998316,1.7126852000001236,1.7965186999999787,,,,,nat_3,001,2020_Jan_31_1445,posner,3.1.5,60.05392842752349,
0.5,180,1,right,2,4,2,0,2,0,6,0,48,7,,,,,,,,,641.5068743000002,642.0068845999995,642.7242046000001,None,642.0236568,642.7077164000002,643.2248417000001,None,right,1,0.2967564999999013,643.2248417000001,None,None,642.0236568,643.2081238000001,0.5125122999997984,0.5955765999997311,1.713750799999616,1.797410299999683,,,,,nat_3,001,2020_Jan_31_1445,posner,3.1.5,60.05392842752349,
-0.5,0,1,left,1,3,2,0,2,0,6,1,49,1,,,,,,,,,643.5421796999999,644.0427529999997,644.7605954999999,None,644.0594916,644.7437295999998,645.2608460000001,None,left,1,0.3407859999997527,645.2608460000001,None,None,644.0594916,645.2441239999998,0.5121873999996751,0.5960415999998077,1.7135160999996515,1.7970131000001857,,,,,nat_3,001,2020_Jan_31_1445,posner,3.1.5,60.05392842752349,
-0.5,180,0,left,2,3,2,0,2,0,6,2,50,4,,,,,,,,,645.6295547999998,646.1288783999998,646.8467516000001,None,646.1455015000001,646.8298494000001,647.3470762999996,None,left,1,0.4145293000001402,647.3470762999996,None,None,646.1455015000001,647.3306080000002,0.5118212000006679,0.5950559000002613,1.7135541000006924,1.7969812000001184,,,,,nat_3,001,2020_Jan_31_1445,posner,3.1.5,60.05392842752349,
0.5,0,0,right,1,4,2,0,2,0,6,3,51,3,,,,,,,,,647.7821389999999,648.2818703000003,648.9998999,None,648.2988515999996,648.9834037999999,649.5005413999997,None,right,1,0.29277559999991354,649.5005413999997,None,None,648.2988515999996,649.4833692000002,0.5115799999994124,0.5950289999991583,1.7130560999994486,1.7969372999996267,,,,,nat_3,001,2020_Jan_31_1445,posner,3.1.5,60.05392842752349,
-0.5,0,1,left,1,3,2,0,2,0,6,4,52,0,,,,,,,,,649.8184851999995,650.3180671999999,651.0356320999999,None,650.3346916,651.0190876999995,651.5364829999999,None,left,1,0.27298739999969257,651.5364829999999,None,None,650.3346916,651.5198216999997,0.5117172999998729,0.5949774999999136,1.7134129999994911,1.796678200000315,,,,,nat_3,001,2020_Jan_31_1445,posner,3.1.5,60.05392842752349,
0.5,180,1,right,2,4,2,0,2,0,6,5,53,5,,,,,,,,,651.8374688000004,652.3374609000002,653.0550926999995,None,652.3541943999999,653.0384269999995,653.5557565999998,None,right,1,0.269700499999999,653.5557565999998,None,None,652.3541943999999,653.5392525999996,0.511962699999458,0.5956073999996079,1.7137325999992754,1.7969735999995464,,,,,nat_3,001,2020_Jan_31_1445,posner,3.1.5,60.05392842752349,
0.5,180,1,right,2,4,2,0,2,0,6,6,54,6,,,,,,,,,653.8568926999997,654.3566552000002,655.0744492000003,None,654.3737255999995,655.0578823999995,655.5751646999997,None,right,1,0.2662644000001819,655.5751646999997,None,None,654.3737255999995,655.5586612999996,0.5113743000001705,0.5953171000001021,1.713358199999675,1.7967939000000115,,,,,nat_3,001,2020_Jan_31_1445,posner,3.1.5,60.05392842752349,
-0.5,0,1,left,1,3,2,0,2,0,6,7,55,2,,,,,,,,,655.8597612000003,656.3596897999996,657.0774836999999,None,656.3763771000004,657.0608151999995,657.5782405,None,left,1,0.3909656999994695,657.5782405,None,None,656.3763771000004,657.5614281999997,0.5117955999994592,0.595251400000052,1.7135154999996303,1.796880599999895,,,,,nat_3,001,2020_Jan_31_1445,posner,3.1.5,60.05392842752349,
0.5,180,1,right,2,4,2,0,2,0,7,0,56,7,,,,,,,,,657.9961387000003,658.4960341999995,659.2135140999999,None,658.5126577999999,659.1969911999995,659.7143571999995,None,right,1,0.27083349999975326,659.7143571999995,None,None,658.5126577999999,659.6976871999996,0.5121064999993905,0.5953756999997495,1.7136805999998614,1.7971920999998474,,,,,nat_3,001,2020_Jan_31_1445,posner,3.1.5,60.05392842752349,
0.5,180,1,right,2,4,2,0,2,0,7,1,57,6,,,,,,,,,660.0157091000001,660.5153901000003,661.2340131000001,None,660.5320740999996,661.2163338,661.7337914,None,right,1,0.21965990000080637,661.7337914,None,None,660.5320740999996,661.7169431000002,0.5108167999997022,0.5942192999991676,1.7123486999998931,1.7960651999992479,,,,,nat_3,001,2020_Jan_31_1445,posner,3.1.5,60.05392842752349,
0.5,180,1,right,2,4,2,0,2,0,7,2,58,5,,,,,,,,,661.9843724000002,662.4846103999998,663.2025108999997,None,662.5014822000003,663.1856755999997,663.7030328000001,None,right,1,0.33042010000008304,663.7030328000001,None,None,662.5014822000003,663.6863811000003,0.5116636000002472,0.5952775000005204,1.713419600000634,1.7971535000006043,,,,,nat_3,001,2020_Jan_31_1445,posner,3.1.5,60.05392842752349,
-0.5,180,0,left,2,3,2,0,2,0,7,3,59,4,,,,,,,,,664.0535406999998,664.5541574999997,665.2717799000002,None,664.5711811000001,665.2550234,665.7727532999997,None,right,0,0.3729276000003665,665.7727532999997,None,None,664.5711811000001,665.7557544000001,0.5120833999999377,0.5957854999996925,1.7136872999999468,1.7976309999994555,,,,,nat_3,001,2020_Jan_31_1445,posner,3.1.5,60.05392842752349,
-0.5,0,1,left,1,3,2,0,2,0,7,4,60,2,,,,,,,,,666.1740422000003,666.6737947000001,667.3914986,None,666.6904799000004,667.3747952000003,667.8924072999998,None,left,1,0.36495149999973364,667.8924072999998,None,None,666.6904799000004,667.8753819000003,0.5113979999996445,0.595047999999224,1.7129556999998385,1.7965945999994801,,,,,nat_3,001,2020_Jan_31_1445,posner,3.1.5,60.05392842752349,
-0.5,0,1,left,1,3,2,0,2,0,7,5,61,0,,,,,,,,,668.2775817000002,668.7769177,669.4942375,None,668.7937277000001,669.4776286999995,669.99521,None,left,1,0.3099892000000182,669.99521,None,None,668.7937277000001,669.9784952999998,0.5118691999996372,0.5949408999995285,1.7134292000000642,1.796921399999519,,,,,nat_3,001,2020_Jan_31_1445,posner,3.1.5,60.05392842752349,
-0.5,0,1,left,1,3,2,0,2,0,7,6,62,1,,,,,,,,,670.3294052000001,670.8294205000002,671.5472858000003,None,670.8462843999996,671.5306714999997,672.0480121,None,left,1,0.32113810000009835,672.0480121,None,None,670.8462843999996,672.0313805999995,0.5120672000002742,0.5957254000004468,1.7139861000005112,1.7971588000000338,,,,,nat_3,001,2020_Jan_31_1445,posner,3.1.5,60.05392842752349,
0.5,0,0,right,1,4,2,0,2,0,7,7,63,3,,,,,,,,,672.3990685999997,672.8992588000001,673.6168576999999,None,672.9159459000002,673.6000458999997,674.1177422000001,None,right,1,0.2995538999994096,674.1177422000001,None,None,672.9159459000002,674.1008880999998,0.5120483999999124,0.5952066999998351,1.713665100000071,1.797194099999615,,,,,nat_3,001,2020_Jan_31_1445,posner,3.1.5,60.05392842752349,
-0.5,180,0,left,2,3,2,0,2,0,8,0,64,4,,,,,,,,,674.4355361999997,674.9352116999999,675.6529952000001,None,674.9519766000003,675.6362919000003,676.1535093000002,None,left,1,0.3438083999999435,676.1535093000002,None,None,674.9519766000003,676.1368851999996,0.5118783999996595,0.5954504999999699,1.7135240999996313,1.79719969999951,,,,,nat_3,001,2020_Jan_31_1445,posner,3.1.5,60.05392842752349,
0.5,180,1,right,2,4,2,0,2,0,8,1,65,5,,,,,,,,,676.5210054999998,677.0213871999995,677.7392776999995,None,677.0379532999996,677.7223861000002,678.2402067000003,None,right,1,0.27316570000039064,678.2402067000003,None,None,677.0379532999996,678.2231206999995,0.5119940000004135,0.5955390000008265,1.7137341000006927,1.7972617000004902,,,,,nat_3,001,2020_Jan_31_1445,posner,3.1.5,60.05392842752349,
-0.5,0,1,left,1,3,2,0,2,0,8,2,66,1,,,,,,,,,678.5413564999999,679.0408465999999,679.7587303,None,679.057613,679.7417941000003,680.2594123999997,None,left,1,0.2857745999999679,680.2594123999997,None,None,679.057613,680.2425217,0.5114790000006906,0.5950494000007893,1.7131401000006008,1.7969964000003529,,,,,nat_3,001,2020_Jan_31_1445,posner,3.1.5,60.05392842752349,
0.5,180,1,right,2,4,2,0,2,0,8,3,67,7,,,,,,,,,680.5775056000002,681.0769757999997,681.7947124000002,None,681.0936130999999,681.7780493,682.2956531,None,right,1,0.29767510000056063,682.2956531,None,None,681.0936130999999,682.2786514999998,0.5115878999995402,0.5953058999994028,1.713256499999261,1.79663359999995,,,,,nat_3,001,2020_Jan_31_1445,posner,3.1.5,60.05392842752349,
0.5,0,0,right,1,4,2,0,2,0,8,4,68,3,,,,,,,,,682.6138283999999,683.1130598999998,683.8308845000001,None,683.1299747000003,683.8140920999995,684.3314764999996,None,right,1,0.30983370000012656,684.3314764999996,None,None,683.1299747000003,684.3147713999997,0.5111088999992717,0.5946594999995796,1.7127880999996705,1.7962542999994184,,,,,nat_3,001,2020_Jan_31_1445,posner,3.1.5,60.05392842752349,
-0.5,0,1,left,1,3,2,0,2,0,8,5,69,2,,,,,,,,,684.6665063999999,685.1660284,685.8837825999999,None,685.1828303000002,685.8676083,686.3844416000002,None,left,1,0.30461120000018127,686.3844416000002,None,None,685.1828303000002,686.3675420999998,0.5115206999998918,0.5951764000001276,1.7130041999998866,1.7965878999993947,,,,,nat_3,001,2020_Jan_31_1445,posner,3.1.5,60.05392842752349,
-0.5,0,1,left,1,3,2,0,2,0,8,6,70,0,,,,,,,,,686.7181331000002,687.2188249000001,687.9364198000003,None,687.2352946000001,687.9196389999997,688.4373100000003,None,left,1,0.2840714999992997,688.4373100000003,None,None,687.2352946000001,688.4204385000003,0.5123550999996951,0.5955556999997498,1.7139578999995138,1.797256699999707,,,,,nat_3,001,2020_Jan_31_1445,posner,3.1.5,60.05392842752349,
0.5,180,1,right,2,4,2,0,2,0,8,7,71,6,,,,,,,,,688.7383916999997,689.2381517000003,689.9558406999995,None,689.2547348999997,689.9390501999997,690.4564019,None,right,1,0.2808143000002019,690.4564019,None,None,689.2547348999997,690.4399635,0.5112254000005123,0.5945160000001124,1.7130202999996982,1.796186999999918,,,,,nat_3,001,2020_Jan_31_1445,posner,3.1.5,60.05392842752349,
0.5,0,0,right,1,4,2,0,2,0,9,0,72,3,,,,,,,,,690.7577302,691.2576419999996,691.9751260000003,None,691.2741562000001,691.9584288999995,692.4757773000001,None,right,1,0.30936449999990145,692.4757773000001,None,None,691.2741562000001,692.4593560000003,0.5114668000005622,0.5949485999999524,1.7131651999998212,1.7963417999999365,,,,,nat_3,001,2020_Jan_31_1445,posner,3.1.5,60.05392842752349,
-0.5,180,0,left,2,3,2,0,2,0,9,1,73,4,,,,,,,,,692.8103279999996,693.3104578000002,694.0281416999997,None,693.3271674999996,694.0114629,694.5286047,None,left,1,0.3205416000000696,694.5286047,None,None,693.3271674999996,694.5120459999998,0.5118979999997464,0.5951464999998279,1.713463199999751,1.796838299999763,,,,,nat_3,001,2020_Jan_31_1445,posner,3.1.5,60.05392842752349,
0.5,180,1,right,2,4,2,0,2,0,9,2,74,5,,,,,,,,,694.8797807999999,695.3798750999995,696.0976331000002,None,695.3966399000001,696.0809105999997,696.5983078999998,None,right,1,0.28298460000041814,696.5983078999998,None,None,695.3966399000001,696.5815552000004,0.5113688999999795,0.5946736999994755,1.7130299000000377,1.796377399999983,,,,,nat_3,001,2020_Jan_31_1445,posner,3.1.5,60.05392842752349,
-0.5,0,1,left,1,3,2,0,2,0,9,3,75,0,,,,,,,,,696.9001126000003,697.3992849999995,698.1171011999995,None,697.4158816999998,698.1002226,698.6176226999996,None,left,1,0.3274093999998513,698.6176226999996,None,None,697.4158816999998,698.6010121999998,0.5107336999999461,0.5940833000004204,1.7124237999996694,1.7958645999997316,,,,,nat_3,001,2020_Jan_31_1445,posner,3.1.5,60.05392842752349,
