targetX,cueOri,congr,corrAns,pin_cue,pin_target,block.thisRepN,block.thisTrialN,block.thisN,block.thisIndex,posner_task.thisRepN,posner_task.thisTrialN,posner_task.thisN,posner_task.thisIndex,port_start_block.started,port_start_block.stopped,text_2.started,text_2.stopped,p_port.started,p_port.stopped,text.started,text.stopped,fixation_1.started,fixation_1.stopped,fixation_2.started,fixation_2.stopped,cue.started,cue.stopped,target.started,target.stopped,correct_key_resp.keys,correct_key_resp.corr,correct_key_resp.rt,correct_key_resp.started,correct_key_resp.stopped,early_resp.keys,early_resp.started,early_resp.stopped,trigger_cue.started,trigger_cue.stopped,trigger_target.started,trigger_target.stopped,break_text.started,break_text.stopped,end_port.started,end_port.stopped,early_resp.rt,participant,session,date,expName,psychopyVersion,frameRate,
0.5,180,1,right,2,4,0,0,0,0,0,0,0,6,1.7600000319362152e-05,0.09748400000034962,16.450147399999878,None,1.5500000245083356e-05,0.0995786000003136,18.335788599999887,None,18.677198599999883,19.18720039999971,19.888110699999743,None,19.18720039999971,19.888110699999743,20.388770499999737,None,right,1,0.4155420000001868,20.388770499999737,None,None,19.18720039999971,20.388770499999737,0.5024250000001302,0.602766900000006,1.704340200000388,1.7875388000002204,,,,,,katie_1,001,2020_Jan_30_1204,posner,3.1.5,60.021163462184695,
-0.5,0,1,left,1,3,0,0,0,0,0,1,1,2,,,,,,,,,20.82392579999987,21.323410799999692,22.041154600000027,None,21.340248099999826,22.024535099999866,22.541762800000015,None,left,1,0.39861110000038025,22.541762800000015,None,None,21.340248099999826,22.525166799999624,0.5104897999999594,0.5937412999996923,1.7122224999998252,1.7956726999996135,,,,,,katie_1,001,2020_Jan_30_1204,posner,3.1.5,60.021163462184695,
0.5,0,0,right,1,4,0,0,0,0,0,2,2,3,,,,,,,,,22.96005869999999,23.45979209999996,24.177217499999642,None,23.476346699999795,24.16081899999972,24.6780233999998,None,right,1,0.40644750000001295,24.6780233999998,None,None,23.476346699999795,24.66128149999986,0.5116379999999481,0.5949819000002208,1.7131094999999732,1.7966049000001476,,,,,,katie_1,001,2020_Jan_30_1204,posner,3.1.5,60.021163462184695,
-0.5,180,0,left,2,3,0,0,0,0,0,3,3,4,,,,,,,,,25.11283239999966,25.61274400000002,26.330562099999952,None,25.629433799999788,26.313696100000016,26.831234499999937,None,left,1,0.31733799999983603,26.831234499999937,None,None,25.629433799999788,26.814381899999717,0.5117423000001509,0.5950675999997657,1.713365000000067,1.7966938999998092,,,,,,katie_1,001,2020_Jan_30_1204,posner,3.1.5,60.021163462184695,
0.5,180,1,right,2,4,0,0,0,0,0,4,4,7,,,,,,,,,27.165551399999913,27.665590099999918,28.383250699999735,None,27.682302999999592,28.36643839999988,28.883745899999667,None,right,1,0.34450159999960306,28.883745899999667,None,None,27.682302999999592,28.867041099999824,0.5116640999999618,0.595158199999787,1.7130957999997918,1.7965207999995982,,,,,,katie_1,001,2020_Jan_30_1204,posner,3.1.5,60.021163462184695,
-0.5,0,1,left,1,3,0,0,0,0,0,5,5,1,,,,,,,,,29.2515728999997,29.75168309999981,30.469453599999724,None,29.768508799999836,30.452728599999773,30.970100999999886,None,left,1,0.3623790999999983,30.970100999999886,None,None,29.768508799999836,30.95342249999976,0.5112765999997464,0.5947077000000718,1.7129924999999275,1.7962817999996332,,,,,,katie_1,001,2020_Jan_30_1204,posner,3.1.5,60.021163462184695,
0.5,180,1,right,2,4,0,0,0,0,0,6,6,5,,,,,,,,,31.35479609999993,31.85470129999976,32.572402899999815,None,31.871375799999896,32.5555061,33.073016299999836,None,right,1,0.3792558000000099,33.073016299999836,None,None,31.871375799999896,33.05626949999987,0.5114967999998044,0.594940399999814,1.7130561999997553,1.7966495999999097,,,,,,katie_1,001,2020_Jan_30_1204,posner,3.1.5,60.021163462184695,
-0.5,0,1,left,1,3,0,0,0,0,0,7,7,0,,,,,,,,,33.47427289999996,33.97427979999975,34.69199709999975,None,33.99100839999983,34.67510889999994,35.19253359999993,None,left,1,0.37166830000023765,35.19253359999993,None,None,33.99100839999983,35.17585239999971,0.5114739000000554,0.5948367000000871,1.7130342999998902,1.796782500000063,,,,,,katie_1,001,2020_Jan_30_1204,posner,3.1.5,60.021163462184695,
-0.5,180,0,left,2,3,0,0,0,0,1,0,8,4,,,,,,,,,35.593579599999885,36.09396609999976,36.81161639999982,None,36.11056429999962,36.79469819999986,37.31210939999983,None,left,1,0.444158900000275,37.31210939999983,None,None,36.11056429999962,37.29526969999961,0.5118759000001774,0.5951783999998952,1.7131604000001062,1.7969668000000638,,,,,,katie_1,001,2020_Jan_30_1204,posner,3.1.5,60.021163462184695,
0.5,180,1,right,2,4,0,0,0,0,1,1,9,7,,,,,,,,,37.78009649999967,38.28019059999997,38.997616899999684,None,38.29662599999983,38.98106199999984,39.498439899999994,None,right,1,0.38577269999996133,39.498439899999994,None,None,38.29662599999983,39.48169429999962,0.5118038000000524,0.5952732999999171,1.713291399999889,1.7967985999998746,,,,,,katie_1,001,2020_Jan_30_1204,posner,3.1.5,60.021163462184695,
0.5,0,0,right,1,4,0,0,0,0,1,2,10,3,,,,,,,,,39.91590449999967,40.41611869999997,41.1340310999999,None,40.43298159999995,41.11726639999961,41.634779199999684,None,right,1,0.4415189000001192,41.634779199999684,None,None,40.43298159999995,41.617953599999964,0.5115504000000328,0.5953487000001587,1.713366599999972,1.7969498000002204,,,,,,katie_1,001,2020_Jan_30_1204,posner,3.1.5,60.021163462184695,
-0.5,0,1,left,1,3,0,0,0,0,1,3,11,0,,,,,,,,,42.102606899999955,42.60292589999972,43.320494099999905,None,42.61942599999975,43.30397189999985,43.821046099999876,None,left,1,0.35113749999982247,43.821046099999876,None,None,42.61942599999975,43.804446599999665,0.5118104000002859,0.5949579000002814,1.7133207000001676,1.7967367000001104,,,,,,katie_1,001,2020_Jan_30_1204,posner,3.1.5,60.021163462184695,
0.5,180,1,right,2,4,0,0,0,0,1,4,12,5,,,,,,,,,44.189225299999634,44.68900029999986,45.40662109999994,None,44.70561809999981,45.389880699999594,45.907293899999786,None,right,1,0.2969717999999375,45.907293899999786,None,None,44.70561809999981,45.89057539999976,0.5115148999998382,0.5948131999998623,1.7130784999999378,1.7965678999999,,,,,,katie_1,001,2020_Jan_30_1204,posner,3.1.5,60.021163462184695,
-0.5,0,1,left,1,3,0,0,0,0,1,5,13,1,,,,,,,,,46.2251696999997,46.725197699999626,47.44275889999972,None,46.74206409999988,47.42599449999989,47.943420299999616,None,left,1,0.3168863999999303,47.943420299999616,None,None,46.74206409999988,47.92658399999982,0.5116654999997081,0.5950921999997263,1.7130382000000282,1.7968086000000767,,,,,,katie_1,001,2020_Jan_30_1204,posner,3.1.5,60.021163462184695,
-0.5,0,1,left,1,3,0,0,0,0,1,6,14,2,,,,,,,,,48.27737699999989,48.77785649999987,49.49551059999976,None,48.794411599999876,49.47892939999974,49.99610719999964,None,left,1,0.448145299999851,49.99610719999964,None,None,48.794411599999876,49.979584799999884,0.5113432000002831,0.5948580000003858,1.7130494000002727,1.7966583000002174,,,,,,katie_1,001,2020_Jan_30_1204,posner,3.1.5,60.021163462184695,
0.5,180,1,right,2,4,0,0,0,0,1,7,15,6,,,,,,,,,50.464414399999896,50.96429769999986,51.6819387999999,None,50.9810250999999,51.66516709999996,52.182710699999916,None,right,1,0.3254543000002741,52.182710699999916,None,None,50.9810250999999,52.16582309999967,0.5115633000000344,0.594898600000306,1.713074300000244,1.796530999999959,,,,,,katie_1,001,2020_Jan_30_1204,posner,3.1.5,60.021163462184695,
0.5,0,0,right,1,4,0,0,0,0,2,0,16,3,,,,,,,,,52.53369309999971,53.03375039999992,53.751558899999964,None,53.05057009999973,53.734928599999876,54.252082299999984,None,right,1,0.3601405999997951,54.252082299999984,None,None,53.05057009999973,54.23538849999977,0.5116360000001805,0.5947854000000916,1.7132559000001493,1.7968869000001177,,,,,,katie_1,001,2020_Jan_30_1204,posner,3.1.5,60.021163462184695,
-0.5,0,1,left,1,3,0,0,0,0,2,1,17,1,,,,,,,,,54.6361251999997,55.13661549999961,55.854474599999776,None,55.153551499999594,55.83761379999987,56.35506589999977,None,left,1,0.35304770000038843,56.35506589999977,None,None,55.153551499999594,56.338117899999816,0.5120544999999765,0.5954727000003004,1.713564800000313,1.797292700000071,,,,,,katie_1,001,2020_Jan_30_1204,posner,3.1.5,60.021163462184695,
0.5,180,1,right,2,4,0,0,0,0,2,2,18,7,,,,,,,,,56.74009379999961,57.23982109999997,57.95724169999994,None,57.2561539999997,57.94049150000001,58.457770199999686,None,right,1,0.33047290000013163,58.457770199999686,None,None,57.2561539999997,58.44111909999992,0.5116824000001543,0.5948751000000811,1.7129586000000927,1.7963371000000734,,,,,,katie_1,001,2020_Jan_30_1204,posner,3.1.5,60.021163462184695,
-0.5,180,0,left,2,3,0,0,0,0,2,3,19,4,,,,,,,,,58.80947479999986,59.30924619999996,60.02673609999965,None,59.32573139999977,60.01002709999966,60.52727649999997,None,left,1,0.42088820000026317,60.52727649999997,None,None,59.32573139999977,60.510721399999966,0.5117615999997724,0.5950050000001283,1.7132197999999335,1.796725400000014,,,,,,katie_1,001,2020_Jan_30_1204,posner,3.1.5,60.021163462184695,
0.5,180,1,right,2,4,0,0,0,0,2,4,20,6,,,,,,,,,60.97875789999989,61.47870990000001,62.196196099999725,None,61.49518649999982,62.179659999999785,62.69698989999961,None,right,1,0.3630825999998706,62.69698989999961,None,None,61.49518649999982,62.680441299999984,0.5117977999998402,0.5948410999999396,1.713199899999836,1.7966794999997546,,,,,,katie_1,001,2020_Jan_30_1204,posner,3.1.5,60.021163462184695,
0.5,180,1,right,2,4,0,0,0,0,2,5,21,5,,,,,,,,,63.08138409999992,63.581732999999986,64.2994348999996,None,63.598146199999974,64.28272119999974,64.79982059999975,None,right,1,0.3883190999999897,64.79982059999975,None,None,63.598146199999974,64.78322809999963,0.511915599999611,0.5953164999996261,1.7133908999999221,1.7967633999996906,,,,,,katie_1,001,2020_Jan_30_1204,posner,3.1.5,60.021163462184695,
-0.5,0,1,left,1,3,0,0,0,0,2,6,22,2,,,,,,,,,65.21770959999958,65.71775359999992,66.43547779999972,None,65.73458029999983,66.41886979999981,66.93611629999987,None,left,1,0.42003999999997177,66.93611629999987,None,None,65.73458029999983,66.91953799999965,0.5114319999997861,0.5948906999997234,1.713199799999984,1.7967223000000558,,,,,,katie_1,001,2020_Jan_30_1204,posner,3.1.5,60.021163462184695,
-0.5,0,1,left,1,3,0,0,0,0,2,7,23,0,,,,,,,,,67.38711139999987,67.88742709999997,68.60524349999969,None,67.90434849999974,68.5883947999996,69.10580189999973,None,left,1,0.38630749999992986,69.10580189999973,None,None,67.90434849999974,69.08928129999958,0.5114673999996739,0.5950690999998187,1.7132996999998795,1.7966742999997223,,,,,,katie_1,001,2020_Jan_30_1204,posner,3.1.5,60.021163462184695,
0.5,180,1,right,2,4,0,0,0,0,3,0,24,5,,,,,,,,,69.52343119999978,70.02370549999978,70.7420075,None,70.04047270000001,70.72480479999967,71.2425145999996,None,right,1,0.4096615999997084,71.2425145999996,None,None,70.04047270000001,71.22549889999982,0.5118790000001354,0.5954744999999093,1.713653400000112,1.7971935999999005,,,,,,katie_1,001,2020_Jan_30_1204,posner,3.1.5,60.021163462184695,
-0.5,0,1,left,1,3,0,0,0,0,3,1,25,1,,,,,,,,,71.67606690000002,72.17670929999986,72.8946635999996,None,72.19333759999972,72.87750809999989,73.39494849999983,73.87936819999959,left,1,0.561200000000099,73.39494849999983,None,None,72.19333759999972,73.37866779999968,0.5115847999995822,0.5950385999999526,1.713524399999642,1.7969043999996757,,,,,,katie_1,001,2020_Jan_30_1204,posner,3.1.5,60.021163462184695,
0.5,180,1,right,2,4,0,0,0,0,3,2,26,7,,,,,,,,,73.97998740000003,74.47995379999975,75.19753009999977,None,74.49649439999985,75.1809188999996,75.69814859999997,None,right,1,0.337938000000122,75.69814859999997,None,None,74.49649439999985,75.6816632,0.5114825000000565,0.5950613999998495,1.7131677000002128,1.7966000999999778,,,,,,katie_1,001,2020_Jan_30_1204,posner,3.1.5,60.021163462184695,
0.5,0,0,right,1,4,0,0,0,0,3,3,27,3,,,,,,,,,76.0656927,76.56611449999991,77.28388079999968,None,76.5828220999997,77.26707319999969,77.78421479999997,None,right,1,0.4599135999997088,77.78421479999997,None,None,76.5828220999997,77.76785299999983,0.51175400000011,0.5953872999998566,1.7134719000000587,1.7968998999999712,,,,,,katie_1,001,2020_Jan_30_1204,posner,3.1.5,60.021163462184695,
-0.5,0,1,left,1,3,0,0,0,0,3,4,28,0,,,,,,,,,78.26871149999988,78.76932869999973,79.48673169999984,None,78.78581480000003,79.4702671,79.9873619,78.26871149999988,left,1,0.352708999999777,79.9873619,None,None,78.78581480000003,79.9710728,0.5124742000002698,0.5959284999998999,1.7142232000001059,1.797405300000264,,,,,,katie_1,001,2020_Jan_30_1204,posner,3.1.5,60.021163462184695,
0.5,180,1,right,2,4,0,0,0,0,3,5,29,6,,,,,,,,,80.37194920000002,80.87217899999996,81.5898115,None,80.88890809999975,81.57296829999996,82.09054849999984,None,right,1,0.38560899999993126,82.09054849999984,None,None,80.88890809999975,82.07375159999992,0.5115460000001804,0.5948600000001534,1.713105700000142,1.7965634000001955,,,,,,katie_1,001,2020_Jan_30_1204,posner,3.1.5,60.021163462184695,
-0.5,180,0,left,2,3,0,0,0,0,3,6,30,4,,,,,,,,,82.49154509999971,82.99164079999991,83.70939950000002,None,83.00843850000001,83.69255169999997,84.21004409999978,None,left,1,0.3783864000001813,84.21004409999978,None,None,83.00843850000001,84.19336229999999,0.5112051000000974,0.5945763999998235,1.7129110000000765,1.7961476000000403,,,,,,katie_1,001,2020_Jan_30_1204,posner,3.1.5,60.021163462184695,
-0.5,0,1,left,1,3,0,0,0,0,3,7,31,2,,,,,,,,,84.61108859999968,85.11125459999994,85.82902349999995,None,85.1279571,85.81233649999967,86.32978589999993,None,left,1,0.3783168999998452,86.32978589999993,None,None,85.1279571,86.31309769999962,0.5112373000001753,0.5946841999998469,1.7130620000002637,1.7962474999999358,,,,,,katie_1,001,2020_Jan_30_1204,posner,3.1.5,60.021163462184695,
-0.5,0,1,left,1,3,0,0,0,0,4,0,32,0,,,,,,,,,86.7309095999999,87.23084749999998,87.94862799999964,None,87.24724199999991,87.93178209999996,88.4491696,None,left,1,0.41070810000019264,88.4491696,None,None,87.24724199999991,88.43239629999971,0.511481399999866,0.5948698000001968,1.713013300000057,1.7965422000002036,,,,,,katie_1,001,2020_Jan_30_1204,posner,3.1.5,60.021163462184695,
0.5,180,1,right,2,4,0,0,0,0,4,1,33,5,,,,,,,,,88.88371319999987,89.38391879999972,90.10149409999985,None,89.40067950000002,90.08463159999974,90.6022312,None,right,1,0.3298663000000488,90.6022312,None,None,89.40067950000002,90.5852774,0.5118565999996463,0.5948397999995905,1.7131961000000047,1.7970468999997138,,,,,,katie_1,001,2020_Jan_30_1204,posner,3.1.5,60.021163462184695,
-0.5,0,1,left,1,3,0,0,0,0,4,2,34,2,,,,,,,,,90.95350139999982,91.45354889999999,92.17090899999994,None,91.46998409999969,92.15433229999962,92.67177409999977,None,left,1,0.3482905999999275,92.67177409999977,None,None,91.46998409999969,92.65481539999973,0.5117618000003858,0.5948415000002569,1.7130137000003742,1.796678300000167,,,,,,katie_1,001,2020_Jan_30_1204,posner,3.1.5,60.021163462184695,
-0.5,0,1,left,1,3,0,0,0,0,4,3,35,1,,,,,,,,,93.03977629999963,93.53971949999959,94.25695089999999,None,93.55614269999978,94.24080649999996,94.7578096999996,None,left,1,0.44607200000018565,94.7578096999996,None,None,93.55614269999978,94.74134249999997,0.511645800000224,0.5949328000001515,1.71325220000017,1.7964379000000008,,,,,,katie_1,001,2020_Jan_30_1204,posner,3.1.5,60.021163462184695,
0.5,180,1,right,2,4,0,0,0,0,4,4,36,6,,,,,,,,,95.22597769999993,95.72577059999958,96.44349919999968,None,95.74272209999981,96.42656420000003,96.94411999999966,None,right,1,0.4278692999996565,96.94411999999966,None,None,95.74272209999981,96.9272802999999,0.5114091000000371,0.5949720000003254,1.7129030999999486,1.79667900000004,,,,,,katie_1,001,2020_Jan_30_1204,posner,3.1.5,60.021163462184695,
0.5,0,0,right,1,4,0,0,0,0,4,5,37,3,,,,,,,,,97.39517539999997,97.89528919999975,98.61313519999976,None,97.91229899999962,98.5963754999998,99.11381669999992,None,right,1,0.40219389999992927,99.11381669999992,None,None,97.91229899999962,99.09716059999982,0.5117451000000983,0.5954957999997532,1.7136000000000422,1.7970989000000372,,,,,,katie_1,001,2020_Jan_30_1204,posner,3.1.5,60.021163462184695,
-0.5,180,0,left,2,3,0,0,0,0,4,6,38,4,,,,,,,,,99.53172039999981,100.03208699999959,100.74946219999993,None,100.04841399999987,100.73273519999975,101.25015199999962,None,left,1,0.4019263000000137,101.25015199999962,None,None,100.04841399999987,101.23359029999983,0.5122775999998339,0.5954209999999875,1.7137580999997226,1.7970037000000048,,,,,,katie_1,001,2020_Jan_30_1204,posner,3.1.5,60.021163462184695,
0.5,180,1,right,2,4,0,0,0,0,4,7,39,7,,,,,,,,,101.6679866999998,102.16787049999994,102.88535839999986,None,102.18464499999982,102.86906379999982,103.3862853999999,None,right,1,0.3775774000000638,103.3862853999999,None,None,102.18464499999982,103.36952919999976,0.5113307000001441,0.595031199999994,1.7129574000000503,1.7967862999998943,,,,,,katie_1,001,2020_Jan_30_1204,posner,3.1.5,60.021163462184695,
-0.5,0,1,left,1,3,0,0,0,0,5,0,40,1,,,,,,,,,103.78748079999968,104.28749919999973,105.0049855999996,None,104.30435679999982,104.98863329999995,105.50584949999984,None,left,1,0.4262215999997352,105.50584949999984,None,None,104.30435679999982,105.48933649999981,0.5114536000000953,0.5950106000000233,1.713273400000162,1.796857799999998,,,,,,katie_1,001,2020_Jan_30_1204,posner,3.1.5,60.021163462184695,
0.5,180,1,right,2,4,0,0,0,0,5,1,41,7,,,,,,,,,105.9574991999998,106.45728959999997,107.17516269999987,None,106.4740511,107.15819379999994,107.67550259999962,None,right,1,0.35242699999980687,107.67550259999962,None,None,106.4740511,107.65899349999972,0.5116453000000547,0.5951482000000397,1.7133205999998609,1.7969352000000072,,,,,,katie_1,001,2020_Jan_30_1204,posner,3.1.5,60.021163462184695,
0.5,0,0,right,1,4,0,0,0,0,5,2,42,3,,,,,,,,,108.0604360999996,108.56021889999965,109.27783199999976,None,108.57671899999968,109.26112990000001,109.77839229999972,110.26243699999986,right,1,0.5295169999999416,109.77839229999972,None,None,108.57671899999968,109.76167020000003,0.5115882000000056,0.5950128999998014,1.713025099999868,1.79649739999968,,,,,,katie_1,001,2020_Jan_30_1204,posner,3.1.5,60.021163462184695,
-0.5,0,1,left,1,3,0,0,0,0,5,3,43,0,,,,,,,,,110.32962069999985,110.82983479999984,111.54748109999991,None,110.84668299999976,111.53076650000003,112.04822389999981,None,left,1,0.4358017000004111,112.04822389999981,None,None,110.84668299999976,112.03158219999978,0.5124675999995816,0.5961588999998639,1.7141866999995727,1.7977374999995845,,,,,,katie_1,001,2020_Jan_30_1204,posner,3.1.5,60.021163462184695,
-0.5,0,1,left,1,3,0,0,0,0,5,4,44,2,,,,,,,,,112.49953629999982,112.99948909999966,113.7171973999998,None,113.01612119999982,113.7005022999997,114.21783079999977,None,left,1,0.4581927999997788,114.21783079999977,None,None,113.01612119999982,114.2010378,0.5115805000000364,0.5949854000000414,1.713117499999953,1.7968498000000181,,,,,,katie_1,001,2020_Jan_30_1204,posner,3.1.5,60.021163462184695,
0.5,180,1,right,2,4,0,0,0,0,5,5,45,5,,,,,,,,,114.70260559999997,115.2023992999998,115.92032179999978,None,115.21947709999995,115.90359899999976,116.42083059999959,114.70260559999997,right,1,0.3510777000001326,116.42083059999959,None,None,115.21947709999995,116.40437969999994,0.5114911000000575,0.5949683999997433,1.713448999999855,1.7969458999996277,,,,,,katie_1,001,2020_Jan_30_1204,posner,3.1.5,60.021163462184695,
0.5,180,1,right,2,4,0,0,0,0,5,6,46,6,,,,,,,,,116.78883899999983,117.28890309999997,118.00640069999963,None,117.30548659999977,117.98978519999991,118.50712349999958,None,right,1,0.42488189999994574,118.50712349999958,None,None,117.30548659999977,118.49066529999982,0.511821399999917,0.595176100000117,1.7135631999999532,1.7968000000000757,,,,,,katie_1,001,2020_Jan_30_1204,posner,3.1.5,60.021163462184695,
-0.5,180,0,left,2,3,0,0,0,0,5,7,47,4,,,,,,,,,118.95836939999981,119.45870079999986,120.17604510000001,None,119.47514229999979,120.15954969999984,120.67667259999962,None,left,1,0.3352804000001015,120.67667259999962,None,None,119.47514229999979,120.66024169999991,0.5119106000001921,0.5950176999999712,1.7134320999998636,1.7970540999999685,,,,,,katie_1,001,2020_Jan_30_1204,posner,3.1.5,60.021163462184695,
0.5,180,1,right,2,4,0,0,0,0,6,0,48,5,,,,,,,,,121.0276230999998,121.52783339999996,122.24569929999961,None,121.54451969999991,122.22911239999985,122.74613929999987,None,right,1,0.3058370999997351,122.74613929999987,None,None,121.54451969999991,122.72952429999987,0.5116143000000193,0.5952771000002031,1.7132691000001614,1.7970278000002509,,,,,,katie_1,001,2020_Jan_30_1204,posner,3.1.5,60.021163462184695,
0.5,180,1,right,2,4,0,0,0,0,6,1,49,6,,,,,,,,,123.08079029999999,123.58092869999973,124.2982849,None,123.5975613999999,124.28175929999998,124.79914889999964,None,right,1,0.34888990000035847,124.79914889999964,None,None,123.5975613999999,124.78230379999968,0.5115905000002385,0.594736500000181,1.7129586000000927,1.7963905999999952,,,,,,katie_1,001,2020_Jan_30_1204,posner,3.1.5,60.021163462184695,
-0.5,0,1,left,1,3,0,0,0,0,6,2,50,0,,,,,,,,,125.1670508999996,125.66675329999998,126.38481509999974,None,125.68362079999997,126.3678603999997,126.88521059999994,127.36942679999993,left,1,0.5026485999997021,126.88521059999994,None,None,125.68362079999997,126.86866999999984,0.5113004999998338,0.5950078999999278,1.713198200000079,1.7968338999999105,,,,,,katie_1,001,2020_Jan_30_1204,posner,3.1.5,60.021163462184695,
-0.5,180,0,left,2,3,0,0,0,0,6,3,51,4,,,,,,,,,127.4196665999998,127.92002809999985,128.6374910999998,None,127.93665519999968,128.6209974999997,129.13845489999994,129.62205019999965,left,1,0.4735547999998744,129.13845489999994,None,None,127.93665519999968,129.12189669999998,0.5119704000003367,0.595717500000319,1.7138168999999834,1.7973102000000836,,,,,,katie_1,001,2020_Jan_30_1204,posner,3.1.5,60.021163462184695,
0.5,180,1,right,2,4,0,0,0,0,6,4,52,7,,,,,,,,,129.63915009999982,130.13999130000002,130.85754419999967,None,130.1565032999997,130.84072639999977,131.35800870000003,None,right,1,0.3339282000001731,131.35800870000003,None,None,130.1565032999997,131.34124029999975,0.5123570999999174,0.5957424999996874,1.7135914000000412,1.797149399999853,,,,,,katie_1,001,2020_Jan_30_1204,posner,3.1.5,60.021163462184695,
-0.5,0,1,left,1,3,0,0,0,0,6,5,53,2,,,,,,,,,131.7089461999999,132.20941289999973,132.92688799999996,None,132.2258426999997,132.91043309999986,133.4276276999999,None,left,1,0.3763016000002608,133.4276276999999,None,None,132.2258426999997,133.4110899999996,0.5114945999998781,0.595097099999748,1.7131500999998934,1.7964100999997754,,,,,,katie_1,001,2020_Jan_30_1204,posner,3.1.5,60.021163462184695,
0.5,0,0,right,1,4,0,0,0,0,6,6,54,3,,,,,,,,,133.82893289999993,134.32897599999978,135.04654679999976,None,134.34562179999966,135.02995220000003,135.5472351999997,None,right,1,0.3685923999996703,135.5472351999997,None,None,134.34562179999966,135.5305644,0.5117003999998815,0.5952585999998519,1.713275799999792,1.7968560999997862,,,,,,katie_1,001,2020_Jan_30_1204,posner,3.1.5,60.021163462184695,
-0.5,0,1,left,1,3,0,0,0,0,6,7,55,1,,,,,,,,,135.93174009999984,136.43186389999983,137.15013279999994,None,136.44876139999997,137.1329837999997,137.6502384999999,None,left,1,0.3774564000000282,137.6502384999999,None,None,136.44876139999997,137.63383919999978,0.5116378999996414,0.5949432999996134,1.7135960999999043,1.7966285999996217,,,,,,katie_1,001,2020_Jan_30_1204,posner,3.1.5,60.021163462184695,
0.5,0,0,right,1,4,0,0,0,0,7,0,56,3,,,,,,,,,138.05129829999987,138.55130699999972,139.26910139999973,None,138.5680513999996,139.25234899999987,139.76967269999977,None,right,1,0.3702520000001641,139.76967269999977,None,None,138.5680513999996,139.7533801999998,0.5116095000003043,0.5952275000004192,1.7136579000002712,1.7968442000001232,,,,,,katie_1,001,2020_Jan_30_1204,posner,3.1.5,60.021163462184695,
0.5,180,1,right,2,4,0,0,0,0,7,1,57,7,,,,,,,,,140.17071269999997,140.67111579999982,141.38855459999968,None,140.68765069999972,141.37204789999987,141.88935709999987,None,right,1,0.33841960000017934,141.88935709999987,None,None,140.68765069999972,141.87260079999987,0.5115879999998469,0.5950041000000965,1.7130480999999236,1.7966612000000168,,,,,,katie_1,001,2020_Jan_30_1204,posner,3.1.5,60.021163462184695,
-0.5,180,0,left,2,3,0,0,0,0,7,2,58,4,,,,,,,,,142.25713859999996,142.75731039999982,143.47481119999975,None,142.77385619999995,143.45845549999967,143.9752607999999,None,left,1,0.4685351999996783,143.9752607999999,None,None,142.77385619999995,143.95899489999965,0.5115304999999353,0.594799200000125,1.7131897999997818,1.7965588000001844,,,,,,katie_1,001,2020_Jan_30_1204,posner,3.1.5,60.021163462184695,
-0.5,0,1,left,1,3,0,0,0,0,7,3,59,2,,,,,,,,,144.46028289999958,144.96024499999976,145.67791369999986,None,144.97665919999963,145.66118499999993,146.17871609999975,144.46028289999958,left,1,0.44907530000000406,146.17871609999975,None,None,144.97665919999963,146.1620952999997,0.5114260000000286,0.5947061000001668,1.713262400000076,1.7964710000001105,,,,,,katie_1,001,2020_Jan_30_1204,posner,3.1.5,60.021163462184695,
0.5,180,1,right,2,4,0,0,0,0,7,4,60,5,,,,,,,,,146.64664119999998,147.14657529999977,147.86422700000003,None,147.16332169999987,147.84762069999988,148.36488689999987,None,right,1,0.4309845000002497,148.36488689999987,None,None,147.16332169999987,148.34831859999986,0.5114754000001085,0.5949830999998085,1.7132086000001436,1.7967263999998977,,,,,,katie_1,001,2020_Jan_30_1204,posner,3.1.5,60.021163462184695,
-0.5,0,1,left,1,3,0,0,0,0,7,5,61,0,,,,,,,,,148.81561229999988,149.31617579999966,150.03368739999996,None,149.33293959999992,150.017026,150.5345328999997,None,left,1,0.42927259999987655,150.5345328999997,None,None,149.33293959999992,150.51786889999994,0.5116059000001769,0.595096100000319,1.7133020999999644,1.7968322000001535,,,,,,katie_1,001,2020_Jan_30_1204,posner,3.1.5,60.021163462184695,
-0.5,0,1,left,1,3,0,0,0,0,7,6,62,1,,,,,,,,,150.9860177999999,151.48580989999982,152.2036877999999,None,151.50269119999984,152.1868417999999,152.7043531999998,None,left,1,0.45147769999994125,152.7043531999998,None,None,151.50269119999984,152.6873913999998,0.5115610999996534,0.595130700000027,1.7131138999998257,1.7966882000000624,,,,,,katie_1,001,2020_Jan_30_1204,posner,3.1.5,60.021163462184695,
0.5,180,1,right,2,4,0,0,0,0,7,7,63,6,,,,,,,,,153.17211629999974,153.67229899999984,154.39000989999977,None,153.68904989999965,154.37321429999974,154.89059959999986,None,right,1,0.449311200000011,154.89059959999986,None,None,153.68904989999965,154.87389619999976,0.5117881000001034,0.5951390999998694,1.7133681000000252,1.796719899999971,,,,,,katie_1,001,2020_Jan_30_1204,posner,3.1.5,60.021163462184695,
0.5,180,1,right,2,4,0,0,0,0,8,0,64,5,,,,,,,,,155.35888369999975,155.8586376999997,156.5761067999997,None,155.87529559999984,156.55923559999974,157.0767595999996,None,right,1,0.4231676999997944,157.0767595999996,None,None,155.87529559999984,157.06006209999987,0.5117423000001509,0.5951728000000003,1.7131509000000733,1.7966838000002099,,,,,,katie_1,001,2020_Jan_30_1204,posner,3.1.5,60.021163462184695,
0.5,0,0,right,1,4,0,0,0,0,8,1,65,3,,,,,,,,,157.52791829999978,158.02830969999968,158.7458958999996,None,158.044852,158.7293354999997,159.24644499999977,None,right,1,0.38938320000033855,159.24644499999977,None,None,158.044852,159.22990779999964,0.511919499999749,0.5951743999999053,1.7134750999998687,1.797110099999827,,,,,,katie_1,001,2020_Jan_30_1204,posner,3.1.5,60.021163462184695,
0.5,180,1,right,2,4,0,0,0,0,8,2,66,7,,,,,,,,,159.66406289999986,160.1642081,160.8821009999997,None,160.18103279999968,160.86522809999997,161.38271209999994,161.86679409999988,right,1,0.5411354000002575,161.38271209999994,None,None,160.18103279999968,161.36598959999992,0.5117881999999554,0.5954117999999653,1.713549900000089,1.7971220999997968,,,,,,katie_1,001,2020_Jan_30_1204,posner,3.1.5,60.021163462184695,
-0.5,0,1,left,1,3,0,0,0,0,8,3,67,2,,,,,,,,,161.95058410000001,162.4509992999997,163.16881079999985,None,162.46776409999984,163.15187100000003,163.66930409999986,164.15314969999963,left,1,0.4864115000000311,163.66930409999986,None,None,162.46776409999984,163.65250019999985,0.5117983000000095,0.5952634000000216,1.7132777000001624,1.7965639000003648,,,,,,katie_1,001,2020_Jan_30_1204,posner,3.1.5,60.021163462184695,
-0.5,0,1,left,1,3,0,0,0,0,8,4,68,1,,,,,,,,,164.18692859999965,164.6874789999997,165.40499739999996,None,164.7040874999998,165.38826459999973,165.90554369999973,166.38976019999973,left,1,0.522150899999815,165.90554369999973,None,None,164.7040874999998,165.88900990000002,0.5118094999997993,0.5951359000000593,1.7133254000000306,1.7965561999999409,,,,,,katie_1,001,2020_Jan_30_1204,posner,3.1.5,60.021163462184695,
0.5,180,1,right,2,4,0,0,0,0,8,5,69,6,,,,,,,,,166.45697889999974,166.9571415999999,167.6749359999999,None,166.97371109999995,167.6581960999997,168.17550149999988,None,right,1,0.3163798999999017,168.17550149999988,None,None,166.97371109999995,168.15884909999977,0.5117397999997593,0.5950946999996631,1.7134240999998838,1.7972907999997005,,,,,,katie_1,001,2020_Jan_30_1204,posner,3.1.5,60.021163462184695,
-0.5,180,0,left,2,3,0,0,0,0,8,6,70,4,,,,,,,,,168.51010819999965,169.01011189999963,169.72776320000003,None,169.0265875,169.7109343999996,170.2284322999999,None,left,1,0.40729090000013457,170.2284322999999,None,None,169.0265875,170.2116334999996,0.5117404000002352,0.594868900000165,1.7132489999999052,1.7963810000001104,,,,,,katie_1,001,2020_Jan_30_1204,posner,3.1.5,60.021163462184695,
-0.5,0,1,left,1,3,0,0,0,0,8,7,71,0,,,,,,,,,170.6631494999997,171.16305179999972,171.88050609999982,None,171.17974749999985,171.86381849999998,172.3813723999997,172.8651746999999,left,1,0.4942962999998599,172.3813723999997,None,None,171.17974749999985,172.36457719999999,0.5116543999997702,0.5948716999996577,1.7131571999998414,1.796668899999986,,,,,,katie_1,001,2020_Jan_30_1204,posner,3.1.5,60.021163462184695,
0.5,180,1,right,2,4,0,0,0,0,9,0,72,5,,,,,,,,,172.8996304999996,173.39934509999966,174.11685669999997,None,173.4158766999999,174.10036539999965,174.61757239999997,175.1017764999997,right,1,0.49820809999982885,174.61757239999997,None,None,173.4158766999999,174.60080319999997,0.5113373999997748,0.5946555999998964,1.7127828999996382,1.7965007999996487,,,,,,katie_1,001,2020_Jan_30_1204,posner,3.1.5,60.021163462184695,
-0.5,0,1,left,1,3,0,0,0,0,9,1,73,0,,,,,,,,,175.13501419999966,175.6357994,176.35358469999983,None,175.65251529999978,176.33670749999965,176.85415379999995,None,left,1,0.4136284999999589,176.85415379999995,None,None,175.65251529999978,176.83743449999974,0.512051899999733,0.5955218999997669,1.713669199999913,1.7969653000000108,,,,,,katie_1,001,2020_Jan_30_1204,posner,3.1.5,60.021163462184695,
-0.5,180,0,left,2,3,0,0,0,0,9,2,74,4,,,,,,,,,177.28925149999986,177.78880009999966,178.50625789999958,None,177.80533689999993,178.4895389999997,179.0068865999997,None,left,1,0.45279119999986506,179.0068865999997,None,None,177.80533689999993,178.99034349999965,0.5116465000000971,0.5948936999998296,1.7131703999998535,1.796415899999829,,,,,,katie_1,001,2020_Jan_30_1204,posner,3.1.5,60.021163462184695,
0.5,0,0,right,1,4,0,0,0,0,9,3,75,3,,,,,,,,,179.4914501999997,179.9916945,180.7094817999996,None,180.00844919999963,180.6926569999996,181.21003189999965,179.4914501999997,right,1,0.43380560000014157,181.21003189999965,None,None,180.00844919999963,181.19335460000002,0.5115899000002173,0.5950003000002653,1.7132400000000416,1.7966661999998905,,,,,,katie_1,001,2020_Jan_30_1204,posner,3.1.5,60.021163462184695,
0.5,180,1,right,2,4,0,0,0,0,9,4,76,6,,,,,,,,,181.66095889999997,182.16154959999994,182.8790555999999,None,182.17810629999985,182.8624789999999,183.37970689999975,183.86367459999974,right,1,0.5200309000001653,183.37970689999975,None,None,182.17810629999985,183.36336029999984,0.5123550999996951,0.5955804999998691,1.7141435999997157,1.7971599999996215,,,,,,katie_1,001,2020_Jan_30_1204,posner,3.1.5,60.021163462184695,
-0.5,0,1,left,1,3,0,0,0,0,9,5,77,1,,,,,,,,,183.93101379999962,184.43123019999985,185.1488707999997,None,184.44777499999964,185.1322240999998,185.6495616999996,None,left,1,0.338155899999947,185.6495616999996,None,None,184.44777499999964,185.63268889999972,0.5115469999996094,0.5947916999998597,1.7129931999998007,1.79642049999984,,,,,,katie_1,001,2020_Jan_30_1204,posner,3.1.5,60.021163462184695,
-0.5,0,1,left,1,3,0,0,0,0,9,6,78,2,,,,,,,,,186.01741859999993,186.51721069999985,187.23501669999996,None,186.53404769999997,187.21837919999962,187.7355493,None,left,1,0.36410049999994953,187.7355493,None,None,186.53404769999997,187.7190515999996,0.5113908999996966,0.5950576999998702,1.7132102000000486,1.7966942999996718,,,,,,katie_1,001,2020_Jan_30_1204,posner,3.1.5,60.021163462184695,
0.5,180,1,right,2,4,0,0,0,0,9,7,79,7,,,,,,,,,188.12045820000003,188.62028369999962,189.33788659999982,None,188.63684299999977,189.3214266,189.83859809999967,None,right,1,0.33308949999991455,189.83859809999967,None,None,188.63684299999977,189.8221593999997,0.5114113000004181,0.5949367000002894,1.7132638000002771,1.796475300000111,,,,,,katie_1,001,2020_Jan_30_1204,posner,3.1.5,60.021163462184695,
-0.5,0,1,left,1,3,0,0,0,0,10,0,80,0,,,,,,,,,190.19018959999994,190.69003859999975,191.40756049999982,None,190.70655069999975,191.3908704999999,191.90815079999993,None,left,1,0.4236448999999993,191.90815079999993,None,None,190.70655069999975,191.89150419999987,0.5117194999997992,0.594982600000094,1.7131672000000435,1.796579599999859,,,,,,katie_1,001,2020_Jan_30_1204,posner,3.1.5,60.021163462184695,
0.5,180,1,right,2,4,0,0,0,0,10,1,81,6,,,,,,,,,192.3596475999998,192.85963559999982,193.57697329999974,None,192.87608339999997,193.5602990999996,194.07775119999997,None,right,1,0.34999729999981355,194.07775119999997,None,None,192.87608339999997,194.06106090000003,0.5116551000000982,0.5950757000000522,1.7130674999998519,1.7965211999999156,,,,,,katie_1,001,2020_Jan_30_1204,posner,3.1.5,60.021163462184695,
0.5,0,0,right,1,4,0,0,0,0,10,2,82,3,,,,,,,,,194.44537949999994,194.94549819999975,195.66339759999983,None,194.96220829999993,195.64665149999973,196.16395539999985,196.64807489999976,None,0,,196.16395539999985,None,None,194.96220829999993,196.14730299999974,0.5117568000000574,0.5952353000002404,1.7135418000002574,1.7970218000000386,,,,,,katie_1,001,2020_Jan_30_1204,posner,3.1.5,60.021163462184695,
-0.5,180,0,left,2,3,0,0,0,0,10,3,83,4,,,,,,,,,197.14866279999978,197.6494872999997,198.3670044999999,197.14866279999978,197.66609909999988,198.35038369999984,198.86775009999974,None,left,1,0.42399669999986145,198.86775009999974,None,None,197.66609909999988,198.85114589999966,0.5136329000001751,0.5969879000003857,1.715278600000147,1.7986596000000645,,,,,,katie_1,001,2020_Jan_30_1204,posner,3.1.5,60.021163462184695,
-0.5,0,1,left,1,3,0,0,0,0,10,4,84,1,,,,,,,,,199.31870319999962,199.8190800999996,200.53660539999964,None,199.83562819999997,200.51972079999996,201.0373169999998,None,left,1,0.39044289999992543,201.0373169999998,None,None,199.83562819999997,201.02066719999993,0.5124018999999862,0.5958817999999155,1.7139619999998104,1.7973480000000563,,,,,,katie_1,001,2020_Jan_30_1204,posner,3.1.5,60.021163462184695,
-0.5,0,1,left,1,3,0,0,0,0,10,5,85,2,,,,,,,,,201.45484309999983,201.95525559999987,202.67287719999968,None,201.9719544999998,202.6561818,203.1736850999996,None,left,1,0.3900127000001703,203.1736850999996,None,None,201.9719544999998,203.15699640000003,0.5121533000001364,0.5956926000003477,1.7138777000000118,1.79770230000031,,,,,,katie_1,001,2020_Jan_30_1204,posner,3.1.5,60.021163462184695,
0.5,180,1,right,2,4,0,0,0,0,10,6,86,7,,,,,,,,,203.59134689999973,204.0915083,204.80936139999994,None,204.1083209999997,204.79266469999993,205.3099511999999,None,right,1,0.40557380000018384,205.3099511999999,None,None,204.1083209999997,205.2932369,0.5117342000003191,0.5951379000002817,1.7134399000001395,1.7969737000003079,,,,,,katie_1,001,2020_Jan_30_1204,posner,3.1.5,60.021163462184695,
0.5,180,1,right,2,4,0,0,0,0,10,7,87,5,,,,,,,,,205.7442314,206.2448731999998,206.9622935999996,None,206.26117829999976,206.94549029999962,207.46295409999993,None,right,1,0.40471190000016577,207.46295409999993,None,None,206.26117829999976,207.44623779999984,0.5128469999999652,0.5958157000000028,1.7141974000001028,1.7974643000002288,,,,,,katie_1,001,2020_Jan_30_1204,posner,3.1.5,60.021163462184695,
,,,,,,0,0,0,0,,,,,,,,,,,,,,,,,,,,,,,,,,,,,,,,,207.89735569999993,None,1.8799999907059828e-05,0.9960173999998005,,katie_1,001,2020_Jan_30_1204,posner,3.1.5,60.021163462184695,
0.5,180,1,right,2,4,1,0,1,0,0,0,0,6,1.1799999811046291e-05,0.0977511000000959,268.91395409999996,None,1.560000009703799e-05,0.09778839999989941,271.0169294999996,None,271.2914960999997,271.8014524,272.50245029999996,None,271.8014524,272.50245029999996,273.00329869999996,273.48691929999995,right,1,0.5921022000002267,273.00329869999996,None,None,271.8014524,272.98636829999987,0.5030138000001898,0.6029739000000518,1.7044990000003963,1.7880023000002438,,,,,,katie_1,001,2020_Jan_30_1204,posner,3.1.5,60.021163462184695,
-0.5,0,1,left,1,3,1,0,1,0,0,1,1,1,,,,,,,,,273.6222429999998,274.1213152,274.8389643999999,None,274.1379419,274.8223624999996,275.3396453999999,None,left,1,0.36759579999989,275.3396453999999,None,None,274.1379419,275.3230160999997,0.510657700000138,0.5940209000000323,1.7123418999999558,1.7957658000000265,,,,,,katie_1,001,2020_Jan_30_1204,posner,3.1.5,60.021163462184695,
-0.5,180,0,left,2,3,1,0,1,0,0,2,2,4,,,,,,,,,275.7242518999997,276.2241458999997,276.941687,None,276.24121739999964,276.9251943999998,277.44254409999985,None,left,1,0.4487654999998085,277.44254409999985,None,None,276.24121739999964,277.4256811999999,0.5114869999997609,0.5953355000001466,1.7130053000000771,1.79673479999974,,,,,,katie_1,001,2020_Jan_30_1204,posner,3.1.5,60.021163462184695,
0.5,0,0,right,1,4,1,0,1,0,0,3,3,3,,,,,,,,,277.9104610999998,278.4103987999997,279.12818749999997,None,278.4271801,279.1113873999998,279.62883799999963,None,right,1,0.31844920000003185,279.62883799999963,None,None,278.4271801,279.6120735999998,0.5115028000000166,0.5949455999998463,1.7131633999997575,1.7966551999998046,,,,,,katie_1,001,2020_Jan_30_1204,posner,3.1.5,60.021163462184695,
-0.5,0,1,left,1,3,1,0,1,0,0,4,4,0,,,,,,,,,279.9631973999999,280.4632557,281.18104189999985,None,280.48002959999985,281.1641974999998,281.6816639999997,None,left,1,0.3217003999998269,281.6816639999997,None,None,280.48002959999985,281.66498649999994,0.5116920999998911,0.5950564999998278,1.7134092999999666,1.7969859999998334,,,,,,katie_1,001,2020_Jan_30_1204,posner,3.1.5,60.021163462184695,
-0.5,0,1,left,1,3,1,0,1,0,0,5,5,2,,,,,,,,,282.03272979999974,282.5328089999998,283.25049309999986,None,282.5495971999999,283.2338788999996,283.7511163999998,None,left,1,0.4362083999999413,283.7511163999998,None,None,282.5495971999999,283.7344991,0.5117653000002065,0.5952108999999837,1.7134338000000753,1.7968639000000621,,,,,,katie_1,001,2020_Jan_30_1204,posner,3.1.5,60.021163462184695,
0.5,180,1,right,2,4,1,0,1,0,0,6,6,7,,,,,,,,,284.21864529999993,284.7192172,285.43665489999967,None,284.7357545,285.4202501999998,285.9375872999999,None,right,1,0.2977086999999301,285.9375872999999,None,None,284.7357545,285.9208590999997,0.5124851999999009,0.5960289999998167,1.7141008999997212,1.797536399999899,,,,,,katie_1,001,2020_Jan_30_1204,posner,3.1.5,60.021163462184695,
0.5,180,1,right,2,4,1,0,1,0,0,7,7,5,,,,,,,,,286.25443159999986,286.7552277,287.47303999999986,None,286.7720240999997,287.45614439999963,287.9736297999998,None,right,1,0.4457598999997572,287.9736297999998,None,None,286.7720240999997,287.9568399,0.5122708999997485,0.595755399999689,1.7138608999998723,1.797388299999966,,,,,,katie_1,001,2020_Jan_30_1204,posner,3.1.5,60.021163462184695,
-0.5,0,1,left,1,3,1,0,1,0,1,0,8,2,,,,,,,,,288.44173709999995,288.9417288999998,289.6594226999996,None,288.9584037999998,289.6424591,290.16001049999977,None,left,1,0.32342179999977816,290.16001049999977,None,None,288.9584037999998,290.1433164,0.511528300000009,0.5945717999998124,1.7130993000000672,1.7965215999997781,,,,,,katie_1,001,2020_Jan_30_1204,posner,3.1.5,60.021163462184695,
0.5,180,1,right,2,4,1,0,1,0,1,1,9,6,,,,,,,,,290.5108645999999,291.01123329999973,291.7286675999999,None,291.02772119999963,291.7121652999999,292.22951859999966,None,right,1,0.39768780000031256,292.22951859999966,None,None,291.02772119999963,292.2126725999997,0.511629499999799,0.594948899999963,1.7130552999997235,1.7965217000000848,,,,,,katie_1,001,2020_Jan_30_1204,posner,3.1.5,60.021163462184695,
0.5,180,1,right,2,4,1,0,1,0,1,2,10,5,,,,,,,,,292.6473450999997,293.14760609999985,293.86491529999967,None,293.1640596999996,293.84834269999965,294.3656735999998,None,right,1,0.3737086000001,294.3656735999998,None,None,293.1640596999996,294.3493126999997,0.5122001999998247,0.595149599999786,1.7136021999999684,1.796688599999925,,,,,,katie_1,001,2020_Jan_30_1204,posner,3.1.5,60.021163462184695,
-0.5,180,0,left,2,3,1,0,1,0,1,3,11,4,,,,,,,,,294.76685039999984,295.2668614999998,295.98455019999983,None,295.2838514,295.9679719999999,296.4852960999997,None,left,1,0.38994030000003477,296.4852960999997,None,None,295.2838514,296.46876529999963,0.511511199999859,0.5951631999996607,1.7133940999997321,1.7966400000000249,,,,,,katie_1,001,2020_Jan_30_1204,posner,3.1.5,60.021163462184695,
-0.5,0,1,left,1,3,1,0,1,0,1,4,12,1,,,,,,,,,296.90328269999964,297.40335349999987,298.1210922999999,None,297.4198392999997,298.10419,298.6216333999996,None,left,1,0.413669900000059,298.6216333999996,None,None,297.4198392999997,298.60488659999965,0.511832300000151,0.5951107000000775,1.7133515999998963,1.7969013000001723,,,,,,katie_1,001,2020_Jan_30_1204,posner,3.1.5,60.021163462184695,
0.5,0,0,right,1,4,1,0,1,0,1,5,13,3,,,,,,,,,299.0567999,299.55626749999965,300.2738357999997,None,299.5731292999999,300.25709770000003,300.7745866,None,right,1,0.3966110999999728,300.7745866,None,None,299.5731292999999,300.7580415999996,0.5114606000001913,0.5948521000000255,1.7132228999998915,1.7965119999998933,,,,,,katie_1,001,2020_Jan_30_1204,posner,3.1.5,60.021163462184695,
0.5,180,1,right,2,4,1,0,1,0,1,6,14,7,,,,,,,,,301.1927922,301.6926742999999,302.4100752999998,None,301.7093028999998,302.3935870999999,302.91087849999985,303.39464499999985,right,1,0.5244595999997728,302.91087849999985,None,None,301.7093028999998,302.89403479999964,0.511514900000293,0.5946465000001808,1.7128609999999753,1.7966410000003634,,,,,,katie_1,001,2020_Jan_30_1204,posner,3.1.5,60.021163462184695,
-0.5,0,1,left,1,3,1,0,1,0,1,7,15,0,,,,,,,,,303.4624469999999,303.9623254999997,304.6800334999998,None,303.97895359999984,304.6632497999999,305.1805184,None,left,1,0.3105632000001606,305.1805184,None,None,303.97895359999984,305.1639538999998,0.5116400000001704,0.5949491999999736,1.7132767000002787,1.7962572000001273,,,,,,katie_1,001,2020_Jan_30_1204,posner,3.1.5,60.021163462184695,
0.5,180,1,right,2,4,1,0,1,0,2,0,16,5,,,,,,,,,305.5152578999996,306.01504989999967,306.7328121999999,None,306.0318986999996,306.71613039999966,307.2333302999996,None,right,1,0.2979253999997127,307.2333302999996,None,None,306.0318986999996,307.2167764999999,0.511756499999592,0.595304799999667,1.7134616999996979,1.79680849999977,,,,,,katie_1,001,2020_Jan_30_1204,posner,3.1.5,60.021163462184695,
-0.5,0,1,left,1,3,1,0,1,0,2,1,17,1,,,,,,,,,307.5514697999997,308.05116359999965,308.7689373999997,None,308.0680040999996,308.75202119999994,309.26973819999967,None,left,1,0.3415188999997554,309.26973819999967,None,None,308.0680040999996,309.2530840999998,0.5113554999998087,0.5947679999999309,1.7132438999997248,1.7965042000000722,,,,,,katie_1,001,2020_Jan_30_1204,posner,3.1.5,60.021163462184695,
-0.5,0,1,left,1,3,1,0,1,0,2,2,18,0,,,,,,,,,309.6375288999998,310.1375708999999,310.85560609999993,None,310.1540103999996,310.8385325999998,311.35573320000003,None,left,1,0.39951550000023417,311.35573320000003,None,None,310.1540103999996,311.33925229999977,0.511741499999971,0.5949390000000676,1.7134061000001566,1.7966725999999653,,,,,,katie_1,001,2020_Jan_30_1204,posner,3.1.5,60.021163462184695,
0.5,180,1,right,2,4,1,0,1,0,2,3,19,7,,,,,,,,,311.7737129999996,312.2737560999999,312.9913998999996,None,312.2903999,312.9746376999997,313.4920898999999,None,right,1,0.39907869999979084,313.4920898999999,None,None,312.2903999,313.47536969999965,0.5115779000002476,0.5949359999999615,1.7131773000000976,1.7966800000003786,,,,,,katie_1,001,2020_Jan_30_1204,posner,3.1.5,60.021163462184695,
-0.5,0,1,left,1,3,1,0,1,0,2,4,20,2,,,,,,,,,313.9100601,314.40993089999984,315.1277525999999,None,314.42662059999975,315.11083099999996,315.62852799999973,316.1124765999998,left,1,0.47070949999988443,315.62852799999973,None,None,314.42662059999975,315.6117105999997,0.5114426000000094,0.5949451999999837,1.7132050999998683,1.7964999000000716,,,,,,katie_1,001,2020_Jan_30_1204,posner,3.1.5,60.021163462184695,
0.5,0,0,right,1,4,1,0,1,0,2,5,21,3,,,,,,,,,316.1299119,316.62979859999996,317.3472635999997,None,316.64629779999996,317.3305016999998,317.8480547999998,None,right,1,0.35504489999993893,317.8480547999998,None,None,316.64629779999996,317.83135059999995,0.5112740999998096,0.5945676000001185,1.7128084000000854,1.7961879999998018,,,,,,katie_1,001,2020_Jan_30_1204,posner,3.1.5,60.021163462184695,
-0.5,180,0,left,2,3,1,0,1,0,2,6,22,4,,,,,,,,,318.23232069999995,318.73281,319.4501492999998,None,318.7493116999999,319.4335637999998,319.9509392,None,left,1,0.41238160000011703,319.9509392,None,None,318.7493116999999,319.9340502,0.5120722000001479,0.5953868999999941,1.7132919000000584,1.7969879000002038,,,,,,katie_1,001,2020_Jan_30_1204,posner,3.1.5,60.021163462184695,
0.5,180,1,right,2,4,1,0,1,0,2,7,23,6,,,,,,,,,320.38465610000003,320.8854835999996,321.6032462999997,None,320.9022319999999,321.58637229999977,322.1039972999997,None,right,1,0.35508009999966816,322.1039972999997,None,None,320.9022319999999,322.08731039999975,0.5122997000003124,0.5958816000002116,1.714107900000272,1.7975368000002163,,,,,,katie_1,001,2020_Jan_30_1204,posner,3.1.5,60.021163462184695,
-0.5,0,1,left,1,3,1,0,1,0,3,0,24,2,,,,,,,,,322.48827140000003,322.9885420999999,323.70613639999965,None,323.0050103999997,323.6893817,324.20678769999995,None,left,1,0.42835039999999935,324.20678769999995,None,None,323.0050103999997,324.19013129999985,0.511888099999851,0.5953395999999884,1.7134523999998237,1.7967852000001585,,,,,,katie_1,001,2020_Jan_30_1204,posner,3.1.5,60.021163462184695,
-0.5,0,1,left,1,3,1,0,1,0,3,1,25,0,,,,,,,,,324.6582669999998,325.15825049999967,325.8757507,None,325.17476369999986,325.8590872999998,326.3763210999996,None,left,1,0.3708301000001484,326.3763210999996,None,None,325.17476369999986,326.359774,0.5117283999998108,0.5952831999998125,1.7132348999998612,1.7965533000001415,,,,,,katie_1,001,2020_Jan_30_1204,posner,3.1.5,60.021163462184695,
-0.5,180,0,left,2,3,1,0,1,0,3,2,26,4,,,,,,,,,326.77693569999974,327.2777038999998,327.9952552999998,None,327.29444139999987,327.9785523999999,328.49584959999993,None,left,1,0.43533789999992223,328.49584959999993,None,None,327.29444139999987,328.4794336,0.5119408000000476,0.5949464000000262,1.7133482999997796,1.7968731000000844,,,,,,katie_1,001,2020_Jan_30_1204,posner,3.1.5,60.021163462184695,
0.5,180,1,right,2,4,1,0,1,0,3,3,27,7,,,,,,,,,328.9469296999996,329.4472719999999,330.16497389999995,None,329.46396579999964,330.14828799999987,330.6655363,331.1496995999996,right,1,0.49767219999966983,330.6655363,None,None,329.46396579999964,330.64907449999964,0.5117175999998835,0.5950444000000061,1.7134769999997843,1.796930599999996,,,,,,katie_1,001,2020_Jan_30_1204,posner,3.1.5,60.021163462184695,
0.5,180,1,right,2,4,1,0,1,0,3,4,28,6,,,,,,,,,331.18361909999976,331.6837437999998,332.4014342999999,None,331.7005250999996,332.38461849999976,332.9020916999998,None,right,1,0.364946400000008,332.9020916999998,None,None,331.7005250999996,332.8853654999998,0.511666200000036,0.5949673000000075,1.7132732000000033,1.7969164000001001,,,,,,katie_1,001,2020_Jan_30_1204,posner,3.1.5,60.021163462184695,
0.5,0,0,right,1,4,1,0,1,0,3,5,29,3,,,,,,,,,333.2868865999999,333.78649879999966,334.50418509999963,None,333.8032202999998,334.4877056999999,335.00490249999984,None,right,1,0.39033340000014505,335.00490249999984,None,None,333.8032202999998,334.9882358,0.5112581000003047,0.5946758000000045,1.7129751000002216,1.7964324000004126,,,,,,katie_1,001,2020_Jan_30_1204,posner,3.1.5,60.021163462184695,
0.5,180,1,right,2,4,1,0,1,0,3,6,30,5,,,,,,,,,335.4228957999999,335.9228989999997,336.6406095999996,None,335.9396351999999,336.62385559999984,337.14125779999995,337.62533159999975,right,1,0.4698600000001534,337.14125779999995,None,None,335.9396351999999,337.1244939999997,0.5116487999998753,0.5950768999996399,1.713224099999934,1.7969028999996226,,,,,,katie_1,001,2020_Jan_30_1204,posner,3.1.5,60.021163462184695,
-0.5,0,1,left,1,3,1,0,1,0,3,7,31,1,,,,,,,,,337.6425486999997,338.1425955999998,338.8603866999997,None,338.1595771999996,338.8437111999997,339.3610128999999,None,left,1,0.4021400999999969,339.3610128999999,None,None,338.1595771999996,339.34406149999995,0.5114923999999519,0.594634699999915,1.7129350999998678,1.7968336999997518,,,,,,katie_1,001,2020_Jan_30_1204,posner,3.1.5,60.021163462184695,
0.5,180,1,right,2,4,1,0,1,0,4,0,32,5,,,,,,,,,339.7788410999997,340.27905789999977,340.99655489999986,None,340.2955952999996,340.9799366999996,341.4970079999998,None,right,1,0.3701136999998198,341.4970079999998,None,None,340.2955952999996,341.48035709999976,0.5117433000000347,0.5949407999996765,1.7130293999998685,1.796635199999855,,,,,,katie_1,001,2020_Jan_30_1204,posner,3.1.5,60.021163462184695,
-0.5,0,1,left,1,3,1,0,1,0,4,1,33,2,,,,,,,,,341.8982139,342.39861459999975,343.1159693999998,None,342.4149686999999,343.09956299999976,343.61676629999965,None,left,1,0.3462541999997484,343.61676629999965,None,None,342.4149686999999,343.60014509999974,0.511718700000074,0.594903499999873,1.7132535999999163,1.7967125999998643,,,,,,katie_1,001,2020_Jan_30_1204,posner,3.1.5,60.021163462184695,
-0.5,0,1,left,1,3,1,0,1,0,4,2,34,0,,,,,,,,,343.98442479999994,344.48461369999995,345.20247359999985,None,344.50136599999996,345.1856826999997,345.7033405999996,None,left,1,0.4517381000000569,345.7033405999996,None,None,344.50136599999996,345.6863274999996,0.5119065000003502,0.5955275000001166,1.7136035000003176,1.7971497000003183,,,,,,katie_1,001,2020_Jan_30_1204,posner,3.1.5,60.021163462184695,
-0.5,180,0,left,2,3,1,0,1,0,4,3,35,4,,,,,,,,,346.17099489999964,346.67104689999996,347.3887861999997,None,346.6877789,347.3718799999997,347.88947549999966,None,left,1,0.46564440000020113,347.88947549999966,None,None,346.6877789,347.87289789999977,0.5115872000001218,0.5948849999999766,1.7134256000003916,1.796579500000007,,,,,,katie_1,001,2020_Jan_30_1204,posner,3.1.5,60.021163462184695,
0.5,180,1,right,2,4,1,0,1,0,4,4,36,7,,,,,,,,,348.3741461999998,348.8739254999996,349.5916100999998,None,348.89087819999986,349.57495059999974,350.0925219999999,350.57633099999975,left,0,0.4865778000003047,350.0925219999999,None,None,348.89087819999986,350.0755803999996,0.5114526000002115,0.5949518000002172,1.7130906000002142,1.7966857000001255,,,,,,katie_1,001,2020_Jan_30_1204,posner,3.1.5,60.021163462184695,
-0.5,0,1,left,1,3,1,0,1,0,4,5,37,1,,,,,,,,,350.6103178999997,351.1105333999999,351.8280368999999,None,351.12722269999995,351.81110409999974,352.3288700999997,None,left,1,0.4262213000001793,352.3288700999997,None,None,351.12722269999995,352.3121280999999,0.5115513999999166,0.5947980999999345,1.7131291000000601,1.7963598999999704,,,,,,katie_1,001,2020_Jan_30_1204,posner,3.1.5,60.021163462184695,
0.5,0,0,right,1,4,1,0,1,0,4,6,38,3,,,,,,,,,352.78013199999987,353.2799172,353.9977350999998,None,353.2966578999999,353.9811805999998,354.4985493999998,None,right,1,0.4005710999999792,354.4985493999998,None,None,353.2966578999999,354.4816480999998,0.5114201000001231,0.5950387000002593,1.7131380999999237,1.796486300000197,,,,,,katie_1,001,2020_Jan_30_1204,posner,3.1.5,60.021163462184695,
0.5,180,1,right,2,4,1,0,1,0,4,7,39,6,,,,,,,,,354.91623359999994,355.4162389999997,356.13378339999963,None,355.4331242999997,356.1172991999997,356.6346093999996,None,right,1,0.448421099999905,356.6346093999996,None,None,355.4331242999997,356.61812139999984,0.511715600000116,0.5953564000001279,1.713575199999923,1.7971090999999433,,,,,,katie_1,001,2020_Jan_30_1204,posner,3.1.5,60.021163462184695,
-0.5,0,1,left,1,3,1,0,1,0,5,0,40,0,,,,,,,,,357.1027288999999,357.6027064,358.32053859999996,None,357.61927019999985,358.30372369999986,358.82102699999996,None,left,1,0.445989599999848,358.82102699999996,None,None,357.61927019999985,358.80433129999983,0.511823099999674,0.5951583999999457,1.713431899999705,1.7970334999999977,,,,,,katie_1,001,2020_Jan_30_1204,posner,3.1.5,60.021163462184695,
-0.5,0,1,left,1,3,1,0,1,0,5,1,41,2,,,,,,,,,359.2886656999999,359.7891967999999,360.50674449999997,None,359.80559089999997,360.4899608999999,361.0076509999999,361.4911675999997,left,1,0.47556810000014593,361.0076509999999,None,None,359.80559089999997,360.99080189999995,0.5126157999998213,0.5960225999997419,1.7142039999998815,1.7975146999997378,,,,,,katie_1,001,2020_Jan_30_1204,posner,3.1.5,60.021163462184695,
-0.5,0,1,left,1,3,1,0,1,0,5,2,42,1,,,,,,,,,361.5084480999999,362.0087346999999,362.7263187999997,None,362.0252223999996,362.7097672,363.2272389999998,None,left,1,0.3676826999999321,363.2272389999998,None,None,362.0252223999996,363.2105327999998,0.512156799999957,0.5955879000002824,1.7139383000003363,1.7970829000000776,,,,,,katie_1,001,2020_Jan_30_1204,posner,3.1.5,60.021163462184695,
0.5,180,1,right,2,4,1,0,1,0,5,3,43,5,,,,,,,,,363.61168259999977,364.11178089999976,364.8291548999996,None,364.1283997999999,364.8126817999996,365.3298917999996,None,right,1,0.3050188000001981,365.3298917999996,None,None,364.1283997999999,365.31319669999993,0.5116087000001244,0.5948403000002145,1.713011700000152,1.7964921000002505,,,,,,katie_1,001,2020_Jan_30_1204,posner,3.1.5,60.021163462184695,
-0.5,180,0,left,2,3,1,0,1,0,5,4,44,4,,,,,,,,,365.66441129999976,366.1644372999999,366.88261539999985,None,366.18119009999964,366.8654343999997,367.3829879,367.86668599999985,left,1,0.47606739999991987,367.3829879,None,None,366.18119009999964,367.36609389999967,0.5114980000003015,0.5949165000001813,1.7131395000001248,1.7968011000002662,,,,,,katie_1,001,2020_Jan_30_1204,posner,3.1.5,60.021163462184695,
0.5,180,1,right,2,4,1,0,1,0,5,5,45,6,,,,,,,,,367.8842900999998,368.38443499999994,369.10204559999966,None,368.40084799999977,369.0852353999999,369.6027505999996,None,right,1,0.44027820000019346,369.6027505999996,None,None,368.40084799999977,369.5858469,0.5119056999997156,0.5952437999999347,1.7132947999998578,1.7967516999997315,,,,,,katie_1,001,2020_Jan_30_1204,posner,3.1.5,60.021163462184695,
0.5,0,0,right,1,4,1,0,1,0,5,6,46,3,,,,,,,,,370.0700526999999,370.57064539999965,371.2882652999997,None,370.5872526999997,371.27160449999974,371.7889616999996,None,right,1,0.42995650000011665,371.7889616999996,None,None,370.5872526999997,371.77213489999986,0.5118105999999898,0.5951159000001098,1.7132817000001523,1.7966983000001164,,,,,,katie_1,001,2020_Jan_30_1204,posner,3.1.5,60.021163462184695,
0.5,180,1,right,2,4,1,0,1,0,5,7,47,7,,,,,,,,,372.2406200999999,372.7404362999996,373.4580271,None,372.7567925999997,373.4413738999997,373.9585936999997,None,right,1,0.30039750000014465,373.9585936999997,None,None,372.7567925999997,373.9418605999999,0.5116981000001033,0.5948914000000514,1.7130996000000778,1.7963576000001922,,,,,,katie_1,001,2020_Jan_30_1204,posner,3.1.5,60.021163462184695,
-0.5,0,1,left,1,3,1,0,1,0,6,0,48,2,,,,,,,,,374.2764860999996,374.77630249999993,375.4938379,None,374.79302989999996,375.4774491999997,375.9946630999998,None,left,1,0.39229470000009314,375.9946630999998,None,None,374.79302989999996,375.9781363999996,0.5115757999997186,0.5952395999997862,1.713386200000059,1.7966040999999677,,,,,,katie_1,001,2020_Jan_30_1204,posner,3.1.5,60.021163462184695,
0.5,0,0,right,1,4,1,0,1,0,6,1,49,3,,,,,,,,,376.4128077999999,376.91278999999986,377.63017779999973,None,376.92931229999976,377.6135875,378.13108459999967,None,right,1,0.37586899999996604,378.13108459999967,None,None,376.92931229999976,378.1142189999996,0.5116941000001134,0.5949228000004041,1.7131044000002476,1.7968454000001657,,,,,,katie_1,001,2020_Jan_30_1204,posner,3.1.5,60.021163462184695,
-0.5,0,1,left,1,3,1,0,1,0,6,2,50,1,,,,,,,,,378.53207169999996,379.0324691999999,379.74982329999966,None,379.0490362999999,379.73333239999965,380.25072109999974,380.7343695999998,left,1,0.5841959999997925,380.25072109999974,None,None,379.0490362999999,380.2337238,0.5118345999999292,0.5949686999997539,1.7130723000000216,1.7965997000001153,,,,,,katie_1,001,2020_Jan_30_1204,posner,3.1.5,60.021163462184695,
-0.5,0,1,left,1,3,1,0,1,0,6,3,51,0,,,,,,,,,380.85182959999975,381.3519486,382.0697858999997,None,381.36882179999975,382.05322529999967,382.5705994,None,left,1,0.3763397999996414,382.5705994,None,None,381.36882179999975,382.5537548999996,0.5116645999996763,0.595088399999895,1.7134571999999935,1.7968806999997469,,,,,,katie_1,001,2020_Jan_30_1204,posner,3.1.5,60.021163462184695,
-0.5,180,0,left,2,3,1,0,1,0,6,4,52,4,,,,,,,,,382.97139769999967,383.4715956,384.18930729999965,None,383.48848469999984,384.1728329999996,384.6900922,None,left,1,0.37676039999996647,384.6900922,None,None,383.48848469999984,384.6732387999996,0.5118320999999924,0.5951304999998683,1.7134627000000364,1.7968392999996468,,,,,,katie_1,001,2020_Jan_30_1204,posner,3.1.5,60.021163462184695,
0.5,180,1,right,2,4,1,0,1,0,6,5,53,5,,,,,,,,,385.0912153999998,385.5911793999999,386.3089253999997,None,385.6079101,386.29225469999983,386.80954759999986,None,right,1,0.29747279999992315,386.80954759999986,None,None,385.6079101,386.7928337999997,0.5112629000000197,0.594658999999865,1.712901200000033,1.7963466999999582,,,,,,katie_1,001,2020_Jan_30_1204,posner,3.1.5,60.021163462184695,
0.5,180,1,right,2,4,1,0,1,0,6,6,54,7,,,,,,,,,387.12722749999966,387.6274168,388.3448257,None,387.64408719999983,388.32853929999965,388.8455694999998,None,right,1,0.39736239999956524,388.8455694999998,None,None,387.64408719999983,388.82906649999995,0.5116292000002431,0.5950828000000001,1.7132528000001912,1.7967992000003505,,,,,,katie_1,001,2020_Jan_30_1204,posner,3.1.5,60.021163462184695,
0.5,180,1,right,2,4,1,0,1,0,6,7,55,6,,,,,,,,,389.26376789999995,389.7634604,390.4814735,None,389.7802853999997,390.4644777999997,390.98200759999963,None,right,1,0.34891060000018115,390.98200759999963,None,None,389.7802853999997,390.9651875999998,0.5115292000000409,0.5952007999999296,1.7132367999997768,1.7968424000000596,,,,,,katie_1,001,2020_Jan_30_1204,posner,3.1.5,60.021163462184695,
-0.5,0,1,left,1,3,1,0,1,0,7,0,56,1,,,,,,,,,391.3499853999997,391.8497717,392.56732829999964,None,391.8664383,392.55084199999965,393.0681147999999,None,left,1,0.3187785000000076,393.0681147999999,None,None,391.8664383,393.0512604999999,0.5114693999998963,0.5948939999998402,1.7129331999999522,1.7964593000001514,,,,,,katie_1,001,2020_Jan_30_1204,posner,3.1.5,60.021163462184695,
-0.5,180,0,left,2,3,1,0,1,0,7,1,57,4,,,,,,,,,393.4025434,393.9026114999997,394.6204224999997,None,393.9194425999999,394.6038721,395.1211122999998,None,left,1,0.3776281000000381,395.1211122999998,None,None,393.9194425999999,395.10433799999964,0.511690599999838,0.5950435999998263,1.7133983999997326,1.7969287999999324,,,,,,katie_1,001,2020_Jan_30_1204,posner,3.1.5,60.021163462184695,
0.5,180,1,right,2,4,1,0,1,0,7,2,58,7,,,,,,,,,395.5222563999996,396.0223162999996,396.7402388999999,None,396.03898579999986,396.7231339,397.2408046999999,None,right,1,0.41809779999994134,397.2408046999999,None,None,396.03898579999986,397.2238459,0.5116074999996272,0.5949570999996467,1.713122199999816,1.7968354999998155,,,,,,katie_1,001,2020_Jan_30_1204,posner,3.1.5,60.021163462184695,
-0.5,0,1,left,1,3,1,0,1,0,7,3,59,2,,,,,,,,,397.6749791999996,398.17508769999995,398.8927727,None,398.1919321999999,398.87614369999983,399.3933724999997,399.8776484,left,1,0.5935042000000976,399.3933724999997,None,None,398.1919321999999,399.37675339999987,0.5117564000001948,0.595392499999889,1.7133990000002086,1.7969195999999101,,,,,,katie_1,001,2020_Jan_30_1204,posner,3.1.5,60.021163462184695,
0.5,180,1,right,2,4,1,0,1,0,7,4,60,6,,,,,,,,,400.0114002,400.5116883999999,401.22958329999983,None,400.52841639999997,401.21268889999965,401.73003489999974,None,right,1,0.304788599999938,401.73003489999974,None,None,400.52841639999997,401.7136078999997,0.5119028000003709,0.5953266999999869,1.7138050000003204,1.7969575000001896,,,,,,katie_1,001,2020_Jan_30_1204,posner,3.1.5,60.021163462184695,
0.5,180,1,right,2,4,1,0,1,0,7,5,61,5,,,,,,,,,402.0644176999999,402.5644597999999,403.2824685999999,None,402.5812629999996,403.26557,403.78288269999985,None,right,1,0.3959485999998833,403.78288269999985,None,None,402.5812629999996,403.7662099999998,0.511734400000023,0.5951991000001726,1.7134651999999733,1.797023900000113,,,,,,katie_1,001,2020_Jan_30_1204,posner,3.1.5,60.021163462184695,
-0.5,0,1,left,1,3,1,0,1,0,7,6,62,0,,,,,,,,,404.2007263999999,404.70081709999977,405.41850929999964,None,404.7177380999997,405.4017901999996,405.91911089999985,None,left,1,0.35585870000022624,405.91911089999985,None,None,404.7177380999997,405.9023527999998,0.5115714000003209,0.5950050000001283,1.7130965999999717,1.7964937000001555,,,,,,katie_1,001,2020_Jan_30_1204,posner,3.1.5,60.021163462184695,
0.5,0,0,right,1,4,1,0,1,0,7,7,63,3,,,,,,,,,406.3039610999999,406.8037958,407.52155289999973,None,406.8206118999997,407.50473009999996,408.02212439999994,None,right,1,0.3488025999999991,408.02212439999994,None,None,406.8206118999997,408.0055046999996,0.5116990000001351,0.595068000000083,1.71339560000024,1.7966497000002164,,,,,,katie_1,001,2020_Jan_30_1204,posner,3.1.5,60.021163462184695,
0.5,180,1,right,2,4,1,0,1,0,8,0,64,7,,,,,,,,,408.3899655,408.88977899999963,409.6076951,None,408.9065297999996,409.59100409999974,410.10825959999966,None,right,1,0.35051229999999123,410.10825959999966,None,None,408.9065297999996,410.09161529999983,0.5113563999998405,0.5948415999996541,1.713169299999663,1.7966453999997611,,,,,,katie_1,001,2020_Jan_30_1204,posner,3.1.5,60.021163462184695,
-0.5,180,0,left,2,3,1,0,1,0,8,1,65,4,,,,,,,,,410.47617549999995,410.9761094999999,411.6937707999996,None,410.9929011999998,411.6770692,412.19441659999984,None,left,1,0.4245239000001675,412.19441659999984,None,None,410.9929011999998,412.1778376999996,0.5113243000000693,0.5949077000000216,1.713028900000154,1.7964653999997608,,,,,,katie_1,001,2020_Jan_30_1204,posner,3.1.5,60.021163462184695,
0.5,0,0,right,1,4,1,0,1,0,8,2,66,3,,,,,,,,,412.64587949999986,413.1455880999997,413.86329899999964,None,413.16259409999975,413.84647099999984,414.3640287999997,None,right,1,0.31886290000011286,414.3640287999997,None,None,413.16259409999975,414.3475906999997,0.5112619999999879,0.5948463000004267,1.7132413000003908,1.7967853000000105,,,,,,katie_1,001,2020_Jan_30_1204,posner,3.1.5,60.021163462184695,
-0.5,0,1,left,1,3,1,0,1,0,8,3,67,2,,,,,,,,,414.71498859999974,415.2152268,415.93287969999983,None,415.2319816999998,415.9162104999996,416.43361289999984,None,left,1,0.32914660000005824,416.43361289999984,None,None,415.2319816999998,416.4170036999999,0.5115185999998175,0.59513939999988,1.7132761000002574,1.7966356000001724,,,,,,katie_1,001,2020_Jan_30_1204,posner,3.1.5,60.021163462184695,
-0.5,0,1,left,1,3,1,0,1,0,8,4,68,1,,,,,,,,,416.7849836999999,417.2847585999998,418.0025085999996,None,417.3015029999997,417.98561259999997,418.5034544,418.9872338,left,1,0.7952992999998969,418.5034544,None,None,417.3015029999997,418.4864518999998,0.511539200000243,0.5950277000001734,1.7132142999998905,1.7967152999999598,,,,,,katie_1,001,2020_Jan_30_1204,posner,3.1.5,60.021163462184695,
0.5,180,1,right,2,4,1,0,1,0,8,5,69,6,,,,,,,,,419.3214862,419.8216018999997,420.5393519999998,None,419.83829799999967,420.52266569999983,421.0400316,None,right,1,0.34673079999993206,421.0400316,None,None,419.83829799999967,421.02318739999964,0.5116281999999046,0.5951287000002594,1.7132031999999526,1.7967109000001074,,,,,,katie_1,001,2020_Jan_30_1204,posner,3.1.5,60.021163462184695,
0.5,180,1,right,2,4,1,0,1,0,8,6,70,5,,,,,,,,,421.4078832,421.9078592999999,422.6256774999997,None,421.9245652999998,422.6091462999998,423.12604029999966,None,right,1,0.3568102999997791,423.12604029999966,None,None,421.9245652999998,423.10975559999997,0.511490600000343,0.5949141000000964,1.7133748000001106,1.7967000000003281,,,,,,katie_1,001,2020_Jan_30_1204,posner,3.1.5,60.021163462184695,
-0.5,0,1,left,1,3,1,0,1,0,8,7,71,0,,,,,,,,,423.51071239999965,424.0106431999998,424.72849129999986,None,424.0274476999998,424.7116113999996,425.22897859999966,None,left,1,0.32578749999993306,425.22897859999966,None,None,424.0274476999998,425.2124165,0.5117064000000937,0.5950546999997641,1.7134554999997818,1.7968064000001505,,,,,,katie_1,001,2020_Jan_30_1204,posner,3.1.5,60.021163462184695,
0.5,180,1,right,2,4,1,0,1,0,9,0,72,6,,,,,,,,,425.5800998999998,426.0803764999996,426.7977200999999,None,426.09696859999985,426.7813183999997,427.2986718999996,None,right,1,0.39213040000004185,427.2986718999996,None,None,426.09696859999985,427.2818927999997,0.5116155999999137,0.5949102999998104,1.7131164999996145,1.796447299999727,,,,,,katie_1,001,2020_Jan_30_1204,posner,3.1.5,60.021163462184695,
0.5,0,0,right,1,4,1,0,1,0,9,1,73,3,,,,,,,,,427.7163575999998,428.2164598999998,428.9340782999998,None,428.23322979999966,428.91758189999973,429.4348107999999,None,right,1,0.44000340000002325,429.4348107999999,None,None,428.23322979999966,429.4183057,0.5110804999999345,0.5946570000000975,1.7129039000001285,1.7963050000003022,,,,,,katie_1,001,2020_Jan_30_1204,posner,3.1.5,60.021163462184695,
-0.5,0,1,left,1,3,1,0,1,0,9,2,74,1,,,,,,,,,429.90290559999994,430.40290579999964,431.1205071999998,None,430.4197233,431.1037702999997,431.6211997999999,None,left,1,0.3655917999999474,431.6211997999999,None,None,430.4197233,431.60454869999967,0.5117765999998483,0.5951709000000847,1.7133979000000181,1.7967847999998412,,,,,,katie_1,001,2020_Jan_30_1204,posner,3.1.5,60.021163462184695,
-0.5,180,0,left,2,3,1,0,1,0,9,3,75,4,,,,,,,,,432.0051583999998,432.5057598999997,433.22348379999994,None,432.5225068999998,433.2067566999999,433.72407019999946,434.20821000000024,left,1,0.49453429999994114,433.72407019999946,None,None,432.5225068999998,433.7077147999994,0.5116667999996025,0.5948051999998825,1.7136020000002645,1.7966999999994187,,,,,,katie_1,001,2020_Jan_30_1204,posner,3.1.5,60.021163462184695,
0.5,180,1,right,2,4,1,0,1,0,9,4,76,7,,,,,,,,,434.2423395999999,434.7424952999995,435.4598751999997,None,434.7588721999996,435.44324929999993,435.96077920000016,436.4442761999994,right,1,0.5699436000004425,435.96077920000016,None,left,434.7588721999996,435.9438181999999,0.5122434000004432,0.595117200000459,1.7135531000003539,1.796900000000278,,,,,0.6679739000001064,katie_1,001,2020_Jan_30_1204,posner,3.1.5,60.021163462184695,
-0.5,0,1,left,1,3,1,0,1,0,9,5,77,2,,,,,,,,,436.5617361999998,437.0621226999997,437.7796513999997,None,437.07879730000013,437.76297769999974,438.2804261999995,None,left,1,0.33027769999989687,438.2804261999995,None,None,437.07879730000013,438.2637033999995,0.5117583999999624,0.5949817999999141,1.713314999999966,1.7965814999997747,,,,,,katie_1,001,2020_Jan_30_1204,posner,3.1.5,60.021163462184695,
-0.5,0,1,left,1,3,1,0,1,0,9,6,78,0,,,,,,,,,438.63156630000003,439.13163889999987,439.84855839999955,None,439.14818030000015,439.83268180000005,440.3499323000001,440.83393659999956,None,0,,440.3499323000001,None,None,439.14818030000015,440.33321299999943,0.5117588000002797,0.5949065000004339,1.713318000000072,1.7966384000001199,,,,,,katie_1,001,2020_Jan_30_1204,posner,3.1.5,60.021163462184695,
0.5,180,1,right,2,4,1,0,1,0,9,7,79,5,,,,,,,,,441.3345279,441.8349925999996,442.55289799999946,441.3345279,441.8520685999997,442.5361233999997,443.0536304000002,None,right,1,0.4529962999995405,443.0536304000002,None,right,441.8520685999997,443.03681540000025,0.5131946999999855,0.5967642999994496,1.7149867999996786,1.7984679000001051,,,,,0.7266553999997996,katie_1,001,2020_Jan_30_1204,posner,3.1.5,60.021163462184695,
-0.5,0,1,left,1,3,1,0,1,0,10,0,80,0,,,,,,,,,443.53816289999986,444.0382346000001,444.7560822999999,None,444.0549070000002,444.73933669999997,445.2566390999996,443.53816289999986,left,1,0.4179882999997062,445.2566390999996,None,None,444.0549070000002,445.2406019999994,0.5114189999994778,0.595039299999371,1.7137551999994685,1.7962829999996757,,,,,,katie_1,001,2020_Jan_30_1204,posner,3.1.5,60.021163462184695,
-0.5,180,0,left,2,3,1,0,1,0,10,1,81,4,,,,,,,,,445.6913436,446.1913577999999,446.9090534000002,None,446.20799320000015,446.8923153999999,447.4098380999999,447.8935587000001,left,1,0.592870600000424,447.4098380999999,None,None,446.20799320000015,447.39283659999955,0.5117487000006804,0.5950557000005574,1.7132170000004407,1.7964553000001615,,,,,,katie_1,001,2020_Jan_30_1204,posner,3.1.5,60.021163462184695,
0.5,180,1,right,2,4,1,0,1,0,10,2,82,6,,,,,,,,,448.0277148,448.5279842999994,449.24548639999966,None,448.5443918999995,449.22880940000005,449.7460748999997,None,right,1,0.3766782000002422,449.7460748999997,None,None,448.5443918999995,449.72935180000013,0.5119049000004452,0.595043700000133,1.7132590999999593,1.7968940999999177,,,,,,katie_1,001,2020_Jan_30_1204,posner,3.1.5,60.021163462184695,
0.5,180,1,right,2,4,1,0,1,0,10,3,83,5,,,,,,,,,450.1476745999994,450.6474750000002,451.3650997999998,None,450.66402400000015,451.34841370000004,451.86580339999955,None,right,1,0.3928445000001375,451.86580339999955,None,None,450.66402400000015,451.8490998000002,0.5118382000000565,0.5950784999995449,1.713445899999897,1.7969685999996727,,,,,,katie_1,001,2020_Jan_30_1204,posner,3.1.5,60.021163462184695,
0.5,180,1,right,2,4,1,0,1,0,10,4,84,7,,,,,,,,,452.28376609999987,452.7835577999999,453.50128769999947,None,452.80036379999956,453.4845228999998,454.0021966999998,None,right,1,0.40070009999999456,454.0021966999998,None,None,452.80036379999956,453.98533610000004,0.5113776999996844,0.5948743999997532,1.7131432999995013,1.7965662999995402,,,,,,katie_1,001,2020_Jan_30_1204,posner,3.1.5,60.021163462184695,
0.5,0,0,right,1,4,1,0,1,0,10,5,85,3,,,,,,,,,454.41941780000025,454.91999160000023,455.63782049999963,None,454.93660319999935,455.6208439999996,456.13826299999937,456.62243439999975,right,1,0.7122857000003933,456.13826299999937,None,None,454.93660319999935,456.1217114999995,0.5121671000006245,0.5956689000004189,1.7138695000003281,1.7972286000003805,,,,,,katie_1,001,2020_Jan_30_1204,posner,3.1.5,60.021163462184695,
-0.5,0,1,left,1,3,1,0,1,0,10,6,86,2,,,,,,,,,456.87314130000004,457.3733748999998,458.09108329999935,None,457.3898991000001,458.07418430000007,458.59178529999963,None,left,1,0.3709055999997872,458.59178529999963,None,None,457.3898991000001,458.57491749999963,0.5118449000001419,0.5951767999995354,1.7133757999999943,1.7970831000002363,,,,,,katie_1,001,2020_Jan_30_1204,posner,3.1.5,60.021163462184695,
-0.5,0,1,left,1,3,1,0,1,0,10,7,87,1,,,,,,,,,458.9925275999999,459.4929271999995,460.2106896,None,459.50958989999936,460.1938147999995,460.7112401999998,None,left,1,0.42731999999978143,460.7112401999998,None,None,459.50958989999936,460.6943113000002,0.5118996000001061,0.5952742999998009,1.7132707000000664,1.796917399999984,,,,,,katie_1,001,2020_Jan_30_1204,posner,3.1.5,60.021163462184695,
,,,,,,1,0,1,0,,,,,,,,,,,,,,,,,,,,,,,,,,,,,,,,,461.1620247999995,None,1.7299999854003545e-05,0.9959006999997655,,katie_1,001,2020_Jan_30_1204,posner,3.1.5,60.021163462184695,
0.5,180,1,right,2,4,2,0,2,0,0,0,0,7,1.2000000424450263e-05,0.0978054000006523,522.1790448999996,None,1.559999964229064e-05,0.09761369999978342,524.2820058000002,None,524.5622726999995,525.0665093000002,525.7840301000001,None,525.0830476999995,525.7675335999998,526.2847671999994,526.7687930999996,right,1,0.5176358000007895,526.2847671999994,None,None,525.0830476999995,526.2682051999996,0.5137359999998807,0.5970451000002868,1.7154123000000254,1.798722600000474,,,,,,katie_1,001,2020_Jan_30_1204,posner,3.1.5,60.021163462184695,
-0.5,0,1,left,1,3,2,0,2,0,0,1,1,1,,,,,,,,,526.8202718999996,527.3196617999997,528.0373255,None,527.3361030000001,528.0207098999995,528.5379843999995,None,left,1,0.3603254999998171,528.5379843999995,None,None,527.3361030000001,528.5213825999995,0.51098169999932,0.5942761999995128,1.7126974999991944,1.7959052999995038,,,,,,katie_1,001,2020_Jan_30_1204,posner,3.1.5,60.021163462184695,
0.5,0,0,right,1,4,2,0,2,0,0,2,2,3,,,,,,,,,528.9220942999996,529.4225449999999,530.1401550999994,None,529.4390508000001,530.1234650000001,530.6408669999996,None,right,1,0.3454797000003964,530.6408669999996,None,None,529.4390508000001,530.6240213999995,0.5120005999997375,0.5952511999994385,1.7134642999999414,1.797146399999292,,,,,,katie_1,001,2020_Jan_30_1204,posner,3.1.5,60.021163462184695,
0.5,180,1,right,2,4,2,0,2,0,0,3,3,6,,,,,,,,,531.0087312999999,531.5087551000001,532.2261736999994,None,531.5251788,532.2096391,532.7271463000002,None,right,1,0.36328060000050755,532.7271463000002,None,None,531.5251788,532.7102831999996,0.511514900000293,0.5948969999999463,1.713030599999911,1.7963385000002745,,,,,,katie_1,001,2020_Jan_30_1204,posner,3.1.5,60.021163462184695,
-0.5,0,1,left,1,3,2,0,2,0,0,4,4,2,,,,,,,,,533.1108426999995,533.6114256999995,534.3292140999997,None,533.6283546,534.3125791999996,534.8296678000002,None,left,1,0.3727744999996503,534.8296678000002,None,None,533.6283546,534.8132836,0.5117053999993004,0.5950642999996489,1.7135419999995065,1.7968506999995952,,,,,,katie_1,001,2020_Jan_30_1204,posner,3.1.5,60.021163462184695,
0.5,180,1,right,2,4,2,0,2,0,0,5,5,5,,,,,,,,,535.2310071999996,535.7308977999996,536.4487524000001,None,535.7476913999994,536.4321238999996,536.9494576000002,None,right,1,0.308846299999459,536.9494576000002,None,None,535.7476913999994,536.9327164000001,0.511674899999889,0.5951005999995687,1.7134697000001324,1.7969829000003301,,,,,,katie_1,001,2020_Jan_30_1204,posner,3.1.5,60.021163462184695,
-0.5,0,1,left,1,3,2,0,2,0,0,6,6,0,,,,,,,,,537.2835144999995,537.7838944,538.5013944999996,None,537.8006295,538.4848756999995,539.0022247000002,None,left,1,0.3680097000005844,539.0022247000002,None,None,537.8006295,538.9854017000002,0.5121190999998362,0.5955901000006634,1.7136074999998527,1.797144500000286,,,,,,katie_1,001,2020_Jan_30_1204,posner,3.1.5,60.021163462184695,
-0.5,180,0,left,2,3,2,0,2,0,0,7,7,4,,,,,,,,,539.3870528000002,539.8870043000002,540.6044815999999,None,539.9035649000002,540.5878133000001,541.1051119999997,541.5889941,left,1,0.5451266000000032,541.1051119999997,None,None,539.9035649000002,541.0883993000002,0.5118040999996083,0.5950177999993684,1.713181999999506,1.7966516999995292,,,,,,katie_1,001,2020_Jan_30_1204,posner,3.1.5,60.021163462184695,
-0.5,0,1,left,1,3,2,0,2,0,1,0,8,0,,,,,,,,,541.6733697999994,542.1733324000002,542.890903,None,542.1901223999998,542.8742984999994,543.3915585,None,left,1,0.3627126000001226,543.3915585,None,None,542.1901223999998,543.3747131999994,0.511629599999651,0.5950511000000915,1.712991399999737,1.7967087999995783,,,,,,katie_1,001,2020_Jan_30_1204,posner,3.1.5,60.021163462184695,
0.5,0,0,right,1,4,2,0,2,0,1,1,9,3,,,,,,,,,543.7762658999995,544.2761062999994,544.9937268999997,None,544.2928496999998,544.9773364999996,545.4944499999997,None,right,1,0.4198442000006253,545.4944499999997,None,None,544.2928496999998,545.4778470999995,0.5112052000004041,0.5948569000001953,1.7129260000001523,1.7964126000006218,,,,,,katie_1,001,2020_Jan_30_1204,posner,3.1.5,60.021163462184695,
0.5,180,1,right,2,4,2,0,2,0,1,2,10,7,,,,,,,,,545.9458081999996,546.4456655999998,547.1632668999996,None,546.4624111999997,547.1468548999997,547.6640912999997,None,right,1,0.3861834999997882,547.6640912999997,None,None,546.4624111999997,547.6477835000001,0.5115056999993612,0.5949260999996113,1.7135985999993864,1.7967570999999225,,,,,,katie_1,001,2020_Jan_30_1204,posner,3.1.5,60.021163462184695,
0.5,180,1,right,2,4,2,0,2,0,1,3,11,6,,,,,,,,,548.0818743999994,548.5822648999997,549.2997642999994,None,548.5987755000001,549.2830565999998,549.8004962999998,None,right,1,0.36975929999971413,549.8004962999998,None,None,548.5987755000001,549.7837149000002,0.5118720000000394,0.5950562999996691,1.7133068000002822,1.7968356000001222,,,,,,katie_1,001,2020_Jan_30_1204,posner,3.1.5,60.021163462184695,
0.5,180,1,right,2,4,2,0,2,0,1,4,12,5,,,,,,,,,550.2011705,550.7017378999994,551.4194483999995,None,550.7184296,551.4025504999995,551.9200435999996,None,right,1,0.394122900000184,551.9200435999996,None,None,550.7184296,551.9031506999995,0.5117917000006855,0.5950497000003452,1.7131886000006489,1.7970236000001023,,,,,,katie_1,001,2020_Jan_30_1204,posner,3.1.5,60.021163462184695,
-0.5,0,1,left,1,3,2,0,2,0,1,5,13,2,,,,,,,,,552.3372144,552.8378514999999,553.5555938000002,None,552.8545565999998,553.5389900999994,554.0564282999999,None,left,1,0.3858628999996654,554.0564282999999,None,None,552.8545565999998,554.0396770000002,0.5116389000004347,0.5953659000006155,1.713439500000277,1.7967908999999054,,,,,,katie_1,001,2020_Jan_30_1204,posner,3.1.5,60.021163462184695,
-0.5,0,1,left,1,3,2,0,2,0,1,6,14,1,,,,,,,,,554.4576867999999,554.9575399,555.6749857999998,None,554.9741463999994,555.6586943999996,556.1757951999994,556.6599203000001,left,1,0.5544888000003994,556.1757951999994,None,None,554.9741463999994,556.1592916999994,0.5114448999993328,0.594984199999999,1.7131829999998445,1.7969116999993275,,,,,,katie_1,001,2020_Jan_30_1204,posner,3.1.5,60.021163462184695,
-0.5,180,0,left,2,3,2,0,2,0,1,7,15,4,,,,,,,,,556.7607254999998,557.2609054999998,557.9784464999998,None,557.2773487999998,557.9617257999994,558.4792247,558.9630499,left,1,0.8029257999996844,558.4792247,None,None,557.2773487999998,558.4624307999998,0.5115851000000475,0.5948875000003682,1.7130947000005108,1.7964842000001227,,,,,,katie_1,001,2020_Jan_30_1204,posner,3.1.5,60.021163462184695,
0.5,180,1,right,2,4,2,0,2,0,2,0,16,6,,,,,,,,,559.3138039,559.8139872999996,560.5319579000002,None,559.8309040999998,560.5149070000002,561.0326138999994,None,right,1,0.3136458999997558,561.0326138999994,None,None,559.8309040999998,561.0159512999994,0.5115858999997727,0.5951650999995763,1.7135296999995262,1.7971308999995017,,,,,,katie_1,001,2020_Jan_30_1204,posner,3.1.5,60.021163462184695,
-0.5,0,1,left,1,3,2,0,2,0,2,1,17,2,,,,,,,,,561.3675243000002,561.867221,562.5846613999997,None,561.883765,562.5682388999999,563.0852583999999,None,left,1,0.381026699999893,563.0852583999999,None,None,561.883765,563.0685354000002,0.5116277000006448,0.5949644000002081,1.7129297999999835,1.7965706000004502,,,,,,katie_1,001,2020_Jan_30_1204,posner,3.1.5,60.021163462184695,
-0.5,0,1,left,1,3,2,0,2,0,2,2,18,0,,,,,,,,,563.4869549,563.9867358999995,564.7041266000001,None,564.0035205999998,564.6876029999999,565.2048804000001,None,left,1,0.4452479999999923,565.2048804000001,None,None,564.0035205999998,565.1881711000001,0.5114425000001575,0.5947394000004351,1.7128751000000193,1.7964341999995668,,,,,,katie_1,001,2020_Jan_30_1204,posner,3.1.5,60.021163462184695,
-0.5,180,0,left,2,3,2,0,2,0,2,3,19,4,,,,,,,,,565.6734795999996,566.1729505999997,566.8906284,None,566.1896698999994,566.8737347000001,567.3914112999996,None,left,1,0.3708355999997366,567.3914112999996,None,None,566.1896698999994,567.3744812999998,0.5112043999997695,0.5947630000000572,1.7127203999998528,1.7961564999995971,,,,,,katie_1,001,2020_Jan_30_1204,posner,3.1.5,60.021163462184695,
0.5,180,1,right,2,4,2,0,2,0,2,4,20,7,,,,,,,,,567.7921116000002,568.2925383999996,569.0103663999994,None,568.3090691000002,568.9933760999998,569.5109384000002,None,right,1,0.3393481000002794,569.5109384000002,None,None,568.3090691000002,569.4940811000001,0.5118571000002703,0.5953135999998267,1.713386299999911,1.7971451000003071,,,,,,katie_1,001,2020_Jan_30_1204,posner,3.1.5,60.021163462184695,
-0.5,0,1,left,1,3,2,0,2,0,2,5,21,1,,,,,,,,,569.8783411,570.3788516999998,571.0966444000001,None,570.3952886000002,571.0795594999995,571.5973901000002,None,left,1,0.3569166999996014,571.5973901000002,None,None,570.3952886000002,571.5805692999998,0.5123538999996526,0.5958918999995149,1.7140539000001809,1.7973229999997784,,,,,,katie_1,001,2020_Jan_30_1204,posner,3.1.5,60.021163462184695,
0.5,0,0,right,1,4,2,0,2,0,2,6,22,3,,,,,,,,,571.9814172000001,572.4816664999994,573.1992005999996,None,572.4983743999996,573.1825530000001,573.6999239000002,None,right,1,0.334194999999454,573.6999239000002,None,None,572.4983743999996,573.6830651999994,0.5117068999998082,0.5949571000001015,1.7131005999999616,1.7968737999999576,,,,,,katie_1,001,2020_Jan_30_1204,posner,3.1.5,60.021163462184695,
0.5,180,1,right,2,4,2,0,2,0,2,7,23,5,,,,,,,,,574.0511218999995,574.5512084999996,575.268982,None,574.5680743999997,575.2522078999996,575.7695373000001,None,right,1,0.43264780000026803,575.7695373000001,None,None,574.5680743999997,575.7527864999997,0.511776600000303,0.5950736000004326,1.7133304999997563,1.7968356000001222,,,,,,katie_1,001,2020_Jan_30_1204,posner,3.1.5,60.021163462184695,
-0.5,0,1,left,1,3,2,0,2,0,3,0,24,2,,,,,,,,,576.2211062000001,576.7208207999997,577.4385041,None,576.7374261999998,577.4218054999997,577.9391260999996,None,left,1,0.35901409999951284,577.9391260999996,None,None,576.7374261999998,577.9226015999998,0.5114453999995021,0.5949572999998054,1.7132092000001649,1.7963163999993412,,,,,,katie_1,001,2020_Jan_30_1204,posner,3.1.5,60.021163462184695,
0.5,180,1,right,2,4,2,0,2,0,3,1,25,5,,,,,,,,,578.3235181999994,578.8234811999996,579.5414777999999,None,578.8404538999998,579.5244454999997,580.0420273999994,None,right,1,0.28805889999966894,580.0420273999994,None,None,578.8404538999998,580.0252257999996,0.5115566000004037,0.5953715000005104,1.713285600000745,1.7969333000000915,,,,,,katie_1,001,2020_Jan_30_1204,posner,3.1.5,60.021163462184695,
0.5,0,0,right,1,4,2,0,2,0,3,2,26,3,,,,,,,,,580.3597802999998,580.8599073,581.5775803000001,None,580.8765179999996,581.5607829999994,582.0782001000002,None,right,1,0.4599984000005861,582.0782001000002,None,None,580.8765179999996,582.0615679999996,0.5117105999997875,0.5950333999999202,1.7133483999996315,1.7965779999994993,,,,,,katie_1,001,2020_Jan_30_1204,posner,3.1.5,60.021163462184695,
-0.5,0,1,left,1,3,2,0,2,0,3,3,27,1,,,,,,,,,582.5627982999999,583.0629764999999,583.7805745000001,None,583.0796539999997,583.7637650000001,584.2813604999997,582.5627982999999,left,1,0.36068969999996625,584.2813604999997,None,None,583.0796539999997,584.2643802999996,0.5117926999992051,0.595192999999199,1.7131828999999925,1.7967693000000509,,,,,,katie_1,001,2020_Jan_30_1204,posner,3.1.5,60.021163462184695,
0.5,180,1,right,2,4,2,0,2,0,3,4,28,7,,,,,,,,,584.6657126999994,585.1655583999996,585.8832149999994,None,585.1825360999997,585.8668837,586.3839986999997,None,right,1,0.4020817000000534,586.3839986999997,None,None,585.1825360999997,586.3675579999995,0.5115346000002319,0.5951999999997497,1.7135104999997566,1.7968095000005633,,,,,,katie_1,001,2020_Jan_30_1204,posner,3.1.5,60.021163462184695,
-0.5,0,1,left,1,3,2,0,2,0,3,5,29,0,,,,,,,,,586.8020505,587.3019781999997,588.0198027000001,None,587.3186634999997,588.0030112999998,588.5204772000002,None,left,1,0.4096347999993668,588.5204772000002,None,None,587.3186634999997,588.5038116000001,0.5114838999998028,0.5948760999999649,1.7133044000001973,1.7967577999997957,,,,,,katie_1,001,2020_Jan_30_1204,posner,3.1.5,60.021163462184695,
-0.5,180,0,left,2,3,2,0,2,0,3,6,30,4,,,,,,,,,588.9552219000002,589.4547005999998,590.1726864999996,None,589.4716128999994,590.1560530000002,590.6732566999995,591.1576340999995,left,1,0.48906110000007175,590.6732566999995,None,None,589.4716128999994,590.6567153999999,0.5111277999994854,0.5947034000000713,1.7131603999996514,1.7969422999995004,,,,,,katie_1,001,2020_Jan_30_1204,posner,3.1.5,60.021163462184695,
0.5,180,1,right,2,4,2,0,2,0,3,7,31,6,,,,,,,,,591.1912269,591.6915033,592.409083,None,591.7082260000002,592.3923357999997,592.9097861999994,None,right,1,0.41249080000034155,592.9097861999994,None,None,591.7082260000002,592.8929592,0.5118962999995347,0.595092200000181,1.7133279999998194,1.7969348999995418,,,,,,katie_1,001,2020_Jan_30_1204,posner,3.1.5,60.021163462184695,
0.5,180,1,right,2,4,2,0,2,0,4,0,32,7,,,,,,,,,593.3445495000001,593.8442589000001,594.5622854999997,None,593.8610991999999,594.5452369999998,595.0627424999998,None,right,1,0.05143620000035298,595.0627424999998,None,None,593.8610991999999,595.0459907,0.5113117000000784,0.594899699999587,1.7130245999996987,None,,,,,,katie_1,001,2020_Jan_30_1204,posner,3.1.5,60.021163462184695,
0.5,180,1,right,2,4,2,0,2,0,4,1,33,5,,,,,,,,,595.1298102999995,595.6302664999998,596.3478445999995,None,595.6468935999997,596.3312086000001,596.8486484,597.3324025999996,left,0,0.5055099999999584,596.8486484,None,None,595.6468935999997,596.8319377000003,0.5113572999998723,0.5945494999996299,1.713010000000395,1.796342999999979,,,,,,katie_1,001,2020_Jan_30_1204,posner,3.1.5,60.021163462184695,
0.5,180,1,right,2,4,2,0,2,0,4,2,34,6,,,,,,,,,597.3830412000002,597.8830094,598.6009659999995,None,597.8997524000001,598.5841344999994,599.1016426000001,None,right,1,0.46845589999975346,599.1016426000001,None,None,597.8997524000001,599.0847235999995,0.5115374000006341,0.5951998000000458,1.7132356000001892,1.7970073000005868,,,,,,katie_1,001,2020_Jan_30_1204,posner,3.1.5,60.021163462184695,
-0.5,0,1,left,1,3,2,0,2,0,4,3,35,2,,,,,,,,,599.5866795999996,600.0862480000001,600.803786,None,600.1030785999997,600.7871427999994,601.3045722000002,599.5866795999996,left,1,0.41752379999979894,601.3045722000002,None,None,600.1030785999997,601.2878312999997,0.5117751000007047,0.5951565000004848,1.713334400000349,1.7966455000005226,,,,,,katie_1,001,2020_Jan_30_1204,posner,3.1.5,60.021163462184695,
0.5,0,0,right,1,4,2,0,2,0,4,4,36,3,,,,,,,,,601.7391058999997,602.2395946000001,602.9569624999999,None,602.2559236000002,602.9402718999995,603.4576905999998,None,right,1,0.3763957000001028,603.4576905999998,None,None,602.2559236000002,603.440908,0.512072000000444,0.5951762000004237,1.7133447000005617,1.796542000000045,,,,,,katie_1,001,2020_Jan_30_1204,posner,3.1.5,60.021163462184695,
-0.5,180,0,left,2,3,2,0,2,0,4,5,37,4,,,,,,,,,603.8588414999999,604.3588632999995,605.0769794000003,None,604.3756135999997,605.0597625999994,605.5772885000001,None,left,1,0.44080660000054195,605.5772885000001,None,None,604.3756135999997,605.5603818999994,0.5116028000002188,0.5950895999994827,1.713098700000046,1.79658180000024,,,,,,katie_1,001,2020_Jan_30_1204,posner,3.1.5,60.021163462184695,
-0.5,0,1,left,1,3,2,0,2,0,4,6,38,0,,,,,,,,,606.0450363999994,606.5449677000001,607.2626326999994,None,606.5619881999996,607.2459529000002,607.7634120999996,608.2475156999994,left,1,0.6067667000006622,607.7634120999996,None,None,606.5619881999996,607.7467626000002,0.5112987000002249,0.5949196000001393,1.713073500000064,1.7964900999995734,,,,,,katie_1,001,2020_Jan_30_1204,posner,3.1.5,60.021163462184695,
-0.5,0,1,left,1,3,2,0,2,0,4,7,39,1,,,,,,,,,608.3983757000001,608.8983905,609.6160860999994,None,608.9149348999995,609.5993846999995,610.1167310999995,610.6008656999998,left,1,0.5092975000006845,610.1167310999995,None,None,608.9149348999995,610.1001354999994,0.5116219000001365,0.5949773000002097,1.7133423999994193,1.7967324999999619,,,,,,katie_1,001,2020_Jan_30_1204,posner,3.1.5,60.021163462184695,
0.5,180,1,right,2,4,2,0,2,0,5,0,40,6,,,,,,,,,610.6514722999996,611.1514101999996,611.8690839999995,None,611.1681346,611.8524838999997,612.3697786999996,None,right,1,0.4563284999994721,612.3697786999996,None,None,611.1681346,612.3530664999994,0.51163489999999,0.5950700000003053,1.7132665999997698,1.796769000000495,,,,,,katie_1,001,2020_Jan_30_1204,posner,3.1.5,60.021163462184695,
-0.5,0,1,left,1,3,2,0,2,0,5,1,41,0,,,,,,,,,612.854022,613.3545153999999,614.0722188999994,None,613.3711180999994,614.0556297999997,614.5727628,615.0570782999998,left,1,0.5093075000004319,614.5727628,None,None,613.3711180999994,614.5563314999995,0.5124746999999843,0.5960297000001447,1.7142698999996355,1.7976801999993768,,,,,,katie_1,001,2020_Jan_30_1204,posner,3.1.5,60.021163462184695,
-0.5,0,1,left,1,3,2,0,2,0,5,2,42,2,,,,,,,,,615.1078364999998,615.6078383999998,616.3251626999995,None,615.6243795999994,616.3087146000003,616.8259328999998,None,left,1,0.42424599999958446,616.8259328999998,None,None,615.6243795999994,616.8092341999995,0.5117761000001337,0.5952159000007669,1.713157900000624,1.7967191000007006,,,,,,katie_1,001,2020_Jan_30_1204,posner,3.1.5,60.021163462184695,
-0.5,180,0,left,2,3,2,0,2,0,5,3,43,4,,,,,,,,,617.2772940999998,617.7772996999997,618.4947128999997,None,617.7937740000002,618.4781990999995,618.9956449999995,None,left,1,0.3904468000000634,618.9956449999995,None,None,617.7937740000002,618.9790788999994,0.511853400000291,0.5950774000002639,1.713608099999874,1.7967679000003045,,,,,,katie_1,001,2020_Jan_30_1204,posner,3.1.5,60.021163462184695,
0.5,180,1,right,2,4,2,0,2,0,5,4,44,7,,,,,,,,,619.4136014000001,619.9135222999998,620.6307857999996,None,619.9302972,620.6143848999995,621.1321057,621.615832,right,1,0.5178328000001784,621.1321057,None,None,619.9302972,621.1151833999998,0.5115685000000667,0.5952008999993268,1.71321639999951,1.7964765999995507,,,,,,katie_1,001,2020_Jan_30_1204,posner,3.1.5,60.021163462184695,
0.5,0,0,right,1,4,2,0,2,0,5,5,45,3,,,,,,,,,621.6666372999994,622.1667044000001,622.8842712000001,None,622.1832235999996,622.8675908999999,623.3849006999994,None,right,1,0.42511130000002595,623.3849006999994,None,None,622.1832235999996,623.3682647,0.5116942000004201,0.5949989000000642,1.7132428000004438,1.7967620999997962,,,,,,katie_1,001,2020_Jan_30_1204,posner,3.1.5,60.021163462184695,
0.5,180,1,right,2,4,2,0,2,0,5,6,46,5,,,,,,,,,623.8359631999997,624.3362069,625.0539131,None,624.3530617000001,625.0373666999999,625.5546189000002,None,right,1,0.4234888000000865,625.5546189000002,None,None,624.3530617000001,625.5379747000002,0.5117307000000437,0.5953138000004401,1.7134636999999202,1.7968464000005042,,,,,,katie_1,001,2020_Jan_30_1204,posner,3.1.5,60.021163462184695,
-0.5,0,1,left,1,3,2,0,2,0,5,7,47,1,,,,,,,,,626.0056996999997,626.5057927000003,627.2235931999999,None,626.5226883,627.2069737999996,627.7240852,628.2084770999995,None,0,,627.7240852,None,None,626.5226883,627.7075009999994,0.5115945999996256,0.5951144999999087,1.7132756999999401,1.796781999999439,,,,,,katie_1,001,2020_Jan_30_1204,posner,3.1.5,60.021163462184695,
-0.5,0,1,left,1,3,2,0,2,0,6,0,48,0,,,,,,,,,628.7089113999996,629.2098716999994,629.9273726999995,628.7089113999996,629.2262762999994,629.9109303,630.4281817999995,None,left,1,0.45384439999997994,630.4281817999995,None,None,629.2262762999994,630.4115029999998,0.5137626999994609,0.5968198999999004,1.7153812999995353,1.7985728000003292,,,,,,katie_1,001,2020_Jan_30_1204,posner,3.1.5,60.021163462184695,
0.5,0,0,right,1,4,2,0,2,0,6,1,49,3,,,,,,,,,630.9122364999998,631.4126357,632.1304411999995,None,631.4294322000001,632.1135426999995,632.6310048999999,630.9122364999998,right,1,0.35489980000056676,632.6310048999999,None,None,631.4294322000001,632.6142364000002,0.5118872000002739,0.5952975999998671,1.71346850000009,1.7969653999998627,,,,,,katie_1,001,2020_Jan_30_1204,posner,3.1.5,60.021163462184695,
0.5,180,1,right,2,4,2,0,2,0,6,2,50,6,,,,,,,,,633.0156322999997,633.5157370000002,634.2330901,None,633.5322784999994,634.2166096999995,634.7339080999996,None,right,1,0.33218739999938407,634.7339080999996,None,None,633.5322784999994,634.7173142999995,0.5116993999999977,0.5949744999998074,1.7132589000002554,1.7966435999996975,,,,,,katie_1,001,2020_Jan_30_1204,posner,3.1.5,60.021163462184695,
0.5,180,1,right,2,4,2,0,2,0,6,3,51,7,,,,,,,,,635.0850237,635.5850532999998,636.3028690999995,None,635.6018081999996,636.2860920999997,636.8033756999998,None,right,1,0.41459109999959765,636.8033756999998,None,None,635.6018081999996,636.7868895999995,0.5115709000001516,0.5951507999998285,1.713383899999826,1.796826200000396,,,,,,katie_1,001,2020_Jan_30_1204,posner,3.1.5,60.021163462184695,
-0.5,180,0,left,2,3,2,0,2,0,6,4,52,4,,,,,,,,,637.2380545000001,637.7381853000002,638.455692,None,637.7546458000002,638.4391155999997,638.9564495,639.4405333,left,1,0.5254139999997278,638.9564495,None,None,637.7546458000002,638.9397525999998,0.5118511000000581,0.5951444000002084,1.7134059999998499,1.7967886999995244,,,,,,katie_1,001,2020_Jan_30_1204,posner,3.1.5,60.021163462184695,
-0.5,0,1,left,1,3,2,0,2,0,6,5,53,1,,,,,,,,,639.5083037999998,640.0080305999995,640.7253681999996,None,640.0244317000002,640.7088325,641.2264062999998,None,left,1,0.36743550000028335,641.2264062999998,None,None,640.0244317000002,641.2097428000002,0.5115332000004855,0.5946160000003147,1.713232600000083,1.7963812000007238,,,,,,katie_1,001,2020_Jan_30_1204,posner,3.1.5,60.021163462184695,
-0.5,0,1,left,1,3,2,0,2,0,6,6,54,2,,,,,,,,,641.6106516999994,642.1106905000001,642.8284400999996,None,642.1275832999995,642.8118281000002,643.3290949999996,None,left,1,0.4409232999996675,643.3290949999996,None,None,642.1275832999995,643.3123654999995,0.5115593999998964,0.5950257000004058,1.713220800000272,1.7966729999998279,,,,,,katie_1,001,2020_Jan_30_1204,posner,3.1.5,60.021163462184695,
0.5,180,1,right,2,4,2,0,2,0,6,7,55,5,,,,,,,,,643.7971483999995,644.2971272,645.0145814000002,None,644.3136321999996,644.9981550999996,645.5152097999994,645.9996550999999,right,1,0.6229008999998769,645.5152097999994,None,None,644.3136321999996,645.4985062999999,0.5115189999996801,0.5949340999995911,1.7128868999998303,1.7967165000000023,,,,,,katie_1,001,2020_Jan_30_1204,posner,3.1.5,60.021163462184695,
0.5,0,0,right,1,4,2,0,2,0,7,0,56,3,,,,,,,,,646.1674114000002,646.6672177999994,647.3845606,None,646.6834882999997,647.3680435000001,647.8853978000002,648.3695120999996,right,1,0.5166185000007317,647.8853978000002,None,None,646.6834882999997,647.8688049999996,0.5116454999997586,0.5949888999994073,1.7131969000001845,1.7965417999994315,,,,,,katie_1,001,2020_Jan_30_1204,posner,3.1.5,60.021163462184695,
-0.5,0,1,left,1,3,2,0,2,0,7,1,57,0,,,,,,,,,648.4204366999998,648.9200799999994,649.6379421999995,None,648.9368469999995,649.6211443999996,650.1383089999995,650.6223617999999,left,1,0.7836946999996144,650.1383089999995,None,None,648.9368469999995,650.1218824000002,0.511370899999747,0.5948386000000028,1.713159099999757,1.7965205999998943,,,,,,katie_1,001,2020_Jan_30_1204,posner,3.1.5,60.021163462184695,
0.5,180,1,right,2,4,2,0,2,0,7,2,58,5,,,,,,,,,650.9395476999994,651.4404955999994,652.1578869,None,651.4571149999997,652.1413429999998,652.6587422999996,None,right,1,0.39924560000054043,652.6587422999996,None,None,651.4571149999997,652.6419860999999,0.5120277999994869,0.5951192000002266,1.713505300000179,1.7967392000000473,,,,,,katie_1,001,2020_Jan_30_1204,posner,3.1.5,60.021163462184695,
0.5,180,1,right,2,4,2,0,2,0,7,3,59,7,,,,,,,,,653.0767761000002,653.5766389999994,654.2940241000001,None,653.5931002000002,654.2774364000002,654.7947640999996,655.2787155999999,right,1,0.5751448999999411,654.7947640999996,None,None,653.5931002000002,654.7782103999994,0.5116291000003912,0.5950947000001179,1.7132009000006292,1.796636000000035,,,,,,katie_1,001,2020_Jan_30_1204,posner,3.1.5,60.021163462184695,
0.5,180,1,right,2,4,2,0,2,0,7,4,60,6,,,,,,,,,655.3962275999997,655.8965745999999,656.6139487999994,None,655.913086,656.5973635999994,657.1147761999996,None,right,1,0.35102660000029573,657.1147761999996,None,None,655.913086,657.0981273000002,0.5117993999992905,0.595166799999788,1.713335599999482,1.796909799999412,,,,,,katie_1,001,2020_Jan_30_1204,posner,3.1.5,60.021163462184695,
-0.5,0,1,left,1,3,2,0,2,0,7,5,61,1,,,,,,,,,657.4823486999999,657.9825980999999,658.7001648999999,None,657.9993552000001,658.6832177000001,659.2010663999995,659.6849429999997,right,0,0.8007784000001266,659.2010663999995,None,None,657.9993552000001,659.1841137999995,0.5119002000001274,0.5952950999999302,1.7133942999998908,1.7971967000003133,,,,,,katie_1,001,2020_Jan_30_1204,posner,3.1.5,60.021163462184695,
-0.5,180,0,left,2,3,2,0,2,0,7,6,62,4,,,,,,,,,660.0190078,660.5192379999994,661.2371093999996,None,660.5360307999995,661.2203317999997,661.7377826999996,662.2218932000001,left,1,0.4880244000005405,661.7377826999996,None,None,660.5360307999995,661.7210461,0.5118240000001606,0.5954938999993828,1.713608899999599,1.7969954999998663,,,,,,katie_1,001,2020_Jan_30_1204,posner,3.1.5,60.021163462184695,
-0.5,0,1,left,1,3,2,0,2,0,7,7,63,2,,,,,,,,,662.255318,662.7558237999997,663.4733095999995,None,662.7725189999996,663.4568103999995,663.9739914999996,664.4581505000001,left,1,0.4917432000002009,663.9739914999996,None,None,662.7725189999996,663.9576384999996,0.5122077999994872,0.5957068999996409,1.713983300000109,1.797193100000186,,,,,,katie_1,001,2020_Jan_30_1204,posner,3.1.5,60.021163462184695,
0.5,180,1,right,2,4,2,0,2,0,8,0,64,6,,,,,,,,,664.4922117000001,664.9920707999995,665.7099676000003,None,665.0088942999996,665.6930749999997,666.2105777000002,666.6943522999995,right,1,0.47911669999939477,666.2105777000002,None,None,665.0088942999996,666.1938002000002,0.5112788999995246,0.5947470999999496,1.7129803999996511,1.7966116999996302,,,,,,katie_1,001,2020_Jan_30_1204,posner,3.1.5,60.021163462184695,
-0.5,0,1,left,1,3,2,0,2,0,8,1,65,2,,,,,,,,,666.7117794000001,667.2118618,667.9298121999996,None,667.2287098000002,667.9128983999994,668.4302525999997,None,left,1,0.46768599999995786,668.4302525999997,None,None,667.2287098000002,668.4135598999997,0.5117697999994562,0.5953688999998121,1.7134426999991774,1.79683919999934,,,,,,katie_1,001,2020_Jan_30_1204,posner,3.1.5,60.021163462184695,
-0.5,0,1,left,1,3,2,0,2,0,8,2,66,0,,,,,,,,,668.9147688999997,669.4149604999998,670.1325264000002,None,669.4316330999995,670.1159584000002,670.6332336999999,671.1175463999994,left,1,0.8166090999993685,670.6332336999999,None,None,669.4316330999995,670.6167364999997,0.511680399999932,0.5951763999992181,1.713438199999473,1.7968377999995937,,,,,,katie_1,001,2020_Jan_30_1204,posner,3.1.5,60.021163462184695,
-0.5,180,0,left,2,3,2,0,2,0,8,3,67,4,,,,,,,,,671.4681734000001,671.9684033999997,672.6861727999999,None,671.9851297999999,672.6693310999995,673.1869538999995,673.6707466000003,left,1,0.8069475000002058,673.1869538999995,None,None,671.9851297999999,673.1702187999995,0.5118660999996791,0.5953837999995812,1.7136572999997952,1.7971002000003864,,,,,,katie_1,001,2020_Jan_30_1204,posner,3.1.5,60.021163462184695,
-0.5,0,1,left,1,3,2,0,2,0,8,4,68,1,,,,,,,,,674.0217456999994,674.5221872999996,675.2397853999996,None,674.5388213000001,675.2229832999997,675.7405579000001,None,left,1,0.269430100000136,675.7405579000001,None,None,674.5388213000001,675.7234544999997,0.5120063000003938,0.5951700000005076,1.7132596000001286,1.7969320000001971,,,,,,katie_1,001,2020_Jan_30_1204,posner,3.1.5,60.021163462184695,
0.5,180,1,right,2,4,2,0,2,0,8,5,69,7,,,,,,,,,676.0413030999994,676.5413736999994,677.2592313,None,676.5582358999995,677.2425619,677.7596128,None,right,1,0.2902715000000171,677.7596128,None,None,676.5582358999995,677.7433543000002,0.51167599999917,0.5950116999993043,1.7136385999992854,1.7969278999999005,,,,,,katie_1,001,2020_Jan_30_1204,posner,3.1.5,60.021163462184695,
0.5,0,0,right,1,4,2,0,2,0,8,6,70,3,,,,,,,,,678.0776639999999,678.5776381000001,679.2951860999997,None,678.5942431999997,679.2784669999996,679.7957492999999,None,right,1,0.4060852000002342,679.7957492999999,None,None,678.5942431999997,679.7791866000002,0.5116601999998238,0.594963600000483,1.713194900000417,1.7967079999998532,,,,,,katie_1,001,2020_Jan_30_1204,posner,3.1.5,60.021163462184695,
0.5,180,1,right,2,4,2,0,2,0,8,7,71,5,,,,,,,,,680.2303176999999,680.7307131000002,681.4482994999994,None,680.7472364,681.4315240000001,681.9489688999997,None,right,1,0.38083259999984875,681.9489688999997,None,None,680.7472364,681.9321961,0.5119254000001092,0.5951867000003404,1.7133931000007578,1.7967647000004945,,,,,,katie_1,001,2020_Jan_30_1204,posner,3.1.5,60.021163462184695,
0.5,0,0,right,1,4,2,0,2,0,9,0,72,3,,,,,,,,,682.3504528999997,682.8499083000002,683.5679102999998,None,682.8667209,683.5511044,684.0685418999997,None,right,1,0.3573108999999022,684.0685418999997,None,None,682.8667209,684.0518092999996,0.511261800000284,0.5948329000002559,1.7131325999998808,1.7965271000002758,,,,,,katie_1,001,2020_Jan_30_1204,posner,3.1.5,60.021163462184695,
