targetX,cueOri,congr,corrAns,pin_cue,pin_target,block.thisRepN,block.thisTrialN,block.thisN,block.thisIndex,posner_task.thisRepN,posner_task.thisTrialN,posner_task.thisN,posner_task.thisIndex,port_start_block.started,port_start_block.stopped,text_2.started,text_2.stopped,p_port.started,p_port.stopped,text.started,text.stopped,fixation_1.started,fixation_1.stopped,fixation_2.started,fixation_2.stopped,cue.started,cue.stopped,target.started,target.stopped,correct_key_resp.keys,correct_key_resp.corr,correct_key_resp.rt,correct_key_resp.started,correct_key_resp.stopped,early_resp.keys,early_resp.started,early_resp.stopped,trigger_cue.started,trigger_cue.stopped,trigger_target.started,trigger_target.stopped,break_text.started,break_text.stopped,end_port.started,end_port.stopped,participant,session,date,expName,psychopyVersion,frameRate,
0.5,180,1,right,2,4,0,0,0,0,0,0,0,7,1.6199999663513154e-05,0.09519949999958044,27.746793099999195,None,1.3699999726668466e-05,0.09961780000048748,29.632447999999386,None,29.97530999999981,30.48380199999974,31.18478959999993,None,30.48380199999974,31.18478959999993,31.68553239999983,None,right,1,0.2825719000002209,31.68553239999983,None,None,30.48380199999974,31.68553239999983,0.5011379000006855,0.6014321000002383,1.7028962000003958,1.8030046000003495,,,,,nat_2,001,2020_Jan_31_1432,posner,3.1.5,59.977568389574394,
0.5,180,1,right,2,4,0,0,0,0,0,1,1,6,,,,,,,,,31.987823199999184,32.486718799999835,33.204256999999416,None,32.503353199999765,33.18779519999953,33.7050421999993,None,right,1,0.3429105000004711,33.7050421999993,None,None,32.503353199999765,33.688893599999574,0.5106191000004401,0.5939599000003,1.7127662000002601,1.7955948999997418,,,,,nat_2,001,2020_Jan_31_1432,posner,3.1.5,59.977568389574394,
-0.5,0,1,left,1,3,0,0,0,0,0,2,2,1,,,,,,,,,34.07262399999945,34.57285209999918,35.2906309,None,34.589809799999784,35.27376949999962,35.79130389999955,None,left,1,0.27285889999984647,35.79130389999955,None,None,34.589809799999784,35.77440689999912,0.5115759000000253,0.5949795000005906,1.7131197000007887,1.7969394000001557,,,,,nat_2,001,2020_Jan_31_1432,posner,3.1.5,59.977568389574394,
-0.5,0,1,left,1,3,0,0,0,0,0,3,3,0,,,,,,,,,36.092333899999176,36.592350399999304,37.309853299999304,None,36.60907109999971,37.2932538999994,37.810880899999574,None,left,1,0.30112540000027366,37.810880899999574,None,None,36.60907109999971,37.793775499999356,0.5118007000000944,0.5949221999999281,1.7132034999995085,1.7969675999993342,,,,,nat_2,001,2020_Jan_31_1432,posner,3.1.5,59.977568389574394,
-0.5,180,0,left,2,3,0,0,0,0,0,4,4,4,,,,,,,,,38.128462099999524,38.628543799999534,39.34601449999991,None,38.64500659999976,39.3295178999997,39.84676329999911,None,left,1,0.34551310000006197,39.84676329999911,None,None,38.64500659999976,39.83019899999999,0.5116486000006262,0.5950983000002452,1.7132870000004914,1.796450800000457,,,,,nat_2,001,2020_Jan_31_1432,posner,3.1.5,59.977568389574394,
0.5,0,0,right,1,4,0,0,0,0,0,5,5,3,,,,,,,,,40.2143231,40.71461889999955,41.432227299999795,None,40.731283499999336,41.41562589999921,41.93315719999919,None,right,1,0.3229319000001851,41.93315719999919,None,None,40.731283499999336,41.916272199999185,0.5119733000001361,0.5955230999998093,1.7136153999999806,1.79704270000002,,,,,nat_2,001,2020_Jan_31_1432,posner,3.1.5,59.977568389574394,
-0.5,0,1,left,1,3,0,0,0,0,0,6,6,2,,,,,,,,,42.28401979999944,42.7840213999998,43.50201179999931,None,42.800954599999386,43.48506699999962,44.00261749999936,None,left,1,0.2535005000008823,44.00261749999936,None,None,42.800954599999386,43.98582679999981,0.5112785999999687,0.5949095999994825,1.7130639999995765,1.7964062999999442,,,,,nat_2,001,2020_Jan_31_1432,posner,3.1.5,59.977568389574394,
0.5,180,1,right,2,4,0,0,0,0,0,7,7,5,,,,,,,,,44.286841999999524,44.78705589999936,45.50444729999981,None,44.80348509999931,45.487798699999985,46.00522789999923,None,right,1,0.298740799999905,46.00522789999923,None,None,44.80348509999931,45.98876929999915,0.5117964000000939,0.5952225000000908,1.7134953000004316,1.796695400000317,,,,,nat_2,001,2020_Jan_31_1432,posner,3.1.5,59.977568389574394,
-0.5,0,1,left,1,3,0,0,0,0,1,0,8,0,,,,,,,,,46.322976199999175,46.82305639999959,47.54063479999968,None,46.839800199999445,47.52423119999912,48.041496499999994,None,left,1,0.31055149999974674,48.041496499999994,None,None,46.839800199999445,48.02491479999935,0.5116920000000391,0.5951834999996208,1.7135349999998652,1.7970357999993212,,,,,nat_2,001,2020_Jan_31_1432,posner,3.1.5,59.977568389574394,
-0.5,0,1,left,1,3,0,0,0,0,1,1,9,2,,,,,,,,,48.37626309999996,48.87569329999951,49.59332379999978,None,48.89249219999965,49.576889399999345,50.094190299999354,None,left,1,0.3218114000001151,50.094190299999354,None,None,48.89249219999965,50.07749759999933,0.5114462999999887,0.5950083999996423,1.7132291999996596,1.7967216999995799,,,,,nat_2,001,2020_Jan_31_1432,posner,3.1.5,59.977568389574394,
0.5,180,1,right,2,4,0,0,0,0,1,2,10,7,,,,,,,,,50.44517619999988,50.945317599999726,51.66289499999948,None,50.96205419999933,51.64618579999933,52.16371199999958,None,right,1,0.3642885999997816,52.16371199999958,None,None,50.96205419999933,52.14709969999967,0.5115067999995517,0.5950990999999703,1.7132674000004045,1.7967627999996694,,,,,nat_2,001,2020_Jan_31_1432,posner,3.1.5,59.977568389574394,
-0.5,0,1,left,1,3,0,0,0,0,1,3,11,1,,,,,,,,,52.548763699999654,53.04843709999932,53.76567139999952,None,53.06493209999917,53.749301099999684,54.26656879999973,None,left,1,0.30936689999998634,54.26656879999973,None,None,53.06493209999917,54.24998169999981,0.511326700000609,0.594625100000485,1.7128558000003977,1.7962163000001965,,,,,nat_2,001,2020_Jan_31_1432,posner,3.1.5,59.977568389574394,
0.5,0,0,right,1,4,0,0,0,0,1,4,12,3,,,,,,,,,54.600825199999235,55.10103529999924,55.81867709999915,None,55.117840399999295,55.80200369999966,56.319378599999254,None,right,1,0.3365503999993962,56.319378599999254,None,None,55.117840399999295,56.3027448999992,0.5118099000001166,0.5958384000005026,1.7134978000003684,1.7971707000006063,,,,,nat_2,001,2020_Jan_31_1432,posner,3.1.5,59.977568389574394,
0.5,180,1,right,2,4,0,0,0,0,1,5,13,5,,,,,,,,,56.687179799999285,57.18737219999912,57.904875999999604,None,57.20377159999953,57.8884537999993,58.40548509999917,None,right,1,0.3144538000005923,58.40548509999917,None,None,57.20377159999953,58.38903279999977,0.511640400000033,0.5950560999999652,1.7132785000003423,1.7966018000006443,,,,,nat_2,001,2020_Jan_31_1432,posner,3.1.5,59.977568389574394,
0.5,180,1,right,2,4,0,0,0,0,1,6,14,6,,,,,,,,,58.74006199999985,59.24016589999974,59.95772119999947,None,59.25677489999998,59.94120499999917,60.45850489999975,None,right,1,0.32539080000060494,60.45850489999975,None,None,59.25677489999998,60.441771299999346,0.5113707000000431,0.5947025000004942,1.7129649000007703,1.7966455000005226,,,,,nat_2,001,2020_Jan_31_1432,posner,3.1.5,59.977568389574394,
-0.5,180,0,left,2,3,0,0,0,0,1,7,15,4,,,,,,,,,60.809446399999615,61.309352399999625,62.0274172999998,None,61.32618319999983,62.010649799999555,62.52787509999962,None,left,1,0.3200417000007292,62.52787509999962,None,None,61.32618319999983,62.511481299999105,0.5113350999999966,0.5949767999991309,1.7134432999991986,1.7964914999993198,,,,,nat_2,001,2020_Jan_31_1432,posner,3.1.5,59.977568389574394,
-0.5,0,1,left,1,3,0,0,0,0,2,0,16,0,,,,,,,,,62.878928899999664,63.37911039999926,64.0969697999999,None,63.39575199999945,64.08017289999952,64.59750309999981,None,left,1,0.330395299999509,64.59750309999981,None,None,63.39575199999945,64.58096489999934,0.5112475999994786,0.5946706999993694,1.7130858000000444,1.7961897999994108,,,,,nat_2,001,2020_Jan_31_1432,posner,3.1.5,59.977568389574394,
0.5,180,1,right,2,4,0,0,0,0,2,1,17,6,,,,,,,,,64.94861749999927,65.44882749999942,66.1662641999992,None,65.46527809999952,66.14953959999912,66.66699529999914,None,right,1,0.3409214000002976,66.66699529999914,None,None,65.46527809999952,66.65019179999945,0.5116063999994367,0.594967799999722,1.7129583999994793,1.7964363999999478,,,,,nat_2,001,2020_Jan_31_1432,posner,3.1.5,59.977568389574394,
0.5,180,1,right,2,4,0,0,0,0,2,2,18,5,,,,,,,,,67.03491139999915,67.5347740999996,68.25263179999911,None,67.5514820999997,68.23592879999978,68.7530087999994,None,right,1,0.3027791000004072,68.7530087999994,None,None,67.5514820999997,68.73655119999967,0.5115056999993612,0.5950035999994725,1.7132636999995157,1.7966521999996985,,,,,nat_2,001,2020_Jan_31_1432,posner,3.1.5,59.977568389574394,
-0.5,0,1,left,1,3,0,0,0,0,2,3,19,2,,,,,,,,,69.08779759999925,69.58776519999992,70.30515709999963,None,69.60417049999978,70.28877489999923,70.80582129999948,None,left,1,0.3140057999999044,70.80582129999948,None,None,69.60417049999978,70.78947959999914,0.5110342999996647,0.5944127000002482,1.7127343000001929,1.7960337000004074,,,,,nat_2,001,2020_Jan_31_1432,posner,3.1.5,59.977568389574394,
0.5,180,1,right,2,4,0,0,0,0,2,4,20,7,,,,,,,,,71.1405836999993,71.64071039999999,72.35830199999964,None,71.65720839999994,72.34142019999945,72.8589067999992,None,right,1,0.3089378000004217,72.8589067999992,None,None,71.65720839999994,72.84218229999988,0.5117828000002191,0.5948126000002958,1.7132283999999345,1.7965038000002096,,,,,nat_2,001,2020_Jan_31_1432,posner,3.1.5,59.977568389574394,
-0.5,180,0,left,2,3,0,0,0,0,2,5,21,4,,,,,,,,,73.19310239999959,73.69318419999945,74.41107929999998,None,73.70997119999993,74.39421889999994,74.91163059999963,None,left,1,0.3201792999998361,74.91163059999963,None,None,73.70997119999993,74.89477309999984,0.5116420000003927,0.5954410000003918,1.7132037999999739,1.7967826000003697,,,,,nat_2,001,2020_Jan_31_1432,posner,3.1.5,59.977568389574394,
0.5,0,0,right,1,4,0,0,0,0,2,6,22,3,,,,,,,,,75.2626150999995,75.76296439999987,76.48059729999932,None,75.77945129999989,76.46372769999925,76.98119069999939,None,right,1,0.3466393999997308,76.98119069999939,None,None,75.77945129999989,76.9644215999997,0.5118396000007124,0.5949384000005011,1.7132854000001316,1.7970147000005454,,,,,nat_2,001,2020_Jan_31_1432,posner,3.1.5,59.977568389574394,
-0.5,0,1,left,1,3,0,0,0,0,2,7,23,1,,,,,,,,,77.3492768999995,77.8490611999996,78.56685679999919,None,77.8656517999998,78.54990379999981,79.06754169999931,None,left,1,0.2922935000005964,79.06754169999931,None,None,77.8656517999998,79.0507435999998,0.5113265999998475,0.5946928999992451,1.7129939999995258,1.7962149999993926,,,,,nat_2,001,2020_Jan_31_1432,posner,3.1.5,59.977568389574394,
0.5,180,1,right,2,4,0,0,0,0,3,0,24,7,,,,,,,,,79.38480519999939,79.88503639999999,80.6027882999997,None,79.90187779999997,80.58599229999982,81.10330779999913,None,right,1,0.2885556999999608,81.10330779999913,None,None,79.90187779999997,81.08683889999975,0.511494400000629,0.5950549000008323,1.7132768999999826,1.7968046000005415,,,,,nat_2,001,2020_Jan_31_1432,posner,3.1.5,59.977568389574394,
0.5,180,1,right,2,4,0,0,0,0,3,1,25,6,,,,,,,,,81.42094389999966,81.92133919999924,82.63905239999985,None,81.93814239999938,82.62231669999983,83.13979059999929,None,right,1,0.36400309999953606,83.13979059999929,None,None,81.93814239999938,83.12303959999917,0.5118999000005715,0.5951335999998264,1.7135809000001245,1.7968387000000803,,,,,nat_2,001,2020_Jan_31_1432,posner,3.1.5,59.977568389574394,
-0.5,0,1,left,1,3,0,0,0,0,3,2,26,0,,,,,,,,,83.52427699999953,84.02423069999986,84.74186369999916,None,84.04092039999978,84.72497549999935,85.24242159999994,None,left,1,0.30934290000004694,85.24242159999994,None,None,84.04092039999978,85.22568459999911,0.5119577000004938,0.5953542000006564,1.7133825000000797,1.7968423000002076,,,,,nat_2,001,2020_Jan_31_1432,posner,3.1.5,59.977568389574394,
0.5,180,1,right,2,4,0,0,0,0,3,3,27,5,,,,,,,,,85.57711449999988,86.07750959999976,86.79450019999967,None,86.0935673999993,86.77783079999972,87.29525139999987,None,right,1,0.3524936000003436,87.29525139999987,None,None,86.0935673999993,87.27870429999984,0.5121809000002031,0.5951703000000634,1.7133595000004789,1.7965433000008488,,,,,nat_2,001,2020_Jan_31_1432,posner,3.1.5,59.977568389574394,
0.5,0,0,right,1,4,0,0,0,0,3,4,28,3,,,,,,,,,87.66302709999945,88.16311659999974,88.8809967999996,None,88.17996999999923,88.86420799999996,89.3815670999993,None,right,1,0.33021499999995285,89.3815670999993,None,None,88.17996999999923,89.36472839999988,0.5115815999997722,0.59495810000044,1.7131742999999915,1.7966874000003372,,,,,nat_2,001,2020_Jan_31_1432,posner,3.1.5,59.977568389574394,
-0.5,180,0,left,2,3,0,0,0,0,3,5,29,4,,,,,,,,,89.73257889999968,90.23276029999943,90.9503453999996,None,90.24929119999979,90.93358179999996,91.45115629999964,None,left,1,0.3245535000005475,91.45115629999964,None,None,90.24929119999979,91.43422079999982,0.5117441000002145,0.5950426999997944,1.7131916999996974,1.796845800000483,,,,,nat_2,001,2020_Jan_31_1432,posner,3.1.5,59.977568389574394,
-0.5,0,1,left,1,3,0,0,0,0,3,6,30,2,,,,,,,,,91.8022676999999,92.30221669999992,93.0199350999992,None,92.31895689999965,93.00304529999994,93.52056899999934,None,left,1,0.33517200000005687,93.52056899999934,None,None,92.31895689999965,93.5038412999993,0.5114872000003743,0.5949556000005032,1.7130993000000672,1.7968537000006108,,,,,nat_2,001,2020_Jan_31_1432,posner,3.1.5,59.977568389574394,
-0.5,0,1,left,1,3,0,0,0,0,3,7,31,1,,,,,,,,,93.87171519999993,94.37170389999937,95.08956939999916,None,94.3885195999992,95.07276999999976,95.59025389999988,None,left,1,0.2975040999999692,95.59025389999988,None,None,94.3885195999992,95.57323149999957,0.5118459999994229,0.59516369999983,1.7133629999998448,1.7969088999998348,,,,,nat_2,001,2020_Jan_31_1432,posner,3.1.5,59.977568389574394,
0.5,180,1,right,2,4,0,0,0,0,4,0,32,7,,,,,,,,,95.90822329999992,96.40788149999935,97.12540869999975,None,96.42440929999975,97.10880849999921,97.62618819999989,None,right,1,0.26154609999957756,97.62618819999989,None,None,96.42440929999975,97.6095919999998,0.5113120000005438,0.5946903000003658,1.7130041999998866,1.7963469000005716,,,,,nat_2,001,2020_Jan_31_1432,posner,3.1.5,59.977568389574394,
-0.5,0,1,left,1,3,0,0,0,0,4,1,33,2,,,,,,,,,97.9104641999993,98.41059209999912,99.12811609999972,None,98.42731189999995,99.1116564999993,99.62904519999938,None,left,1,0.2906759999996211,99.62904519999938,None,None,98.42731189999995,99.61223279999922,0.5116661000001841,0.5949866000000839,1.7133047999996052,1.7966146999997363,,,,,nat_2,001,2020_Jan_31_1432,posner,3.1.5,59.977568389574394,
-0.5,180,0,left,2,3,0,0,0,0,4,2,34,4,,,,,,,,,99.94679629999973,100.4467952999994,101.16429089999929,None,100.4633329999997,101.14771109999947,101.6649983999996,None,left,1,0.41471180000007735,101.6649983999996,None,None,100.4633329999997,101.64843369999926,0.5118554999999105,0.5953743000000031,1.7134666000001744,1.7969625999994605,,,,,nat_2,001,2020_Jan_31_1432,posner,3.1.5,59.977568389574394,
0.5,0,0,right,1,4,0,0,0,0,4,3,35,3,,,,,,,,,102.09977999999956,102.59953339999993,103.31739049999942,None,102.61651599999914,103.30081249999967,103.8178513999992,None,right,1,0.3739504000004672,103.8178513999992,None,None,102.61651599999914,103.80144419999942,0.5113844999996218,0.5949612999993406,1.71326499999941,1.7965189999995346,,,,,nat_2,001,2020_Jan_31_1432,posner,3.1.5,59.977568389574394,
0.5,180,1,right,2,4,0,0,0,0,4,4,36,6,,,,,,,,,104.21930449999945,104.71928149999985,105.43707399999948,None,104.73583209999924,105.42025979999926,105.93775499999992,None,right,1,0.31791139999950246,105.93775499999992,None,None,104.73583209999924,105.92093879999993,0.5115615999993679,0.5948662000000695,1.7132051999997202,1.7964988999992784,,,,,nat_2,001,2020_Jan_31_1432,posner,3.1.5,59.977568389574394,
-0.5,0,1,left,1,3,0,0,0,0,4,5,37,0,,,,,,,,,106.27196029999959,106.7721705999993,107.48972859999958,None,106.78892529999939,107.47304339999937,107.99055589999989,None,left,1,0.2971575000001394,107.99055589999989,None,None,106.78892529999939,107.9736456999999,0.511780899999394,0.5950590000002194,1.7132341999995333,1.796961399999418,,,,,nat_2,001,2020_Jan_31_1432,posner,3.1.5,59.977568389574394,
0.5,180,1,right,2,4,0,0,0,0,4,6,38,5,,,,,,,,,108.30858139999964,108.80817759999991,109.52617699999973,None,108.8246969999991,109.50923709999915,110.0266901999994,None,right,1,0.2929863999997906,110.0266901999994,None,None,108.8246969999991,110.01015289999941,0.5113566999998511,0.5949342000003526,1.7133099000002403,1.7964437999999063,,,,,nat_2,001,2020_Jan_31_1432,posner,3.1.5,59.977568389574394,
-0.5,0,1,left,1,3,0,0,0,0,4,7,39,1,,,,,,,,,110.34447329999966,110.84417899999971,111.56207019999965,None,110.86116269999911,111.54523619999964,112.06255129999954,None,left,1,0.3371160000006057,112.06255129999954,None,None,110.86116269999911,112.04585439999937,0.5113291000006939,0.5948837000005369,1.7129821000007723,1.7966786000006323,,,,,nat_2,001,2020_Jan_31_1432,posner,3.1.5,59.977568389574394,
-0.5,0,1,left,1,3,0,0,0,0,5,0,40,1,,,,,,,,,112.43027289999918,112.93034099999932,113.64826979999998,None,112.94720859999961,113.63153639999928,114.1489173,None,left,1,0.28272689999994327,114.1489173,None,None,112.94720859999961,114.13226499999928,0.5115930000001754,0.5951849000002767,1.7134963000007701,1.7967242000004262,,,,,nat_2,001,2020_Jan_31_1432,posner,3.1.5,59.977568389574394,
0.5,180,1,right,2,4,0,0,0,0,5,1,41,7,,,,,,,,,114.45006349999949,114.9499453999997,115.66782559999956,None,114.96675099999993,115.65099079999982,116.1683278999999,None,right,1,0.31151820000013686,116.1683278999999,None,None,114.96675099999993,116.15183889999935,0.5114116999993712,0.5952311999999438,1.7132778999994116,1.7966804999996384,,,,,nat_2,001,2020_Jan_31_1432,posner,3.1.5,59.977568389574394,
-0.5,0,1,left,1,3,0,0,0,0,5,2,42,0,,,,,,,,,116.50232669999968,117.00280309999926,117.72041509999963,None,117.01943029999984,117.70355519999976,118.22128819999944,None,left,1,0.25834780000059254,118.22128819999944,None,None,117.01943029999984,118.20437719999973,0.5120490999997855,0.5955964999993739,1.7136033999995561,1.7973002999997334,,,,,nat_2,001,2020_Jan_31_1432,posner,3.1.5,59.977568389574394,
-0.5,0,1,left,1,3,0,0,0,0,5,3,43,2,,,,,,,,,118.5055685999996,119.00550349999958,119.72311159999936,None,119.02264099999957,119.70644819999961,120.2238314999995,None,left,1,0.447854300000472,120.2238314999995,None,None,119.02264099999957,120.20727479999914,0.5116183000000092,0.5952851000001829,1.7133645000003526,1.79678100000001,,,,,nat_2,001,2020_Jan_31_1432,posner,3.1.5,59.977568389574394,
0.5,0,0,right,1,4,0,0,0,0,5,4,44,3,,,,,,,,,120.69172199999957,121.19182099999944,121.90968519999933,None,121.20872599999984,121.89282769999954,122.41037369999958,None,right,1,0.3092199000002438,122.41037369999958,None,None,121.20872599999984,122.39350709999962,0.511555000000044,0.5949861999997665,1.7132332999999562,1.7967089999992822,,,,,nat_2,001,2020_Jan_31_1432,posner,3.1.5,59.977568389574394,
-0.5,180,0,left,2,3,0,0,0,0,5,5,45,4,,,,,,,,,122.74444229999972,123.24458059999961,123.96211679999942,None,123.26156449999962,123.94553289999931,124.46301709999989,None,left,1,0.30444600000009814,124.46301709999989,None,None,123.26156449999962,124.4462939999994,0.5115175999999337,0.5951045000001614,1.713229500000125,1.7969130999999834,,,,,nat_2,001,2020_Jan_31_1432,posner,3.1.5,59.977568389574394,
0.5,180,1,right,2,4,0,0,0,0,5,6,46,5,,,,,,,,,124.79750009999952,125.29757599999994,126.01512199999979,None,125.3143059999993,125.99863619999996,126.51567679999971,None,right,1,0.267803400000048,126.51567679999971,None,None,125.3143059999993,126.4992070999997,0.511441399999967,0.5949316999995062,1.7130581999999777,1.7963819999995394,,,,,nat_2,001,2020_Jan_31_1432,posner,3.1.5,59.977568389574394,
0.5,180,1,right,2,4,0,0,0,0,5,7,47,6,,,,,,,,,126.80019269999957,127.30024779999985,128.0180432999996,None,127.3170083999994,128.00135839999984,128.51879709999957,None,right,1,0.2968246000000363,128.51879709999957,None,None,127.3170083999994,128.50223489999917,0.5117301999998745,0.5950480000001335,1.7136940999998842,1.7967736000000514,,,,,nat_2,001,2020_Jan_31_1432,posner,3.1.5,59.977568389574394,
-0.5,0,1,left,1,3,0,0,0,0,6,0,48,1,,,,,,,,,128.83667499999956,129.3365346999999,130.0538973999992,None,129.35308629999963,130.03744859999915,130.5546605999998,None,left,1,0.2768763999993098,130.5546605999998,None,None,129.35308629999963,130.53830969999945,0.5117661000003864,0.5949663999999757,1.713485899999796,1.7967146999999386,,,,,nat_2,001,2020_Jan_31_1432,posner,3.1.5,59.977568389574394,
0.5,180,1,right,2,4,0,0,0,0,6,1,49,6,,,,,,,,,130.85508309999932,131.35572349999984,132.07354119999945,None,131.3722871,132.0567736999992,132.5741750999996,None,right,1,0.2735873999999967,132.5741750999996,None,None,131.3722871,132.55775979999999,0.5116217999993751,0.5953036000000793,1.7136133999993035,1.796816399999443,,,,,nat_2,001,2020_Jan_31_1432,posner,3.1.5,59.977568389574394,
0.5,180,1,right,2,4,0,0,0,0,6,2,50,7,,,,,,,,,132.87517239999943,133.3752085999995,134.09297669999978,None,133.39205909999964,134.07626599999912,134.5935316999994,None,right,1,0.2699791999993977,134.5935316999994,None,None,133.39205909999964,134.57711819999986,0.5114071999996668,0.595129100000122,1.713292299999921,1.7966426000002684,,,,,nat_2,001,2020_Jan_31_1432,posner,3.1.5,59.977568389574394,
-0.5,0,1,left,1,3,0,0,0,0,6,3,51,0,,,,,,,,,134.8945807,135.39456159999918,136.11240799999996,None,135.41127479999977,136.0955411999994,136.6129678999996,None,left,1,0.3306236999997054,136.6129678999996,None,None,135.41127479999977,136.59638919999998,0.5113041000004159,0.5950321999998778,1.7131176000002597,1.7966545999997834,,,,,nat_2,001,2020_Jan_31_1432,posner,3.1.5,59.977568389574394,
-0.5,180,0,left,2,3,0,0,0,0,6,4,52,4,,,,,,,,,136.9643193999991,137.46413969999958,138.18177389999983,None,137.48102429999926,138.1649564999998,138.68244969999978,None,left,1,0.34093659999962256,138.68244969999978,None,None,137.48102429999926,138.66576909999912,0.511336499999743,0.5950227000002997,1.712947300000451,1.7967562000003454,,,,,nat_2,001,2020_Jan_31_1432,posner,3.1.5,59.977568389574394,
0.5,180,1,right,2,4,0,0,0,0,6,5,53,5,,,,,,,,,139.05037529999936,139.55069749999984,140.26814549999926,None,139.56728239999939,140.25171579999915,140.76881819999926,None,right,1,0.3667342999997345,140.76881819999926,None,None,139.56728239999939,140.75217689999954,0.5119559999993726,0.5949897999998939,1.713431700000001,1.7969296000001123,,,,,nat_2,001,2020_Jan_31_1432,posner,3.1.5,59.977568389574394,
0.5,0,0,right,1,4,0,0,0,0,6,6,54,3,,,,,,,,,141.15347889999975,141.65324019999935,142.3712657999995,None,141.67012949999935,142.35432069999933,142.87211059999936,None,right,1,0.35940690000006725,142.87211059999936,None,None,141.67012949999935,142.85490089999985,0.5115934999994352,0.5951273000000583,1.7132352999997238,1.7969077999996443,,,,,nat_2,001,2020_Jan_31_1432,posner,3.1.5,59.977568389574394,
-0.5,0,1,left,1,3,0,0,0,0,6,7,55,2,,,,,,,,,143.2564857999996,143.75623459999952,144.4737538999998,None,143.7728937999991,144.4572005,144.97449659999984,None,left,1,0.32100830000035785,144.97449659999984,None,None,143.7728937999991,144.95796979999977,0.5114907000006497,0.5949586000006093,1.713183900000331,1.7968031999998857,,,,,nat_2,001,2020_Jan_31_1432,posner,3.1.5,59.977568389574394,
0.5,180,1,right,2,4,0,0,0,0,7,0,56,7,,,,,,,,,145.32560899999953,145.8257649999996,146.54328969999915,None,145.84257689999959,146.52683889999935,147.04395909999948,None,right,1,0.3315280000006169,147.04395909999948,None,None,145.84257689999959,147.02756789999967,0.511670600000798,0.5950667000006433,1.7134345000004032,1.796640500000649,,,,,nat_2,001,2020_Jan_31_1432,posner,3.1.5,59.977568389574394,
0.5,180,1,right,2,4,0,0,0,0,7,1,57,5,,,,,,,,,147.3950094999991,147.8950737999994,148.61276949999956,None,147.91190609999921,148.5960538999998,149.11353829999916,None,right,1,0.3903430999998818,149.11353829999916,None,None,147.91190609999921,149.09702509999988,0.5115951999996469,0.5950517999999647,1.7135101999992912,1.7969450999999026,,,,,nat_2,001,2020_Jan_31_1432,posner,3.1.5,59.977568389574394,
-0.5,180,0,left,2,3,0,0,0,0,7,2,58,4,,,,,,,,,149.53157179999926,150.0315254999996,150.74926739999955,None,150.04838779999955,150.73246759999984,151.25000659999932,None,left,1,0.3654962999999043,151.25000659999932,None,None,150.04838779999955,151.23312499999975,0.5115737999994963,0.5948592999993707,1.7131688999998005,1.7967037999997046,,,,,nat_2,001,2020_Jan_31_1432,posner,3.1.5,59.977568389574394,
-0.5,0,1,left,1,3,0,0,0,0,7,3,59,0,,,,,,,,,151.63432569999986,152.13427599999977,152.85213499999918,None,152.15118299999995,152.83546089999982,153.35267929999918,None,left,1,0.3746682000000874,153.35267929999918,None,None,152.15118299999995,153.33616149999943,0.5114975999995295,0.5952292000001762,1.7133979000000181,1.7965985000000728,,,,,nat_2,001,2020_Jan_31_1432,posner,3.1.5,59.977568389574394,
0.5,180,1,right,2,4,0,0,0,0,7,4,60,6,,,,,,,,,153.75393079999958,154.25393949999943,154.9718352,None,154.2707892999997,154.9548017999996,155.4724452999999,None,right,1,0.33491979999962496,155.4724452999999,None,None,154.2707892999997,155.4562432999992,0.5115093999993405,0.5950699999993958,1.7137862999998106,1.7966968000000634,,,,,nat_2,001,2020_Jan_31_1432,posner,3.1.5,59.977568389574394,
0.5,0,0,right,1,4,0,0,0,0,7,5,61,3,,,,,,,,,155.8232881999993,156.3234511999999,157.04140009999992,None,156.34022119999918,157.0248447999993,157.54180389999965,None,right,1,0.31369380000069214,157.54180389999965,None,None,156.34022119999918,157.52558639999916,0.5117104000000836,0.5952161999994132,1.7138326999993296,1.7969388000001345,,,,,nat_2,001,2020_Jan_31_1432,posner,3.1.5,59.977568389574394,
-0.5,0,1,left,1,3,0,0,0,0,7,6,62,2,,,,,,,,,157.8768872999999,158.37646309999946,159.09402469999986,None,158.3928118999993,159.07722639999974,159.59466829999928,None,left,1,0.3247533999992811,159.59466829999928,None,None,158.3928118999993,159.57816269999967,0.5114258000003247,0.59486730000026,1.7131109000001743,1.7962923000004594,,,,,nat_2,001,2020_Jan_31_1432,posner,3.1.5,59.977568389574394,
-0.5,0,1,left,1,3,0,0,0,0,7,7,63,1,,,,,,,,,159.94580169999972,160.4458107999999,161.16331139999966,None,160.4624415999997,161.1468632999995,161.6640078999999,None,left,1,0.28733090000059747,161.6640078999999,None,None,160.4624415999997,161.6475232999992,0.5115787000004275,0.594929000000775,1.7132637000004252,1.7967875000003914,,,,,nat_2,001,2020_Jan_31_1432,posner,3.1.5,59.977568389574394,
-0.5,0,1,left,1,3,0,0,0,0,8,0,64,2,,,,,,,,,161.9816798999991,162.48209549999956,163.1995653999993,None,162.49871709999934,163.18310479999946,163.7003178999994,None,left,1,0.2990769000007276,163.7003178999994,None,None,162.49871709999934,163.68374389999917,0.5117600000003222,0.5949919000004229,1.7133966000001237,1.7966807000002518,,,,,nat_2,001,2020_Jan_31_1432,posner,3.1.5,59.977568389574394,
-0.5,0,1,left,1,3,0,0,0,0,8,1,65,1,,,,,,,,,164.01834139999937,164.51819009999963,165.2357362999992,None,164.53461789999983,165.2189472,165.73642879999989,None,left,1,0.3108466000003318,165.73642879999989,None,None,164.53461789999983,165.7198985999994,0.5116305000001375,0.5951036999995267,1.7133231999996497,1.7965745000001334,,,,,nat_2,001,2020_Jan_31_1432,posner,3.1.5,59.977568389574394,
0.5,180,1,right,2,4,0,0,0,0,8,2,66,7,,,,,,,,,166.0706911999996,166.57100199999968,167.2887544999994,None,166.587673,167.27199989999917,167.78934359999948,None,right,1,0.29011239999999816,167.78934359999948,None,None,166.587673,167.77238789999956,0.5118357999999716,0.5951492000003782,1.7131993000002694,1.7969082999998136,,,,,nat_2,001,2020_Jan_31_1432,posner,3.1.5,59.977568389574394,
-0.5,180,0,left,2,3,0,0,0,0,8,3,67,4,,,,,,,,,168.10737939999945,168.60722349999924,169.32456999999977,None,168.62365409999984,169.30797749999965,169.82543889999943,None,left,1,0.30192470000019966,169.82543889999943,None,None,168.62365409999984,169.80875279999964,0.5116846999999325,0.5950277000001734,1.7131963000001633,1.7966631999997844,,,,,nat_2,001,2020_Jan_31_1432,posner,3.1.5,59.977568389574394,
-0.5,0,1,left,1,3,0,0,0,0,8,4,68,0,,,,,,,,,170.14284809999936,170.6429776999994,171.3608706999994,None,170.65996959999939,171.34403889999976,171.8619420999994,None,left,1,0.28145969999968656,171.8619420999994,None,None,170.65996959999939,171.84472469999946,0.5116346000004341,0.5954091000003245,1.7133621000002677,1.7968965999998545,,,,,nat_2,001,2020_Jan_31_1432,posner,3.1.5,59.977568389574394,
0.5,180,1,right,2,4,0,0,0,0,8,5,69,5,,,,,,,,,172.1627214,172.66262859999915,173.38040489999912,None,172.67924049999965,173.36354889999984,173.88105209999958,None,right,1,0.3741741000003458,173.88105209999958,None,None,172.67924049999965,173.86418029999913,0.5117559000000256,0.5952752000002874,1.7132961000006617,1.7968796000004659,,,,,nat_2,001,2020_Jan_31_1432,posner,3.1.5,59.977568389574394,
0.5,180,1,right,2,4,0,0,0,0,8,6,70,6,,,,,,,,,174.28183849999914,174.78221659999963,175.49977649999983,None,174.7989332999996,175.48309529999915,176.00076309999986,None,right,1,0.3025337999997646,176.00076309999986,None,None,174.7989332999996,175.98366899999928,0.5120900000001711,0.5954396999995879,1.7135379000001194,1.7971945999997843,,,,,nat_2,001,2020_Jan_31_1432,posner,3.1.5,59.977568389574394,
0.5,0,0,right,1,4,0,0,0,0,8,7,71,3,,,,,,,,,176.3345492999997,176.83489479999935,177.55254989999958,None,176.85189479999917,177.53612479999993,178.05332629999975,None,right,1,0.39398870000059105,178.05332629999975,None,None,176.85189479999917,178.0368871999999,0.5117530999996234,0.5953212999993411,1.7136696999996275,1.796877400000085,,,,,nat_2,001,2020_Jan_31_1432,posner,3.1.5,59.977568389574394,
-0.5,180,0,left,2,3,0,0,0,0,9,0,72,4,,,,,,,,,178.47120689999974,178.97146079999948,179.68906629999947,None,178.98816579999948,179.67233569999917,180.18975089999913,None,left,1,0.35356659999979456,180.18975089999913,None,None,178.98816579999948,180.17290419999972,0.5118867000001046,0.5952790999999706,1.7133273999997982,1.796923500000048,,,,,nat_2,001,2020_Jan_31_1432,posner,3.1.5,59.977568389574394,
-0.5,0,1,left,1,3,0,0,0,0,9,1,73,2,,,,,,,,,180.57381089999944,181.07412599999952,181.79189659999975,None,181.09091999999964,181.77504369999951,182.29242089999934,None,left,1,0.33091199999944365,182.29242089999934,None,None,181.09091999999964,182.27600949999942,0.511643499999991,0.5953246000008221,1.7135057000004963,1.7966538000000583,,,,,nat_2,001,2020_Jan_31_1432,posner,3.1.5,59.977568389574394,
-0.5,0,1,left,1,3,0,0,0,0,9,2,74,1,,,,,,,,,182.6437477999998,183.1436092999993,183.86153429999922,None,183.1605215999998,183.84461199999987,184.36194349999914,None,left,1,0.29334410000046773,184.36194349999914,None,None,183.1605215999998,184.3454232999993,0.5111618000000817,0.5946873000002597,1.7129578000003676,1.796445500000118,,,,,nat_2,001,2020_Jan_31_1432,posner,3.1.5,59.977568389574394,
0.5,180,1,right,2,4,0,0,0,0,9,3,75,7,,,,,,,,,184.67970379999952,185.17983859999913,185.89736559999983,None,185.19659719999981,185.88101539999934,186.39820749999944,None,right,1,0.28913939999983995,186.39820749999944,None,None,185.19659719999981,186.38133929999913,0.5116723000001002,0.5950874999998632,1.7131601999999475,1.796787199999926,,,,,nat_2,001,2020_Jan_31_1432,posner,3.1.5,59.977568389574394,
0.5,0,0,right,1,4,0,0,0,0,9,4,76,3,,,,,,,,,186.71599359999982,187.2160219999996,187.93365769999946,None,187.23275329999979,187.9170400999992,188.4341218999998,None,right,1,0.3171763000000283,188.4341218999998,None,None,187.23275329999979,188.41774169999917,0.5117490000002363,0.5951629000001049,1.7134258000005502,1.7966820999999982,,,,,nat_2,001,2020_Jan_31_1432,posner,3.1.5,59.977568389574394,
0.5,180,1,right,2,4,0,0,0,0,9,5,77,6,,,,,,,,,188.76884559999962,189.26877109999987,189.98665579999943,None,189.28548929999943,189.96982079999998,190.4873564999998,None,right,1,0.32814180000059423,190.4873564999998,None,None,189.28548929999943,190.47038239999983,0.5113671999997678,0.5947541999994428,1.712974399999439,1.7962742999998227,,,,,nat_2,001,2020_Jan_31_1432,posner,3.1.5,59.977568389574394,
-0.5,0,1,left,1,3,0,0,0,0,9,6,78,0,,,,,,,,,190.8386934,191.33831459999965,192.0561463999993,None,191.35491729999922,192.0392155999998,192.5566519999993,None,left,1,0.3545524999999543,192.5566519999993,None,None,191.35491729999922,192.54001679999965,0.511330899999848,0.5946835999993709,1.7130005999997593,1.7963277999997445,,,,,nat_2,001,2020_Jan_31_1432,posner,3.1.5,59.977568389574394,
0.5,180,1,right,2,4,0,0,0,0,9,7,79,5,,,,,,,,,192.94093559999965,193.44131319999997,194.15879369999948,None,193.45775349999985,194.1421903999999,194.65969239999959,None,right,1,0.26745279999977356,194.65969239999959,None,None,193.45775349999985,194.64277989999937,0.5118099000001166,0.5953202000000601,1.7132603000000017,1.7968378000005032,,,,,nat_2,001,2020_Jan_31_1432,posner,3.1.5,59.977568389574394,
-0.5,0,1,left,1,3,0,0,0,0,10,0,80,1,,,,,,,,,194.94334139999955,195.4438694999999,196.1615783999996,None,195.46067429999948,196.14489579999918,196.6621409999998,None,left,1,0.2811080999999831,196.6621409999998,None,None,195.46067429999948,196.64547239999956,0.5122682000001078,0.5959961999997176,1.7138519000000088,1.7973879000001034,,,,,nat_2,001,2020_Jan_31_1432,posner,3.1.5,59.977568389574394,
0.5,0,0,right,1,4,0,0,0,0,10,1,81,3,,,,,,,,,196.9628963999994,197.46324519999962,198.1810818999993,None,197.48014889999922,198.16416059999938,198.6818088,None,right,1,0.32536849999996775,198.6818088,None,None,197.48014889999922,198.66498909999973,0.5119726000002629,0.5956101000001581,1.7136985000006462,1.7973007000000507,,,,,nat_2,001,2020_Jan_31_1432,posner,3.1.5,59.977568389574394,
0.5,180,1,right,2,4,0,0,0,0,10,2,82,5,,,,,,,,,199.03295059999982,199.53271569999924,200.2506913999996,None,199.54963489999955,200.23386609999943,200.7513261999993,None,right,1,0.28778220000003785,200.7513261999993,None,None,199.54963489999955,200.73444799999925,0.5116574999992736,0.5953928999997515,1.713363699999718,1.7968505999997433,,,,,nat_2,001,2020_Jan_31_1432,posner,3.1.5,59.977568389574394,
-0.5,180,0,left,2,3,0,0,0,0,10,3,83,4,,,,,,,,,201.06885219999913,201.5691197999995,202.28670329999932,None,201.5858400999996,202.2700103999996,202.78747379999913,None,left,1,0.33169249999991735,202.78747379999913,None,None,201.5858400999996,202.77074439999978,0.5117976999999883,0.5951708000002327,1.713405800000146,1.796687799999745,,,,,nat_2,001,2020_Jan_31_1432,posner,3.1.5,59.977568389574394,
0.5,180,1,right,2,4,0,0,0,0,10,4,84,7,,,,,,,,,203.13861089999955,203.63908599999922,204.35616029999983,None,203.65517509999972,204.33965329999955,204.85699209999984,None,right,1,0.3101816000007602,204.85699209999984,None,None,203.65517509999972,204.84011049999935,0.5118694000002506,0.5946566000002349,1.7128827000005913,1.796402400000261,,,,,nat_2,001,2020_Jan_31_1432,posner,3.1.5,59.977568389574394,
-0.5,0,1,left,1,3,0,0,0,0,10,5,85,2,,,,,,,,,205.1911811,205.69142679999914,206.4091316999993,None,205.7080518999992,206.39233349999995,206.90978199999972,None,left,1,0.30541420000008657,206.90978199999972,None,None,205.7080518999992,206.8929746999993,0.5119553999993514,0.5952190999996674,1.713488100000177,1.7971545000000333,,,,,nat_2,001,2020_Jan_31_1432,posner,3.1.5,59.977568389574394,
-0.5,0,1,left,1,3,0,0,0,0,10,6,86,0,,,,,,,,,207.2437872999999,207.74409469999955,208.46190919999935,None,207.76092299999982,208.4451569999992,208.9623985999997,None,left,1,0.4447960999996212,208.9623985999997,None,None,207.76092299999982,208.94591939999918,0.5122950999993918,0.5957596999996895,1.7140972999995938,1.7974002999999357,,,,,nat_2,001,2020_Jan_31_1432,posner,3.1.5,59.977568389574394,
0.5,180,1,right,2,4,0,0,0,0,10,7,87,6,,,,,,,,,209.4305431999992,209.93053749999945,210.64823629999955,None,209.94729869999992,210.63152009999976,211.14891289999923,None,right,1,0.33811790000072506,211.14891289999923,None,None,209.94729869999992,211.13215949999994,0.5114939999994021,0.5947894999999335,1.7130998000002364,1.796522399999958,,,,,nat_2,001,2020_Jan_31_1432,posner,3.1.5,59.977568389574394,
,,,,,,0,0,0,0,,,,,,,,,,,,,,,,,,,,,,,,,,,,,,,,,211.51736989999972,None,3.789999936998356e-05,0.995609699999477,nat_2,001,2020_Jan_31_1432,posner,3.1.5,59.977568389574394,
0.5,0,0,right,1,4,1,0,1,0,0,0,0,3,1.140000040322775e-05,0.09717559999990044,272.5332512999994,None,2.479999966453761e-05,0.0977285999997548,274.63623799999914,None,274.9135435999997,275.4207727999992,276.12153229999967,None,275.4207727999992,276.12153229999967,276.62206029999925,None,right,1,0.400798699999541,276.62206029999925,None,None,275.4207727999992,276.62206029999925,0.5001070999996955,0.6001704999998765,1.7018137999993996,1.8019705999995494,,,,,nat_2,001,2020_Jan_31_1432,posner,3.1.5,59.977568389574394,
0.5,180,1,right,2,4,1,0,1,0,0,1,1,7,,,,,,,,,277.0403682999995,277.54030729999977,278.25773129999925,None,277.5566997999995,278.24123409999993,278.7583945999995,None,right,1,0.376410400000168,278.7583945999995,None,None,277.5566997999995,278.7419070999995,0.5105398000005152,0.5936096000004909,1.7121237000001202,1.7952974999998332,,,,,nat_2,001,2020_Jan_31_1432,posner,3.1.5,59.977568389574394,
-0.5,180,0,left,2,3,1,0,1,0,0,2,2,4,,,,,,,,,279.1596194999993,279.6597198999998,280.3773526999994,None,279.6764267999997,280.36072989999957,280.87811259999944,None,left,1,0.36868000000049506,280.87811259999944,None,None,279.6764267999997,280.8613921999995,0.5116828000000169,0.5949706000001243,1.7133284999999887,1.7967021000004024,,,,,nat_2,001,2020_Jan_31_1432,posner,3.1.5,59.977568389574394,
0.5,180,1,right,2,4,1,0,1,0,0,3,3,5,,,,,,,,,281.2623466999994,281.76236119999976,282.4802714999996,None,281.7794781999992,282.46337049999966,282.9810665999994,None,right,1,0.3297545999994327,282.9810665999994,None,None,281.7794781999992,282.96422639999946,0.5115389000002324,0.5953557000002547,1.713388600000144,1.7969414999997753,,,,,nat_2,001,2020_Jan_31_1432,posner,3.1.5,59.977568389574394,
-0.5,0,1,left,1,3,1,0,1,0,0,4,4,1,,,,,,,,,283.3321806999993,283.83196879999923,284.54970909999975,None,283.8489299999992,284.53303329999926,285.0505217,None,left,1,0.3082717999996021,285.0505217,None,None,283.8489299999992,285.0337106999996,0.5115328000001682,0.5951699999995981,1.7132560000000012,1.7966561000002912,,,,,nat_2,001,2020_Jan_31_1432,posner,3.1.5,59.977568389574394,
0.5,180,1,right,2,4,1,0,1,0,0,5,5,6,,,,,,,,,285.3854294999992,285.88485239999955,286.60243359999913,None,285.90151629999946,286.5859811999999,287.1030734999995,None,right,1,0.30374530000062805,287.1030734999995,None,None,285.90151629999946,287.08670299999994,0.5116462000005413,0.5951805000004242,1.7134038000003784,1.7966403000000355,,,,,nat_2,001,2020_Jan_31_1432,posner,3.1.5,59.977568389574394,
-0.5,0,1,left,1,3,1,0,1,0,0,6,6,2,,,,,,,,,287.43698529999983,287.9376966,288.6554875999991,None,287.9543741999996,288.6386616,289.1561507999995,None,left,1,0.28263280000010127,289.1561507999995,None,None,287.9543741999996,289.1395451999997,0.5122475999996823,0.5958025999998426,1.7140937999993184,1.797321799999736,,,,,nat_2,001,2020_Jan_31_1432,posner,3.1.5,59.977568389574394,
-0.5,0,1,left,1,3,1,0,1,0,0,7,7,0,,,,,,,,,289.45683479999934,289.95738229999915,290.6746930999998,None,289.97376129999975,290.6581634999993,291.1755145999996,None,left,1,0.3116579000006823,291.1755145999996,None,None,289.97376129999975,291.15880769999967,0.5121100999995178,0.595286899999337,1.7135218999992503,1.7969153999993068,,,,,nat_2,001,2020_Jan_31_1432,posner,3.1.5,59.977568389574394,
-0.5,180,0,left,2,3,1,0,1,0,1,0,8,4,,,,,,,,,291.5104937999995,292.0100928999991,292.72772729999997,None,292.0270010999993,292.71094989999983,293.2282854999994,None,left,1,0.3224894000004497,293.2282854999994,None,None,292.0270010999993,293.2115015999998,0.5113201000003755,0.5945963000003758,1.712714600000254,1.7963442000000214,,,,,nat_2,001,2020_Jan_31_1432,posner,3.1.5,59.977568389574394,
0.5,180,1,right,2,4,1,0,1,0,1,1,9,7,,,,,,,,,293.5795199999993,294.0796596,294.79716969999936,None,294.09622749999926,294.78065069999957,295.2978942,None,right,1,0.2687632000006488,295.2978942,None,None,294.09622749999926,295.2811339,0.5115258000005269,0.5947210000003906,1.7129971000003934,1.7965225000007194,,,,,nat_2,001,2020_Jan_31_1432,posner,3.1.5,59.977568389574394,
0.5,0,0,right,1,4,1,0,1,0,1,2,10,3,,,,,,,,,295.5985291999996,296.09916409999914,296.8165905999995,None,296.1153300999995,296.79987959999926,297.31728419999945,None,right,1,0.31351569999969797,297.31728419999945,None,None,296.1153300999995,297.30077619999975,0.5119238999996014,0.5948326999996425,1.7135213999999905,1.7966750999994474,,,,,nat_2,001,2020_Jan_31_1432,posner,3.1.5,59.977568389574394,
-0.5,0,1,left,1,3,1,0,1,0,1,3,11,2,,,,,,,,,297.6513391999997,298.1518469999992,298.86935229999926,None,298.16838239999925,298.8524439999992,299.3702932999995,None,left,1,0.29240690000006,299.3702932999995,None,None,298.16838239999925,299.3533717999999,0.5121776000005411,0.5956496999997398,1.7136886999996932,1.797207000000526,,,,,nat_2,001,2020_Jan_31_1432,posner,3.1.5,59.977568389574394,
0.5,180,1,right,2,4,1,0,1,0,1,4,12,6,,,,,,,,,299.6880377999996,300.1879233999998,300.90561479999997,None,300.20457049999914,300.88892339999984,301.40638989999934,301.8903943999994,None,0,,301.40638989999934,None,None,300.20457049999914,301.38956659999985,0.5115628999992623,0.5948869999992894,1.7131833999992523,1.7964621999999508,,,,,nat_2,001,2020_Jan_31_1432,posner,3.1.5,59.977568389574394,
0.5,180,1,right,2,4,1,0,1,0,1,5,13,5,,,,,,,,,302.39092939999955,302.8916690999995,303.60913829999936,302.39092939999955,302.90859549999914,303.5924995999994,304.10992839999926,None,right,1,0.38471879999997327,304.10992839999926,None,None,302.90859549999914,304.09313829999974,0.5136631000004854,0.5969373000007181,1.7151281000005838,1.7988669000005757,,,,,nat_2,001,2020_Jan_31_1432,posner,3.1.5,59.977568389574394,
-0.5,0,1,left,1,3,1,0,1,0,1,6,14,1,,,,,,,,,304.5109702,305.01138489999994,305.7287317999999,None,305.0280068999991,305.7120266999991,306.22958389999985,None,left,1,0.3771430999995573,306.22958389999985,None,None,305.0280068999991,306.21273759999985,0.5117725000000064,0.594879299999775,1.7131128999999419,1.7968761000001905,,,,,nat_2,001,2020_Jan_31_1432,posner,3.1.5,59.977568389574394,
-0.5,0,1,left,1,3,1,0,1,0,1,7,15,0,,,,,,,,,306.63070139999945,307.13078809999934,307.8484320999996,None,307.14746469999955,307.83168039999964,308.3491027,None,left,1,0.2896921999999904,308.3491027,None,None,307.14746469999955,308.3322178999997,0.5116308999995454,0.5950679999996282,1.7130489999999554,1.7967391000001953,,,,,nat_2,001,2020_Jan_31_1432,posner,3.1.5,59.977568389574394,
-0.5,0,1,left,1,3,1,0,1,0,2,0,16,1,,,,,,,,,308.66668319999917,309.16730239999924,309.8844244999991,None,309.18354649999947,309.8679345999999,310.3853535999997,None,left,1,0.23729000000002998,310.3853535999997,None,None,309.18354649999947,310.3685766999997,0.5120799000005718,0.5951610000001892,1.7133338000003278,1.7966724000007162,,,,,nat_2,001,2020_Jan_31_1432,posner,3.1.5,59.977568389574394,
0.5,180,1,right,2,4,1,0,1,0,2,1,17,7,,,,,,,,,310.6523545,311.1528006999997,311.87064759999976,None,311.16970759999913,311.85388279999916,312.3713910999995,None,right,1,0.21927099999993516,312.3713910999995,None,None,311.16970759999913,312.3545889999996,0.5121503000000303,0.5959150999997291,1.7139223000003767,1.7974457000000257,,,,,nat_2,001,2020_Jan_31_1432,posner,3.1.5,59.977568389574394,
0.5,0,0,right,1,4,1,0,1,0,2,2,18,3,,,,,,,,,312.6219188999994,313.1220848999992,313.8398588,None,313.1391614999993,313.8232722999992,314.3408368999999,None,right,1,0.2978007000001526,314.3408368999999,None,None,313.1391614999993,314.3239632999994,0.5115058999999746,0.5952731999996104,1.713375599999381,1.796772400000009,,,,,nat_2,001,2020_Jan_31_1432,posner,3.1.5,59.977568389574394,
-0.5,0,1,left,1,3,1,0,1,0,2,3,19,2,,,,,,,,,314.65876579999986,315.1585316999999,315.87625859999935,None,315.1749651,315.8593125999996,316.3767536999994,None,left,1,0.32586929999979475,316.3767536999994,None,None,315.1749651,316.36021289999917,0.5114366000007067,0.5948092000007819,1.7131026000006386,1.7963730999999825,,,,,nat_2,001,2020_Jan_31_1432,posner,3.1.5,59.977568389574394,
-0.5,180,0,left,2,3,1,0,1,0,2,4,20,4,,,,,,,,,316.7277308999992,317.22811179999917,317.9455865,None,317.2445229999994,317.92894869999964,318.4463137999992,None,left,1,0.30427850000069157,318.4463137999992,None,None,317.2445229999994,318.42960849999963,0.5114998999997624,0.5947235000003275,1.7129853999995248,1.796346999999514,,,,,nat_2,001,2020_Jan_31_1432,posner,3.1.5,59.977568389574394,
0.5,180,1,right,2,4,1,0,1,0,2,5,21,6,,,,,,,,,318.78064709999944,319.2809387999996,319.9984797999996,None,319.29752669999925,319.9817543999998,320.4992064999997,None,left,0,0.2672889999994368,320.4992064999997,None,None,319.29752669999925,320.48255569999947,0.5118699000004199,0.5949915999999575,1.7134748000007676,1.7969892999999502,,,,,nat_2,001,2020_Jan_31_1432,posner,3.1.5,59.977568389574394,
-0.5,0,1,left,1,3,1,0,1,0,2,6,22,0,,,,,,,,,320.7833417999991,321.28344149999975,322.00134159999925,None,321.3000979999997,321.98438759999954,322.50179489999937,None,left,1,0.32895120000011957,322.50179489999937,None,None,321.3000979999997,322.4852478999992,0.5116469000004145,0.5953330000002097,1.7134336999997686,1.796843799999806,,,,,nat_2,001,2020_Jan_31_1432,posner,3.1.5,59.977568389574394,
0.5,180,1,right,2,4,1,0,1,0,2,7,23,5,,,,,,,,,322.85313549999955,323.35298559999956,324.07073839999975,None,323.3697941999999,324.0539424999997,324.5713550999999,None,right,1,0.3233484000002136,324.5713550999999,None,None,323.3697941999999,324.5545252999991,0.5113885999999184,0.5949771999994482,1.7129095999998754,1.7964290999998411,,,,,nat_2,001,2020_Jan_31_1432,posner,3.1.5,59.977568389574394,
0.5,180,1,right,2,4,1,0,1,0,3,0,24,5,,,,,,,,,324.9224942999999,325.42253729999993,326.14043159999983,None,325.43927969999913,326.1234837999991,326.6407982999999,None,right,1,0.3017961000005016,326.6407982999999,None,None,325.43927969999913,326.62413859999924,0.5116802000002281,0.595043500000429,1.7132649000004676,1.7968965999998545,,,,,nat_2,001,2020_Jan_31_1432,posner,3.1.5,59.977568389574394,
0.5,180,1,right,2,4,1,0,1,0,3,1,25,7,,,,,,,,,326.9586329999993,327.45868489999975,328.1762491999998,None,327.4755333999992,328.15970989999914,328.67725019999943,None,right,1,0.2972933999999441,328.67725019999943,None,None,327.4755333999992,328.6604721999993,0.5115251000006538,0.5947836000004827,1.7132995000001756,1.7965546000004906,,,,,nat_2,001,2020_Jan_31_1432,posner,3.1.5,59.977568389574394,
0.5,0,0,right,1,4,1,0,1,0,3,2,26,3,,,,,,,,,328.9949463999992,329.4947463999997,330.2124234999992,None,329.51141199999984,330.1959623999992,330.7129953999993,None,right,1,0.3255301999997755,330.7129953999993,None,None,329.51141199999984,330.69661859999997,0.51162530000056,0.5950848000002225,1.7134526999998343,1.796711800000594,,,,,nat_2,001,2020_Jan_31_1432,posner,3.1.5,59.977568389574394,
0.5,180,1,right,2,4,1,0,1,0,3,3,27,6,,,,,,,,,331.06442659999993,331.5644760999994,332.28196969999954,None,331.5810148999999,332.26536639999995,332.7825047999995,None,right,1,0.2719075000004523,332.7825047999995,None,None,331.5810148999999,332.76595499999985,0.5119783999998617,0.5951341999998476,1.713433700000678,1.7969905999998446,,,,,nat_2,001,2020_Jan_31_1432,posner,3.1.5,59.977568389574394,
-0.5,0,1,left,1,3,1,0,1,0,3,4,28,1,,,,,,,,,333.0833014,333.5837548999998,334.3015201999997,None,333.6006069999994,334.28470169999946,334.8020684999992,None,left,1,0.268452299999808,334.8020684999992,None,None,333.6006069999994,334.7855009999994,0.511613199999374,0.5951342999996996,1.7133278000001155,1.7966484999997192,,,,,nat_2,001,2020_Jan_31_1432,posner,3.1.5,59.977568389574394,
-0.5,180,0,left,2,3,1,0,1,0,3,5,29,4,,,,,,,,,335.08666229999926,335.58669799999916,336.30402159999994,None,335.6031389999998,336.2875791999995,336.8047655999999,None,left,1,0.32964739999988524,336.8047655999999,None,None,335.6031389999998,336.7882479,0.5118277000001399,0.5951196999994863,1.7133610000000772,1.7966456000003745,,,,,nat_2,001,2020_Jan_31_1432,posner,3.1.5,59.977568389574394,
-0.5,0,1,left,1,3,1,0,1,0,3,6,30,2,,,,,,,,,337.1560968999993,337.65624489999936,338.37367279999944,None,337.67287469999974,338.35711849999916,338.87440629999946,None,left,1,0.3241746999992756,338.87440629999946,None,None,337.67287469999974,338.85779639999964,0.5117460999999821,0.5951969999996436,1.7132799999999406,1.796665299999404,,,,,nat_2,001,2020_Jan_31_1432,posner,3.1.5,59.977568389574394,
-0.5,0,1,left,1,3,1,0,1,0,3,7,31,0,,,,,,,,,339.22582319999947,339.72547979999945,340.4431107999999,None,339.7421898999992,340.4264719999992,340.9438008999996,None,left,1,0.3186789999999746,340.9438008999996,None,None,339.7421898999992,340.9273562999997,0.5115474999993239,0.595100900000034,1.7134020999992572,1.7966016000000309,,,,,nat_2,001,2020_Jan_31_1432,posner,3.1.5,59.977568389574394,
0.5,0,0,right,1,4,1,0,1,0,4,0,32,3,,,,,,,,,341.2782628999994,341.7783066999991,342.49611659999937,None,341.79494929999964,342.47947119999935,342.9968222999996,None,right,1,0.2976509999998598,342.9968222999996,None,None,341.79494929999964,342.98024499999974,0.511648000000605,0.5951429000006101,1.7135549000004175,1.79666189999989,,,,,nat_2,001,2020_Jan_31_1432,posner,3.1.5,59.977568389574394,
-0.5,0,1,left,1,3,1,0,1,0,4,1,33,2,,,,,,,,,343.3148145999994,343.8143416999992,344.53228689999924,None,343.8313114999992,344.5154307999992,345.0328628999996,None,left,1,0.277450300000055,345.0328628999996,None,None,343.8313114999992,345.01614919999975,0.5112840000001597,0.59494739999991,1.7130685000001904,1.7965013000002727,,,,,nat_2,001,2020_Jan_31_1432,posner,3.1.5,59.977568389574394,
0.5,180,1,right,2,4,1,0,1,0,4,2,34,7,,,,,,,,,345.33323459999974,345.83395569999993,346.55168219999996,None,345.8506893999993,346.53479609999977,347.05212929999925,None,right,1,0.25829460000022664,347.05212929999925,None,None,345.8506893999993,347.0356777999996,0.5124790999998368,0.5959108999995806,1.714179100000365,1.7974254999999175,,,,,nat_2,001,2020_Jan_31_1432,posner,3.1.5,59.977568389574394,
-0.5,180,0,left,2,3,1,0,1,0,4,3,35,4,,,,,,,,,347.3363735999992,347.8368086999999,348.55415709999943,None,347.85334199999943,348.53784239999914,349.05497379999997,None,left,1,0.3194954999999027,349.05497379999997,None,None,347.85334199999943,349.03847789999963,0.5122636999994938,0.5957576999999219,1.7139132999991489,1.7971385999999256,,,,,nat_2,001,2020_Jan_31_1432,posner,3.1.5,59.977568389574394,
-0.5,0,1,left,1,3,1,0,1,0,4,4,36,1,,,,,,,,,349.40618639999957,349.9061697999996,350.62369109999963,None,349.9228309,350.6074216999996,351.12442529999953,None,left,1,0.3139744999998584,351.12442529999953,None,None,349.9228309,351.1079006,0.5115108999998483,0.5948795999993308,1.713221899999553,1.7966172999995251,,,,,nat_2,001,2020_Jan_31_1432,posner,3.1.5,59.977568389574394,
0.5,180,1,right,2,4,1,0,1,0,4,5,37,6,,,,,,,,,351.45864469999924,351.9591223999996,352.6767971999998,None,351.97558219999974,352.66017079999983,353.1773913999996,None,right,1,0.3090362000002642,353.1773913999996,None,None,351.97558219999974,353.16080779999993,0.5118413000000146,0.5950419000000693,1.7135121000001163,1.7966607999996995,,,,,nat_2,001,2020_Jan_31_1432,posner,3.1.5,59.977568389574394,
-0.5,0,1,left,1,3,1,0,1,0,4,6,38,0,,,,,,,,,353.5120113999992,354.01187559999926,354.7295620999994,None,354.0286618,354.71266529999957,355.2302359999994,None,left,1,0.32012180000037915,355.2302359999994,None,None,354.0286618,355.2133976999994,0.5114812000001621,0.5947927999995954,1.7129879000003712,1.7966806000003999,,,,,nat_2,001,2020_Jan_31_1432,posner,3.1.5,59.977568389574394,
0.5,180,1,right,2,4,1,0,1,0,4,7,39,5,,,,,,,,,355.58092059999944,356.0812384999999,356.7989988999998,None,356.0982054999995,356.7822905999992,357.2997958999995,None,right,1,0.3145809999996345,357.2997958999995,None,None,356.0982054999995,357.28303009999945,0.5115513999999166,0.5950960999998642,1.7133378999997149,1.796895399999812,,,,,nat_2,001,2020_Jan_31_1432,posner,3.1.5,59.977568389574394,
0.5,180,1,right,2,4,1,0,1,0,5,0,40,6,,,,,,,,,357.6342629999999,358.1340378999994,358.8520106999995,None,358.1509176999998,358.83519049999995,359.35239569999976,None,right,1,0.2620003000001816,359.35239569999976,None,None,358.1509176999998,359.3358988,0.5113458999994691,0.5949381000000358,1.7131911999995282,1.796602399999756,,,,,nat_2,001,2020_Jan_31_1432,posner,3.1.5,59.977568389574394,
-0.5,180,0,left,2,3,1,0,1,0,5,1,41,4,,,,,,,,,359.63709519999975,360.1371789999994,360.85463289999916,None,360.1534979999997,360.8378617999997,361.35546969999996,None,left,1,0.3389799000005951,361.35546969999996,None,None,360.1534979999997,361.33864189999986,0.5116459999999279,0.5949026999996931,1.7130959999994957,1.796509199999491,,,,,nat_2,001,2020_Jan_31_1432,posner,3.1.5,59.977568389574394,
0.5,0,0,right,1,4,1,0,1,0,5,2,42,3,,,,,,,,,361.72250389999954,362.2230738999997,362.94077259999995,None,362.2398222999991,362.9240244999992,363.4415272999995,None,right,1,0.300728799999888,363.4415272999995,None,None,362.2398222999991,363.4248048999998,0.5122777999995378,0.5958146000002671,1.7139860999996017,1.7975079999996524,,,,,nat_2,001,2020_Jan_31_1432,posner,3.1.5,59.977568389574394,
-0.5,0,1,left,1,3,1,0,1,0,5,3,43,2,,,,,,,,,363.7590980999994,364.2592732999992,364.97722299999987,None,364.2760146999999,364.9602791999996,365.47764279999956,None,left,1,0.2807193999997253,365.47764279999956,None,None,364.2760146999999,365.46103029999995,0.511828599999717,0.5952106999993703,1.7135576999999103,1.7969801999997799,,,,,nat_2,001,2020_Jan_31_1432,posner,3.1.5,59.977568389574394,
0.5,180,1,right,2,4,1,0,1,0,5,4,44,5,,,,,,,,,365.7786948999992,366.27882319999935,366.9964379999992,None,366.2955194999995,366.97982219999994,367.49715389999983,None,right,1,0.2613782000007632,367.49715389999983,None,None,366.2955194999995,367.48043229999985,0.5116617000003316,0.5949060000002646,1.7132594000004246,1.7965953000002628,,,,,nat_2,001,2020_Jan_31_1432,posner,3.1.5,59.977568389574394,
-0.5,0,1,left,1,3,1,0,1,0,5,5,45,1,,,,,,,,,367.7816082999998,368.2814456999995,368.9993450999991,None,368.2983936999999,368.9823271999994,369.4999394999995,None,left,1,0.2743421999994098,369.4999394999995,None,None,368.2983936999999,369.4831414999999,0.5115286999998716,0.5948246999996627,1.7132063999997627,1.7965704999996888,,,,,nat_2,001,2020_Jan_31_1432,posner,3.1.5,59.977568389574394,
-0.5,0,1,left,1,3,1,0,1,0,5,6,46,0,,,,,,,,,369.80080329999964,370.3009502999994,371.0184683999996,None,370.31759389999934,371.0020289999993,371.51933929999996,None,left,1,0.3029679000001124,371.51933929999996,None,None,370.31759389999934,371.50259489999917,0.5117970000001151,0.5950516000002608,1.7134302000004027,1.796957000000475,,,,,nat_2,001,2020_Jan_31_1432,posner,3.1.5,59.977568389574394,
0.5,180,1,right,2,4,1,0,1,0,5,7,47,7,,,,,,,,,371.8533588999999,372.3536314999992,373.0715461,None,372.3706362999992,373.0545769999999,373.5719115999991,None,right,1,0.2824724000001879,373.5719115999991,None,None,372.3706362999992,373.5554226999993,0.5114730999994208,0.5950145999995584,1.7132353999995757,1.7966990999993868,,,,,nat_2,001,2020_Jan_31_1432,posner,3.1.5,59.977568389574394,
0.5,180,1,right,2,4,1,0,1,0,6,0,48,5,,,,,,,,,373.87310419999994,374.3731055999997,375.09077119999984,None,374.38988489999974,375.0741616999994,375.59158879999995,None,right,1,0.32669220000025234,375.59158879999995,None,None,374.38988489999974,375.57469879999917,0.5114660999997795,0.5949031999998624,1.7130500999992364,1.7967758999993748,,,,,nat_2,001,2020_Jan_31_1432,posner,3.1.5,59.977568389574394,
-0.5,0,1,left,1,3,1,0,1,0,6,1,49,2,,,,,,,,,375.9420988999991,376.44260009999925,377.1603620999995,None,376.4595131999995,377.1434885999997,377.6610252999999,None,left,1,0.28937299999961397,377.6610252999999,None,None,376.4595131999995,377.6441906,0.5121226999999635,0.5959505000000718,1.7136983999998847,1.7972853999999643,,,,,nat_2,001,2020_Jan_31_1432,posner,3.1.5,59.977568389574394,
0.5,180,1,right,2,4,1,0,1,0,6,2,50,6,,,,,,,,,377.9787340999992,378.47887249999985,379.1965462999997,None,378.4956622999998,379.17983619999995,379.6972662999997,None,right,1,0.2528753999995388,379.6972662999997,None,None,378.4956622999998,379.68047059999935,0.5117844999995214,0.5950993999995262,1.713360499999908,1.7967897999997149,,,,,nat_2,001,2020_Jan_31_1432,posner,3.1.5,59.977568389574394,
0.5,180,1,right,2,4,1,0,1,0,6,3,51,7,,,,,,,,,379.9811456999996,380.48145079999995,381.1994288999995,None,380.4982096999993,381.1823904999992,381.7000081999995,None,right,1,0.2663212999996176,381.7000081999995,None,None,380.4982096999993,381.68325279999954,0.5120336999998472,0.5955017000005682,1.7138300000005984,1.7974873000002844,,,,,nat_2,001,2020_Jan_31_1432,posner,3.1.5,59.977568389574394,
-0.5,0,1,left,1,3,1,0,1,0,6,4,52,1,,,,,,,,,381.9842052999993,382.48429959999976,383.20197729999927,None,382.501037,383.1853592999996,383.70264829999996,None,left,1,0.29580259999966074,383.70264829999996,None,None,382.501037,383.6861251999999,0.5114193999997951,0.5948812999995425,1.7131997999995292,1.79657429999952,,,,,nat_2,001,2020_Jan_31_1432,posner,3.1.5,59.977568389574394,
-0.5,0,1,left,1,3,1,0,1,0,6,5,53,0,,,,,,,,,384.020544,384.5204623999998,385.2383291999995,None,384.5373643999992,385.2216090999991,385.7390349999996,None,left,1,0.2752461999998559,385.7390349999996,None,None,384.5373643999992,385.72188019999976,0.5114480000002004,0.594768899999508,1.71285429999989,1.7964752999996563,,,,,nat_2,001,2020_Jan_31_1432,posner,3.1.5,59.977568389574394,
0.5,0,0,right,1,4,1,0,1,0,6,6,54,3,,,,,,,,,386.04034749999937,386.54014729999926,387.2574599999998,None,386.5566095999993,387.2407097999994,387.75823819999914,None,right,1,0.28790399999979854,387.75823819999914,None,None,386.5566095999993,387.74141579999923,0.5114860000003318,0.5946125999998912,1.7127417000001515,1.7965324000006149,,,,,nat_2,001,2020_Jan_31_1432,posner,3.1.5,59.977568389574394,
-0.5,180,0,left,2,3,1,0,1,0,6,7,55,4,,,,,,,,,388.0760341999994,388.57611279999946,389.29359809999914,None,388.59268339999926,389.2770939999991,389.7942273999997,None,left,1,0.31603590000031545,389.7942273999997,None,None,388.59268339999926,389.7776217999999,0.5118029999994178,0.5951869000000443,1.7132783999995809,1.7967890999998417,,,,,nat_2,001,2020_Jan_31_1432,posner,3.1.5,59.977568389574394,
0.5,180,1,right,2,4,1,0,1,0,7,0,56,7,,,,,,,,,390.1287966,390.6288889999996,391.34653379999963,None,390.6456541999996,391.3299522999996,391.8473088999999,None,right,1,0.2468552999998792,391.8473088999999,None,None,390.6456541999996,391.83043069999985,0.511718099999598,0.5948953999995865,1.71322710000004,1.7965469000000667,,,,,nat_2,001,2020_Jan_31_1432,posner,3.1.5,59.977568389574394,
0.5,0,0,right,1,4,1,0,1,0,7,1,57,3,,,,,,,,,392.1146637999991,392.61475789999986,393.3324021999997,None,392.63145129999975,393.31588699999975,393.8330305999998,None,right,1,0.3091046000008646,393.8330305999998,None,None,392.63145129999975,393.8166328999996,0.5114798999993582,0.5951552999995329,1.7133199999998396,1.7967318000000887,,,,,nat_2,001,2020_Jan_31_1432,posner,3.1.5,59.977568389574394,
0.5,180,1,right,2,4,1,0,1,0,7,2,58,6,,,,,,,,,394.1674721999998,394.66769159999967,395.3856139999998,None,394.68435129999943,395.3688201999994,395.8862335999993,None,right,1,0.28800259999934497,395.8862335999993,None,None,394.68435129999943,395.86931409999943,0.5116272000004756,0.5949367000002894,1.7132330000004004,1.7967365000004065,,,,,nat_2,001,2020_Jan_31_1432,posner,3.1.5,59.977568389574394,
-0.5,180,0,left,2,3,1,0,1,0,7,3,59,4,,,,,,,,,396.20373859999927,396.7038036999993,397.4214983999991,None,396.72063269999944,397.4048307999992,397.92210459999933,None,left,1,0.30009900000004563,397.92210459999933,None,None,396.72063269999944,397.9056636999994,0.5114289000002827,0.5950670000001992,1.7132675000002564,1.7966145000000324,,,,,nat_2,001,2020_Jan_31_1432,posner,3.1.5,59.977568389574394,
-0.5,0,1,left,1,3,1,0,1,0,7,4,60,1,,,,,,,,,398.2399564999996,398.7399312999996,399.45765559999927,None,398.7567070999994,399.44109649999973,399.95839999999953,None,left,1,0.3117716999995537,399.95839999999953,None,None,398.7567070999994,399.9417306999994,0.5115849000003436,0.5949952000000849,1.7133640000001833,1.7970611999999164,,,,,nat_2,001,2020_Jan_31_1432,posner,3.1.5,59.977568389574394,
-0.5,0,1,left,1,3,1,0,1,0,7,5,61,2,,,,,,,,,400.29262689999996,400.79273699999976,401.5103937999993,None,400.8098160999998,401.49367299999994,402.01115909999953,None,left,1,0.2909952999998495,402.01115909999953,None,None,400.8098160999998,401.9944433999999,0.5116699000000153,0.5952206000001752,1.7133853999994244,1.7967660999993313,,,,,nat_2,001,2020_Jan_31_1432,posner,3.1.5,59.977568389574394,
-0.5,0,1,left,1,3,1,0,1,0,7,6,62,0,,,,,,,,,402.3289261,402.82899869999983,403.5466308999994,None,402.84572709999975,403.5299086999994,404.0472547999998,None,left,1,0.2708736000004137,404.0472547999998,None,None,402.84572709999975,404.03072279999924,0.5117003000004843,0.594926900000246,1.713408900000104,1.7966267000001608,,,,,nat_2,001,2020_Jan_31_1432,posner,3.1.5,59.977568389574394,
0.5,180,1,right,2,4,1,0,1,0,7,7,63,5,,,,,,,,,404.3480762999998,404.84826989999965,405.56621899999936,None,404.8652794999998,405.5494900999993,406.0668855999993,None,right,1,0.2192019000003711,406.0668855999993,None,None,404.8652794999998,406.05005299999993,0.5117147000000841,0.5950987000005625,1.7134749000006195,1.796811400000479,,,,,nat_2,001,2020_Jan_31_1432,posner,3.1.5,59.977568389574394,
-0.5,0,1,left,1,3,1,0,1,0,8,0,64,1,,,,,,,,,406.31759239999974,406.8178565999997,407.53555359999973,None,406.83444229999986,407.51868959999956,408.03616559999955,None,left,1,0.2979838999999629,408.03616559999955,None,None,406.83444229999986,408.01943819999997,0.5117464999993899,0.5952771999991455,1.7133109999995213,1.7965249999997468,,,,,nat_2,001,2020_Jan_31_1432,posner,3.1.5,59.977568389574394,
-0.5,0,1,left,1,3,1,0,1,0,8,1,65,2,,,,,,,,,408.3541988999996,408.85371139999916,409.5713845999999,None,408.87062179999975,409.5547626999996,410.07210789999954,None,left,1,0.3099731000002066,410.07210789999954,None,None,408.87062179999975,410.05558719999954,0.5111593999999968,0.5948397000001933,1.7130167999994228,1.7965767999994569,,,,,nat_2,001,2020_Jan_31_1432,posner,3.1.5,59.977568389574394,
0.5,180,1,right,2,4,1,0,1,0,8,2,66,5,,,,,,,,,410.4069008999995,410.90679529999943,411.62445359999947,None,410.9233912999998,411.60756369999945,412.1249337999998,None,right,1,0.2573017000004256,412.1249337999998,None,None,410.9233912999998,412.10854179999933,0.5113392000002932,0.5948109000000841,1.7130686000000424,1.7963524000006146,,,,,nat_2,001,2020_Jan_31_1432,posner,3.1.5,59.977568389574394,
0.5,0,0,right,1,4,1,0,1,0,8,3,67,3,,,,,,,,,412.4092176999993,412.9095232999998,413.62707019999925,None,412.9264094,413.61062969999966,414.12794849999955,None,right,1,0.3342660000007527,414.12794849999955,None,None,412.9264094,414.11095169999953,0.5118234999999913,0.5951402000000598,1.7132384000005914,1.796826200000396,,,,,nat_2,001,2020_Jan_31_1432,posner,3.1.5,59.977568389574394,
-0.5,0,1,left,1,3,1,0,1,0,8,4,68,0,,,,,,,,,414.4788929999995,414.97904259999996,415.6967350999994,None,414.9956951999993,415.67998819999957,416.1972182999998,None,left,1,0.31281030000081955,416.1972182999998,None,None,414.9956951999993,416.1805738999992,0.5116549999993367,0.594899699999587,1.713165499999377,1.79674519999935,,,,,nat_2,001,2020_Jan_31_1432,posner,3.1.5,59.977568389574394,
0.5,180,1,right,2,4,1,0,1,0,8,5,69,7,,,,,,,,,416.5318021999992,417.0314720999995,417.7494719999995,None,417.0486788999997,417.7326631999995,418.25025539999933,None,right,1,0.27577320000000327,418.25025539999933,None,None,417.0486788999997,418.23334179999983,0.5111256999998659,0.5949253999997381,1.7129832999999053,1.7966506000002482,,,,,nat_2,001,2020_Jan_31_1432,posner,3.1.5,59.977568389574394,
-0.5,180,0,left,2,3,1,0,1,0,8,6,70,4,,,,,,,,,418.5511987,419.05120889999944,419.76881199999934,None,419.0678528999997,419.7520837999991,420.2695785999995,None,left,1,0.33651689999987866,420.2695785999995,None,None,419.0678528999997,420.25273239999933,0.5117191999997885,0.5951523000003363,1.713238000000274,1.7970636000000013,,,,,nat_2,001,2020_Jan_31_1432,posner,3.1.5,59.977568389574394,
0.5,180,1,right,2,4,1,0,1,0,8,7,71,6,,,,,,,,,420.63722829999915,421.13760549999915,421.8551822999998,None,421.1542829,421.8384766999998,422.3559086999994,None,right,1,0.33018189999984315,422.3559086999994,None,None,421.1542829,422.33922259999963,0.5116039999993518,0.5947126999999455,1.7132065999994666,1.7965215999993234,,,,,nat_2,001,2020_Jan_31_1432,posner,3.1.5,59.977568389574394,
-0.5,0,1,left,1,3,1,0,1,0,9,0,72,2,,,,,,,,,422.70713589999923,423.20689499999935,423.9247385999997,None,423.22354559999985,423.9079617999996,424.42527379999956,None,left,1,0.3568308000003526,424.42527379999956,None,None,423.22354559999985,424.40859119999914,0.5114796999996543,0.5950351999999839,1.7131370999995852,1.7964677999998457,,,,,nat_2,001,2020_Jan_31_1432,posner,3.1.5,59.977568389574394,
-0.5,180,0,left,2,3,1,0,1,0,9,1,73,4,,,,,,,,,424.8096861999993,425.3098983,426.02777219999916,None,425.32655199999954,426.01077929999974,426.52823419999913,None,left,1,0.3818469999996523,426.52823419999913,None,None,425.32655199999954,426.5116025999996,0.5118085000003703,0.5950214000004053,1.7134977000005165,1.7969638000004124,,,,,nat_2,001,2020_Jan_31_1432,posner,3.1.5,59.977568389574394,
0.5,180,1,right,2,4,1,0,1,0,9,2,74,7,,,,,,,,,426.92931079999926,427.4294538999993,428.1472064999998,None,427.44615199999953,428.1304425999997,428.6477178999994,None,right,1,0.32625909999933356,428.6477178999994,None,None,427.44615199999953,428.63110849999975,0.5118308999999499,0.5950807999997778,1.7134646000004068,1.7969139999995605,,,,,nat_2,001,2020_Jan_31_1432,posner,3.1.5,59.977568389574394,
0.5,180,1,right,2,4,1,0,1,0,9,3,75,5,,,,,,,,,428.9985934999995,429.49901599999976,430.2167819999995,None,429.51556809999965,430.19989759999953,430.71730389999993,None,right,1,0.3046544000007998,430.71730389999993,None,None,429.51556809999965,430.70062829999915,0.5119416000006822,0.5952526000000944,1.7135259000006045,1.7968398000002708,,,,,nat_2,001,2020_Jan_31_1432,posner,3.1.5,59.977568389574394,
0.5,180,1,right,2,4,1,0,1,0,9,4,76,6,,,,,,,,,431.0512396999993,431.5518269999993,432.2694866999991,None,431.5685719999992,432.25266979999924,432.7700520999997,None,right,1,0.29997309999998834,432.7700520999997,None,None,431.5685719999992,432.75336119999974,0.5120081000004575,0.5954780000001847,1.7135223000004771,1.7970799000004263,,,,,nat_2,001,2020_Jan_31_1432,posner,3.1.5,59.977568389574394,
-0.5,0,1,left,1,3,1,0,1,0,9,5,77,1,,,,,,,,,433.08805459999985,433.58801369999946,434.3055302999992,None,433.6045921999994,434.2888875999997,434.80630569999994,None,left,1,0.34372669999993377,434.80630569999994,None,None,433.6045921999994,434.78961359999994,0.5114843000001201,0.5947384000000966,1.7130623000002743,1.7964373000004343,,,,,nat_2,001,2020_Jan_31_1432,posner,3.1.5,59.977568389574394,
0.5,0,0,right,1,4,1,0,1,0,9,6,78,3,,,,,,,,,435.17423019999933,435.6740141999999,436.3917101999996,None,435.69071709999935,436.3752485999994,436.8922860999992,None,right,1,0.2897762000002331,436.8922860999992,None,None,435.69071709999935,436.8757452,0.5112863999993351,0.5946736999994755,1.7130101999991894,1.7964794999998048,,,,,nat_2,001,2020_Jan_31_1432,posner,3.1.5,59.977568389574394,
-0.5,0,1,left,1,3,1,0,1,0,9,7,79,0,,,,,,,,,437.21020149999913,437.7104754999991,438.4277489999995,None,437.7270931999992,438.41120539999974,438.92856629999915,None,left,1,0.34938619999957155,438.92856629999915,None,None,437.7270931999992,438.9117232999997,0.5121564000000944,0.5951684999999998,1.7133966999999757,1.7970326000004206,,,,,nat_2,001,2020_Jan_31_1432,posner,3.1.5,59.977568389574394,
0.5,180,1,right,2,4,1,0,1,0,10,0,80,7,,,,,,,,,439.2965762999993,439.79669249999915,440.5139718999999,None,439.81300549999924,440.4974257999993,441.0147909999996,None,right,1,0.32717740000043705,441.0147909999996,None,None,439.81300549999924,440.9981872999997,0.5116852999999537,0.5948828000000503,1.7131690999995044,1.7964731000001848,,,,,nat_2,001,2020_Jan_31_1432,posner,3.1.5,59.977568389574394,
0.5,180,1,right,2,4,1,0,1,0,10,1,81,5,,,,,,,,,441.3654712999996,441.8658055999995,442.5835141999996,None,441.8824651999994,442.5669676999996,443.0841380999991,None,right,1,0.4017684999998892,443.0841380999991,None,None,441.8824651999994,443.0675566,0.5122358999997232,0.5959069999998974,1.7139650999997684,1.7974162999998953,,,,,nat_2,001,2020_Jan_31_1432,posner,3.1.5,59.977568389574394,
0.5,0,0,right,1,4,1,0,1,0,10,2,82,3,,,,,,,,,443.5017012999997,444.0020999999997,444.71994749999976,None,444.0188666999993,444.7030601999995,445.2205357999992,None,right,1,0.31347049999931187,445.2205357999992,None,None,444.0188666999993,445.20386729999973,0.5119446000007883,0.5955980000007912,1.7136918000005608,1.797201500000483,,,,,nat_2,001,2020_Jan_31_1432,posner,3.1.5,59.977568389574394,
-0.5,0,1,left,1,3,1,0,1,0,10,3,83,0,,,,,,,,,445.55454949999967,446.05508069999996,446.7725668999992,None,446.07156959999975,446.75591929999973,447.2732905999992,None,left,1,0.27663050000046496,447.2732905999992,None,None,446.07156959999975,447.25675499999943,0.5115249999998923,0.5949112999996942,1.7131834000001618,1.7966947000004438,,,,,nat_2,001,2020_Jan_31_1432,posner,3.1.5,59.977568389574394,
-0.5,0,1,left,1,3,1,0,1,0,10,4,84,1,,,,,,,,,447.57473429999936,448.0745171999997,448.79196389999925,None,448.0911215999995,448.77544809999927,449.2928003999996,None,left,1,0.32110669999929087,449.2928003999996,None,None,448.0911215999995,449.27617009999994,0.5118296000000555,0.5953216999996584,1.7134475000002567,1.7968602000000828,,,,,nat_2,001,2020_Jan_31_1432,posner,3.1.5,59.977568389574394,
0.5,180,1,right,2,4,1,0,1,0,10,5,85,6,,,,,,,,,449.6440040999996,450.1441358999991,450.86152349999975,None,450.1606425,450.8450886999999,451.3621811999992,None,right,1,0.33178589999988617,451.3621811999992,None,None,450.1606425,451.34569569999985,0.5117709000005561,0.5949740000005477,1.7133068000002822,1.796740800000407,,,,,nat_2,001,2020_Jan_31_1432,posner,3.1.5,59.977568389574394,
-0.5,180,0,left,2,3,1,0,1,0,10,6,86,4,,,,,,,,,451.7133120999997,452.2133985999999,452.9309192999999,None,452.2303207999994,452.9144142999994,453.43165039999985,None,left,1,0.3102257999998983,453.43165039999985,None,None,452.2303207999994,453.4152409999997,0.5113814000005732,0.5950044000001071,1.7131910000007338,1.796538500000679,,,,,nat_2,001,2020_Jan_31_1432,posner,3.1.5,59.977568389574394,
-0.5,0,1,left,1,3,1,0,1,0,10,7,87,2,,,,,,,,,453.7666798999999,454.26639799999975,454.9839310999996,None,454.28296429999955,454.9672850999996,455.48464309999963,None,left,1,0.28924519999964104,455.48464309999963,None,None,454.28296429999955,455.46780879999915,0.511384000000362,0.5946123000003354,1.7127733999996053,1.7963853999999628,,,,,nat_2,001,2020_Jan_31_1432,posner,3.1.5,59.977568389574394,
,,,,,,1,0,1,0,,,,,,,,,,,,,,,,,,,,,,,,,,,,,,,,,455.8018063999998,None,1.359999987471383e-05,0.9965914000003977,nat_2,001,2020_Jan_31_1432,posner,3.1.5,59.977568389574394,
-0.5,0,1,left,1,3,2,0,2,0,0,0,0,1,1.2199999218864832e-05,0.09814859999914916,516.8190605,None,1.4999999621068127e-05,0.0977469999997993,518.9217406999996,None,519.2071868999992,519.7063592999993,520.4238109999997,None,519.7228310999999,520.4071574,520.9245922,None,left,1,0.3209439000002021,520.9245922,None,None,519.7228310999999,520.9080564999995,0.5079903999994713,0.5913681000001816,1.709672199999659,1.7929134999994858,,,,,nat_2,001,2020_Jan_31_1432,posner,3.1.5,59.977568389574394,
-0.5,180,0,left,2,3,2,0,2,0,0,1,1,4,,,,,,,,,521.2755416,521.7758672999998,522.4932689999996,None,521.7924266999999,522.4767654999996,522.9939988999995,None,left,1,0.3957986000004894,522.9939988999995,None,None,521.7924266999999,522.9775008999995,0.5110524000001533,0.5943716000001587,1.7126728000002913,1.7960379999994984,,,,,nat_2,001,2020_Jan_31_1432,posner,3.1.5,59.977568389574394,
0.5,0,0,right,1,4,2,0,2,0,0,2,2,3,,,,,,,,,523.4119887999996,523.9118383999994,524.6297533999996,None,523.9287943999998,524.6128248999994,525.1301847999994,None,right,1,0.291365300000507,525.1301847999994,None,None,523.9287943999998,525.1134995999992,0.5113561999996818,0.5950157999996009,1.712999000000309,1.796547400000236,,,,,nat_2,001,2020_Jan_31_1432,posner,3.1.5,59.977568389574394,
0.5,180,1,right,2,4,2,0,2,0,0,3,3,5,,,,,,,,,525.4479302,525.9481960999992,526.6657246999994,None,525.9650110999992,526.6491233999996,527.1665985,None,right,1,0.2869043000000602,527.1665985,None,None,525.9650110999992,527.1499369999992,0.5118509000003542,0.595157100000506,1.7135752000003777,1.7968272000007346,,,,,nat_2,001,2020_Jan_31_1432,posner,3.1.5,59.977568389574394,
-0.5,0,1,left,1,3,2,0,2,0,0,4,4,0,,,,,,,,,527.4839931999995,527.9844065999996,528.7018463999993,None,528.0008697999992,528.6854593999997,529.2025649999996,None,left,1,0.2669224999999642,529.2025649999996,None,None,528.0008697999992,529.1859218,0.5118931999995766,0.5949625000002925,1.71310960000028,1.7965366999997059,,,,,nat_2,001,2020_Jan_31_1432,posner,3.1.5,59.977568389574394,
-0.5,0,1,left,1,3,2,0,2,0,0,5,5,2,,,,,,,,,529.4873250999999,529.9870005999992,530.7048212,None,530.0036455,530.6881447999995,531.2053103999997,None,left,1,0.29616119999991497,531.2053103999997,None,None,530.0036455,531.1889723999993,0.5114363000002413,0.5949223000006896,1.7133865000005244,1.7964191999999457,,,,,nat_2,001,2020_Jan_31_1432,posner,3.1.5,59.977568389574394,
0.5,180,1,right,2,4,2,0,2,0,0,6,6,6,,,,,,,,,531.5229078999992,532.0232452999999,532.7406845999994,None,532.0398210999992,532.7240314999999,533.2413717,None,right,1,0.27610879999974713,533.2413717,None,None,532.0398210999992,533.2250569999997,0.5117012000000614,0.5949792999999772,1.7134902999996484,1.7968321999996988,,,,,nat_2,001,2020_Jan_31_1432,posner,3.1.5,59.977568389574394,
0.5,180,1,right,2,4,2,0,2,0,0,7,7,7,,,,,,,,,533.5431903999997,534.0426112999994,534.7602103999998,None,534.0594899999996,534.7435751999992,535.2608848,None,right,1,0.2727298999998311,535.2608848,None,None,534.0594899999996,535.2442883999993,0.5113467000001037,0.5949061000001166,1.7130031000006056,1.796979900000224,,,,,nat_2,001,2020_Jan_31_1432,posner,3.1.5,59.977568389574394,
0.5,180,1,right,2,4,2,0,2,0,1,0,8,6,,,,,,,,,535.5619345999994,536.0619277999995,536.7797570999992,None,536.0788120999996,536.7629528999996,537.2803682999993,None,right,1,0.2689240999998219,537.2803682999993,None,None,536.0788120999996,537.2635993999993,0.5114947000001848,0.595038299999942,1.7131560000007084,1.7969810000004145,,,,,nat_2,001,2020_Jan_31_1432,posner,3.1.5,59.977568389574394,
-0.5,180,0,left,2,3,2,0,2,0,1,1,9,4,,,,,,,,,537.5818707999997,538.0813849999995,538.7991159999992,None,538.0983278999993,538.7823939,539.2998797999999,None,left,1,0.26558099999965634,539.2998797999999,None,None,538.0983278999993,539.2832191999996,0.5113707000000431,0.5950050999999803,1.713185099999464,1.796548399999665,,,,,nat_2,001,2020_Jan_31_1432,posner,3.1.5,59.977568389574394,
0.5,0,0,right,1,4,2,0,2,0,1,2,10,3,,,,,,,,,539.5843796999998,540.0841806999997,540.8018198999998,None,540.1009052999998,540.7852405999993,541.3026301999998,None,right,1,0.29475229999934527,541.3026301999998,None,None,540.1009052999998,541.2860784999993,0.5115421000000424,0.5950983000002452,1.7134180000002743,1.7967437999996037,,,,,nat_2,001,2020_Jan_31_1432,posner,3.1.5,59.977568389574394,
0.5,180,1,right,2,4,2,0,2,0,1,3,11,5,,,,,,,,,541.6201711999993,542.1204468999995,542.8381501999993,None,542.1370554999994,542.8212565999993,543.3388791999996,None,right,1,0.24253690000023198,543.3388791999996,None,None,542.1370554999994,543.3218962999999,0.5117610999996032,0.5950315000000046,1.7132070999996358,1.7967767000000094,,,,,nat_2,001,2020_Jan_31_1432,posner,3.1.5,59.977568389574394,
0.5,180,1,right,2,4,2,0,2,0,1,4,12,7,,,,,,,,,543.6067384999997,544.1064530999993,544.8241513999992,None,544.1230290999993,544.8074245999996,545.3247571999991,None,right,1,0.2567877999999837,545.3247571999991,None,None,544.1230290999993,545.3082288999994,0.5113565999999992,0.5949254000006476,1.7131089000004067,1.7963927999999214,,,,,nat_2,001,2020_Jan_31_1432,posner,3.1.5,59.977568389574394,
-0.5,0,1,left,1,3,2,0,2,0,1,5,13,0,,,,,,,,,545.6088043,546.1093219999993,546.8268383999994,None,546.1259250999992,546.8100841999994,547.3275614999993,None,left,1,0.3018699000003835,547.3275614999993,None,None,546.1259250999992,547.3109423999995,0.512266599999748,0.5955285999998523,1.7138725000004342,1.797315200000412,,,,,nat_2,001,2020_Jan_31_1432,posner,3.1.5,59.977568389574394,
-0.5,0,1,left,1,3,2,0,2,0,1,6,14,1,,,,,,,,,547.6454306999995,548.1454259999991,548.8628412999997,None,548.1619036999991,548.8465171999997,549.3635218999998,None,left,1,0.29779559999951744,549.3635218999998,None,None,548.1619036999991,549.3470087999995,0.5116134999998394,0.5951183999995919,1.713193799999317,1.7965100999999777,,,,,nat_2,001,2020_Jan_31_1432,posner,3.1.5,59.977568389574394,
-0.5,0,1,left,1,3,2,0,2,0,1,7,15,2,,,,,,,,,549.6811842999996,550.1812714999996,550.8991687999996,None,550.1981974999999,550.8823575999995,551.3997970999999,None,left,1,0.34158099999967817,551.3997970999999,None,None,550.1981974999999,551.3830033999993,0.5117092999998931,0.5954757999998037,1.7134200999998939,1.7969179000001532,,,,,nat_2,001,2020_Jan_31_1432,posner,3.1.5,59.977568389574394,
-0.5,0,1,left,1,3,2,0,2,0,2,0,16,2,,,,,,,,,551.7675795999994,552.2678323,552.9854206,None,552.2843912999997,552.9686231999995,553.4860925999992,None,left,1,0.30327589999978954,553.4860925999992,None,None,552.2843912999997,553.4691994999994,0.5118399000002682,0.595027399999708,1.7132048000003124,1.7966421999999511,,,,,nat_2,001,2020_Jan_31_1432,posner,3.1.5,59.977568389574394,
0.5,0,0,right,1,4,2,0,2,0,2,1,17,3,,,,,,,,,553.8200074999995,554.3205258999997,555.0382038999996,None,554.3375136999994,555.0214274,555.5389704999998,None,right,1,0.2983909999993557,555.5389704999998,None,None,554.3375136999994,555.5224690999994,0.5118076999997356,0.5954690999997183,1.7137373999994452,1.7968872000001284,,,,,nat_2,001,2020_Jan_31_1432,posner,3.1.5,59.977568389574394,
0.5,180,1,right,2,4,2,0,2,0,2,2,18,5,,,,,,,,,555.8568482999999,556.3564989999995,557.0743815999995,None,556.3732554999997,557.0577604,557.5748156,None,right,1,0.2464922999997725,557.5748156,None,None,556.3732554999997,557.5585469999996,0.5112533000001349,0.5949301999999079,1.7132684999996854,1.7963106999995944,,,,,nat_2,001,2020_Jan_31_1432,posner,3.1.5,59.977568389574394,
-0.5,0,1,left,1,3,2,0,2,0,2,3,19,0,,,,,,,,,557.8426634999996,558.3427499,559.0604576999995,None,558.3595357999993,559.0436920999991,559.5610236999992,None,left,1,0.24479319999954896,559.5610236999992,None,None,558.3595357999993,559.5444834,0.5109342999994624,0.5943829999996524,1.7126450999994631,1.7959746999995332,,,,,nat_2,001,2020_Jan_31_1432,posner,3.1.5,59.977568389574394,
0.5,180,1,right,2,4,2,0,2,0,2,4,20,7,,,,,,,,,559.8289185999993,560.3288252999992,561.0463597999997,None,560.3454636999995,561.0297463999996,561.5471478,None,right,1,0.2742356999997355,561.5471478,None,None,560.3454636999995,561.5305867999996,0.5108641999995598,0.5940805999998702,1.7126179999995657,1.7960285999997723,,,,,nat_2,001,2020_Jan_31_1432,posner,3.1.5,59.977568389574394,
-0.5,0,1,left,1,3,2,0,2,0,2,5,21,1,,,,,,,,,561.8482613999995,562.3482258999993,563.0659751999992,None,562.3647669999991,563.0491585,563.5666109999993,None,left,1,0.25460259999999835,563.5666109999993,None,None,562.3647669999991,563.5497481999992,0.5116529999995691,0.5949362000001202,1.7131607999999687,1.7966065000000526,,,,,nat_2,001,2020_Jan_31_1432,posner,3.1.5,59.977568389574394,
0.5,180,1,right,2,4,2,0,2,0,2,6,22,6,,,,,,,,,563.8504965999991,564.3508773999993,565.0686407999992,None,564.3677106999994,565.0518284,565.5692814999993,None,right,1,0.284182299999884,565.5692814999993,None,None,564.3677106999994,565.5525165999998,0.5117811999998594,0.5954375000001164,1.7134083000000828,1.796883699999853,,,,,nat_2,001,2020_Jan_31_1432,posner,3.1.5,59.977568389574394,
-0.5,180,0,left,2,3,2,0,2,0,2,7,23,4,,,,,,,,,565.8702208999994,566.3703436999995,567.0882044999998,None,566.3869772999997,567.0712154999992,567.5891113999996,None,left,1,0.32844659999955184,567.5891113999996,None,None,566.3869772999997,567.5718864999999,0.5116048999998384,0.5949616999996579,1.7131320999997115,1.7968205999995916,,,,,nat_2,001,2020_Jan_31_1432,posner,3.1.5,59.977568389574394,
-0.5,180,0,left,2,3,2,0,2,0,3,0,24,4,,,,,,,,,567.9399704999996,568.4399294999994,569.1574987999993,None,568.4566531999999,569.1411079,569.6583438999996,None,left,1,0.32302880000042933,569.6583438999996,None,None,568.4566531999999,569.6414349999995,0.5115995999994993,0.5949812999997448,1.713082199999917,1.7966439000001628,,,,,nat_2,001,2020_Jan_31_1432,posner,3.1.5,59.977568389574394,
-0.5,0,1,left,1,3,2,0,2,0,3,1,25,1,,,,,,,,,570.0091997,570.5093461999995,571.2270765999992,None,570.5265236999994,571.2102681999995,571.7276433999996,None,left,1,0.31764969999949244,571.7276433999996,None,None,570.5265236999994,571.7110672999997,0.5117556999994122,0.5952657999996518,1.7134579999992638,1.7968934999998964,,,,,nat_2,001,2020_Jan_31_1432,posner,3.1.5,59.977568389574394,
0.5,180,1,right,2,4,2,0,2,0,3,2,26,6,,,,,,,,,572.0623023999997,572.5621509999992,573.2798515999993,None,572.5790086999996,573.2630901999992,573.7805681,None,right,1,0.3289788000001863,573.7805681,None,None,572.5790086999996,573.7639365999994,0.5114093000001958,0.5950764999997773,1.7134501999998974,1.7966833999998926,,,,,nat_2,001,2020_Jan_31_1432,posner,3.1.5,59.977568389574394,
-0.5,0,1,left,1,3,2,0,2,0,3,3,27,2,,,,,,,,,574.1318044,574.6316046999991,575.3495633999992,None,574.6484400999998,575.3325915999994,575.8499201999994,None,left,1,0.30750820000048407,575.8499201999994,None,None,574.6484400999998,575.8333135999992,0.5112075000006371,0.5949227999999493,1.712916000000405,1.7963573000006363,,,,,nat_2,001,2020_Jan_31_1432,posner,3.1.5,59.977568389574394,
0.5,180,1,right,2,4,2,0,2,0,3,4,28,7,,,,,,,,,576.1845825999999,576.6844838999996,577.4021410999994,None,576.7012398999996,577.3856417999996,577.9027962,None,right,1,0.31846479999967414,577.9027962,None,None,576.7012398999996,577.8864272999999,0.5117018999999345,0.5952704000001177,1.713621900000362,1.796664100000271,,,,,nat_2,001,2020_Jan_31_1432,posner,3.1.5,59.977568389574394,
-0.5,0,1,left,1,3,2,0,2,0,3,5,29,0,,,,,,,,,578.2374508999992,578.737451,579.4551777999995,None,578.7540838999994,579.4383806999995,579.9559454999999,None,left,1,0.2812960999999632,579.9559454999999,None,None,578.7540838999994,579.9392914999999,0.5116799999996147,0.5949706000001243,1.7134991000002628,1.7969410000005155,,,,,nat_2,001,2020_Jan_31_1432,posner,3.1.5,59.977568389574394,
0.5,180,1,right,2,4,2,0,2,0,3,6,30,5,,,,,,,,,580.2570086999995,580.7569608999993,581.4743577999998,None,580.7734876999994,581.4578287999993,581.9752498999997,None,right,1,0.2780203000002075,581.9752498999997,None,None,580.7734876999994,581.9585217999993,0.5113722999994934,0.5946537999998327,1.7129104999994524,1.7962564999997994,,,,,nat_2,001,2020_Jan_31_1432,posner,3.1.5,59.977568389574394,
0.5,0,0,right,1,4,2,0,2,0,3,7,31,3,,,,,,,,,582.2761839999994,582.7763104999995,583.4939149999991,None,582.7929135999993,583.4772915999993,583.9945785,None,right,1,0.33855789999961416,583.9945785,None,None,582.7929135999993,583.9779712,0.5115459000007831,0.5948119000004226,1.7131997000005867,1.796472800000629,,,,,nat_2,001,2020_Jan_31_1432,posner,3.1.5,59.977568389574394,
0.5,180,1,right,2,4,2,0,2,0,4,0,32,7,,,,,,,,,584.3626104999994,584.8624182999993,585.5800380999999,None,584.8791411999991,585.5633167999995,586.0805871999992,None,right,1,0.300844500000494,586.0805871999992,None,None,584.8791411999991,586.0642334999993,0.5114331000004313,0.5949725000000399,1.7132373000004009,1.7966120999999475,,,,,nat_2,001,2020_Jan_31_1432,posner,3.1.5,59.977568389574394,
0.5,0,0,right,1,4,2,0,2,0,4,1,33,3,,,,,,,,,586.3982489999999,586.8987148999995,587.6161564999993,None,586.9152661999997,587.5995836999991,588.1170131999997,None,right,1,0.3121672999996008,588.1170131999997,None,None,586.9152661999997,588.1000718999994,0.512032999999974,0.5953143999995518,1.713378499999635,1.7971559999996316,,,,,nat_2,001,2020_Jan_31_1432,posner,3.1.5,59.977568389574394,
-0.5,0,1,left,1,3,2,0,2,0,4,2,34,0,,,,,,,,,588.4509794999994,588.9513680999999,589.6690439999993,None,588.9682256999995,589.6523914999998,590.1697755999994,None,left,1,0.3394973000004029,590.1697755999994,None,None,588.9682256999995,590.1530315,0.5120148000005429,0.5955991000000722,1.7136602999999013,1.7972030999999333,,,,,nat_2,001,2020_Jan_31_1432,posner,3.1.5,59.977568389574394,
0.5,180,1,right,2,4,2,0,2,0,4,3,35,5,,,,,,,,,590.5375173999992,591.0378546999991,591.7554414999995,None,591.0542744999993,591.7386420999992,592.2560060999995,None,right,1,0.31726979999984906,592.2560060999995,None,None,591.0542744999993,592.2393801999997,0.512167099999715,0.5951586000001043,1.7136666999995214,1.7969309999998586,,,,,nat_2,001,2020_Jan_31_1432,posner,3.1.5,59.977568389574394,
-0.5,180,0,left,2,3,2,0,2,0,4,4,36,4,,,,,,,,,592.5905145999996,593.0903784999991,593.8082624999997,None,593.1073174999992,593.7912571999996,594.3088591999995,None,left,1,0.3603285999997752,594.3088591999995,None,None,593.1073174999992,594.2918461999998,0.5117727999995623,0.5953143999995518,1.713232600000083,1.7971856000003754,,,,,nat_2,001,2020_Jan_31_1432,posner,3.1.5,59.977568389574394,
-0.5,0,1,left,1,3,2,0,2,0,4,5,37,1,,,,,,,,,594.6932043999996,595.1931947999992,595.9108148999994,None,595.2099503999998,595.8944787999999,596.4116201999996,None,left,1,0.3214983999996548,596.4116201999996,None,None,595.2099503999998,596.3948946999999,0.5115242000001672,0.595035999999709,1.7131857000003947,1.7966298999999708,,,,,nat_2,001,2020_Jan_31_1432,posner,3.1.5,59.977568389574394,
-0.5,0,1,left,1,3,2,0,2,0,4,6,38,2,,,,,,,,,596.7626009999994,597.2626674999992,597.9804107,None,597.2795478999997,597.9640748999991,598.4810387999996,None,left,1,0.3160991999993712,598.4810387999996,None,None,597.2795478999997,598.4645895999993,0.511307200000374,0.5950528000003033,1.7132080000001224,1.7964358999997785,,,,,nat_2,001,2020_Jan_31_1432,posner,3.1.5,59.977568389574394,
0.5,180,1,right,2,4,2,0,2,0,4,7,39,6,,,,,,,,,598.8156573999995,599.3157097999992,600.0332362999998,None,599.3323002999996,600.0165703999992,600.5339166999993,None,right,1,0.3592192000005525,600.5339166999993,None,None,599.3323002999996,600.5173009999999,0.5114399000003687,0.5949292000004789,1.7130292000001646,1.7962812000005215,,,,,nat_2,001,2020_Jan_31_1432,posner,3.1.5,59.977568389574394,
-0.5,0,1,left,1,3,2,0,2,0,5,0,40,2,,,,,,,,,600.9183688999992,601.4185066,602.1362872999998,None,601.4352924999994,602.1194596999994,602.6369204999992,None,left,1,0.2880649999997331,602.6369204999992,None,None,601.4352924999994,602.6201309999997,0.5116997999994055,0.5950626999992892,1.7133035999995627,1.7968492999998489,,,,,nat_2,001,2020_Jan_31_1432,posner,3.1.5,59.977568389574394,
-0.5,0,1,left,1,3,2,0,2,0,5,1,41,0,,,,,,,,,602.9547968999996,603.4547823999992,604.1723026999998,None,603.4713328999997,604.1556965,604.6729147999995,None,left,1,0.3481439999995928,604.6729147999995,None,None,603.4713328999997,604.6563644999997,0.5116677000005438,0.5950528000003033,1.7132346999997026,1.7966996000004656,,,,,nat_2,001,2020_Jan_31_1432,posner,3.1.5,59.977568389574394,
0.5,180,1,right,2,4,2,0,2,0,5,2,42,5,,,,,,,,,605.0410960999998,605.5408041999999,606.2585326999997,None,605.5577504999992,606.2417456999992,606.7591070999997,None,right,1,0.3260446000003867,606.7591070999997,None,None,605.5577504999992,606.7423982999999,0.5114094999998997,0.5948837000005369,1.7129899000001387,1.7966043000005811,,,,,nat_2,001,2020_Jan_31_1432,posner,3.1.5,59.977568389574394,
0.5,180,1,right,2,4,2,0,2,0,5,3,43,6,,,,,,,,,607.1102265999998,607.6103539999995,608.3280198999992,None,607.6272454,608.3113179999991,608.8287766999993,None,right,1,0.30431529999987106,608.8287766999993,None,None,607.6272454,608.8120589999999,0.5116818000005878,0.5953240000008009,1.7133733000000575,1.7968412000000171,,,,,nat_2,001,2020_Jan_31_1432,posner,3.1.5,59.977568389574394,
-0.5,0,1,left,1,3,2,0,2,0,5,4,44,1,,,,,,,,,609.1630410999996,609.6631282999997,610.3806901999997,None,609.6798511999996,610.3644099999992,610.8814482999996,None,left,1,0.25161190000017086,610.8814482999996,None,None,609.6798511999996,610.8649212999999,0.5115657999995165,0.5949965999998312,1.713324399999692,1.7970001000003322,,,,,nat_2,001,2020_Jan_31_1432,posner,3.1.5,59.977568389574394,
0.5,0,0,right,1,4,2,0,2,0,5,5,45,3,,,,,,,,,611.1491550999999,611.6492798999998,612.3669193999995,None,611.6660566999999,612.3501144999991,612.8674954999997,None,right,1,0.3135969999993904,612.8674954999997,None,None,611.6660566999999,612.8508658999999,0.5118038999999044,0.5951373999996576,1.7133705999995072,1.7969316999997318,,,,,nat_2,001,2020_Jan_31_1432,posner,3.1.5,59.977568389574394,
-0.5,180,0,left,2,3,2,0,2,0,5,6,46,4,,,,,,,,,613.2021952999994,613.7020784999995,614.4196503999992,None,613.7188756999994,614.4028626999998,614.9204606999992,None,left,1,0.3084509000000253,614.9204606999992,None,None,613.7188756999994,614.9037018999998,0.5113714999997683,0.5950892000000749,1.7129901999996946,1.7965355999995154,,,,,nat_2,001,2020_Jan_31_1432,posner,3.1.5,59.977568389574394,
0.5,180,1,right,2,4,2,0,2,0,5,7,47,7,,,,,,,,,615.2548230999992,615.7548451999992,616.4724612,None,615.7715319999998,616.4560468,616.9731675999992,None,right,1,0.27174290000039036,616.9731675999992,None,None,615.7715319999998,616.9565925999996,0.5115663000005952,0.5951906000000236,1.713281199999983,1.7968049000000974,,,,,nat_2,001,2020_Jan_31_1432,posner,3.1.5,59.977568389574394,
0.5,180,1,right,2,4,2,0,2,0,6,0,48,5,,,,,,,,,617.2742642999992,617.7743775999998,618.4918699,None,617.7909296999997,618.4753606999993,618.9925540999993,None,right,1,0.2843677000000753,618.9925540999993,None,None,617.7909296999997,618.9760166999995,0.5113122000002477,0.5947957999997016,1.7129383999999845,1.7964031000001341,,,,,nat_2,001,2020_Jan_31_1432,posner,3.1.5,59.977568389574394,
0.5,180,1,right,2,4,2,0,2,0,6,1,49,6,,,,,,,,,619.2931628999995,619.7937213999994,620.5114206999997,None,619.8104432999999,620.4947184999992,621.0119923999991,None,right,1,0.31302229999982956,621.0119923999991,None,None,619.8104432999999,620.9954355,0.512680900000305,0.5958645999999135,1.714088000000629,1.7975923000003604,,,,,nat_2,001,2020_Jan_31_1432,posner,3.1.5,59.977568389574394,
-0.5,0,1,left,1,3,2,0,2,0,6,2,50,1,,,,,,,,,621.3465706999996,621.8466024999998,622.564402,None,621.8631557999997,622.5476641999994,623.0649765999997,None,left,1,0.22802769999998418,623.0649765999997,None,None,621.8631557999997,623.0483146999995,0.5115479999994932,0.5950063000000227,1.7132215999999971,1.796454399999675,,,,,nat_2,001,2020_Jan_31_1432,posner,3.1.5,59.977568389574394,
-0.5,180,0,left,2,3,2,0,2,0,6,3,51,4,,,,,,,,,623.3160344999997,623.8159696999992,624.5335489999998,None,623.8325181999999,624.5171857999994,625.0344649999997,None,left,1,0.33864790000006906,625.0344649999997,None,None,623.8325181999999,625.0175362999998,0.5113663000001907,0.5947087999993528,1.712919900000088,1.796261599999525,,,,,nat_2,001,2020_Jan_31_1432,posner,3.1.5,59.977568389574394,
-0.5,0,1,left,1,3,2,0,2,0,6,4,52,2,,,,,,,,,625.4022986999998,625.9020548999997,626.6198834999996,None,625.9188784999997,626.6031987999995,627.1204401999994,None,left,1,0.2844841999994969,627.1204401999994,None,None,625.9188784999997,627.1038268999991,0.5116267000003063,0.5952572999995027,1.7133900999997422,1.7970366999998078,,,,,nat_2,001,2020_Jan_31_1432,posner,3.1.5,59.977568389574394,
-0.5,0,1,left,1,3,2,0,2,0,6,5,53,0,,,,,,,,,627.4216073999996,627.9216225,628.6395613999994,None,627.9383814999992,628.6226025999995,629.1399781,None,left,1,0.28104069999972126,629.1399781,None,None,627.9383814999992,629.1237428999993,0.5114644000004773,0.5949239000001398,1.7135494000003746,1.7965510000003633,,,,,nat_2,001,2020_Jan_31_1432,posner,3.1.5,59.977568389574394,
0.5,180,1,right,2,4,2,0,2,0,6,6,54,7,,,,,,,,,629.4410878999997,629.9411145999993,630.6585941999992,None,629.9577480999997,630.6419379999998,631.1595338999996,None,right,1,0.3093890999998621,631.1595338999996,None,None,629.9577480999997,631.1424950999999,0.5115333000003375,0.5954474999998638,1.7129032000002553,1.796498800000336,,,,,nat_2,001,2020_Jan_31_1432,posner,3.1.5,59.977568389574394,
0.5,0,0,right,1,4,2,0,2,0,6,7,55,3,,,,,,,,,631.4936554999995,631.9938702999998,632.7114456999998,None,632.0105092999993,632.6951079999999,633.2120954999991,None,right,1,0.3208686999996644,633.2120954999991,None,None,632.0105092999993,633.1956627,0.5117440000003626,0.5952796000001399,1.7134863000001133,1.7967773000000307,,,,,nat_2,001,2020_Jan_31_1432,posner,3.1.5,59.977568389574394,
0.5,180,1,right,2,4,2,0,2,0,7,0,56,7,,,,,,,,,633.5633110999997,634.0634789999995,634.7809689999995,None,634.0800476999993,634.7643890999998,635.2816643999995,None,right,1,0.34732460000032006,635.2816643999995,None,None,634.0800476999993,635.2652359999993,0.5117222999997466,0.5949899999995978,1.7134373999997479,1.79665870000008,,,,,nat_2,001,2020_Jan_31_1432,posner,3.1.5,59.977568389574394,
-0.5,0,1,left,1,3,2,0,2,0,7,1,57,0,,,,,,,,,635.6494563999995,636.1495295999994,636.8673130999996,None,636.1663861999996,636.8505336999997,637.3680342999996,None,left,1,0.2769676999996591,637.3680342999996,None,None,636.1663861999996,637.3511319999998,0.511001099999703,0.5944256000002497,1.7125759000000471,1.7961490999996386,,,,,nat_2,001,2020_Jan_31_1432,posner,3.1.5,59.977568389574394,
-0.5,0,1,left,1,3,2,0,2,0,7,2,58,2,,,,,,,,,637.6688722999997,638.1691820999995,638.8868342999995,None,638.1858046999996,638.8700387999997,639.3876193999995,None,left,1,0.27338890000009997,639.3876193999995,None,None,638.1858046999996,639.3706353999996,0.5118704000005891,0.595080300000518,1.7132288000002518,1.7968423000002076,,,,,nat_2,001,2020_Jan_31_1432,posner,3.1.5,59.977568389574394,
0.5,180,1,right,2,4,2,0,2,0,7,3,59,5,,,,,,,,,639.6880705999993,640.188717,640.9060112999996,None,640.2051536999998,640.8897290999994,641.4068998999992,None,right,1,0.3342605999996522,641.4068998999992,None,None,640.2051536999998,641.3902202999998,0.5122478999992381,0.5954046999995626,1.7137438999998267,1.7974327999991146,,,,,nat_2,001,2020_Jan_31_1432,posner,3.1.5,59.977568389574394,
-0.5,180,0,left,2,3,2,0,2,0,7,4,60,4,,,,,,,,,641.7578791999995,642.2579758999991,642.9757667999993,None,642.2747874999995,642.9590407999995,643.4762817999999,None,left,1,0.3449599000005037,643.4762817999999,None,None,642.2747874999995,643.4596392999993,0.5116924000003564,0.595066200000474,1.7133239000004323,1.796725900000638,,,,,nat_2,001,2020_Jan_31_1432,posner,3.1.5,59.977568389574394,
0.5,180,1,right,2,4,2,0,2,0,7,5,61,6,,,,,,,,,643.8436750999999,644.3442788999992,645.0617513999996,None,644.3608119999999,645.0451635999998,645.5624247999995,None,right,1,0.33856399999967834,645.5624247999995,None,None,644.3608119999999,645.5459897999999,0.5114503000004333,0.5948599000003014,1.713138500000241,1.7966653000003134,,,,,nat_2,001,2020_Jan_31_1432,posner,3.1.5,59.977568389574394,
-0.5,0,1,left,1,3,2,0,2,0,7,6,62,1,,,,,,,,,645.9300724999994,646.4302677999995,647.1479421999993,None,646.4471602999993,647.1311551999997,647.6486216999992,None,left,1,0.3002921999996033,647.6486216999992,None,None,646.4471602999993,647.6319409999996,0.5116515999998228,0.5954111000000921,1.7133098000003883,1.7969536999999036,,,,,nat_2,001,2020_Jan_31_1432,posner,3.1.5,59.977568389574394,
0.5,0,0,right,1,4,2,0,2,0,7,7,63,3,,,,,,,,,647.9666025999995,648.4664719999992,649.1842445999991,None,648.4831096999997,649.1677198999996,649.6851215999995,None,right,1,0.3437789999998131,649.6851215999995,None,None,648.4831096999997,649.6682572999998,0.5112731999997777,0.5947244999997565,1.7130346000003556,1.796468300000015,,,,,nat_2,001,2020_Jan_31_1432,posner,3.1.5,59.977568389574394,
0.5,0,0,right,1,4,2,0,2,0,8,0,64,3,,,,,,,,,650.0525282999997,650.5526586999995,651.2702808999993,None,650.5693910999998,651.2537982999993,651.7710417999997,None,right,1,0.3216640999999072,651.7710417999997,None,None,650.5693910999998,651.7544441999999,0.5113639999999577,0.5949952999999368,1.7131281000001763,1.7967554000006203,,,,,nat_2,001,2020_Jan_31_1432,posner,3.1.5,59.977568389574394,
0.5,180,1,right,2,4,2,0,2,0,8,1,65,7,,,,,,,,,652.1218988999999,652.6221442999995,653.3401630999997,None,652.6391471999996,653.3230224999998,653.8405597999999,None,right,1,0.30031980000057956,653.8405597999999,None,None,652.6391471999996,653.8240748999997,0.5114059000006819,0.5949049999999261,1.7133056000002398,1.7965917000001355,,,,,nat_2,001,2020_Jan_31_1432,posner,3.1.5,59.977568389574394,
-0.5,0,1,left,1,3,2,0,2,0,8,2,66,2,,,,,,,,,654.1584735999995,654.6583939999991,655.3760121999994,None,654.6751159999994,655.3593478999992,655.8767915999997,None,left,1,0.3440565000000788,655.8767915999997,None,None,654.6751159999994,655.8600066999998,0.5112696000005599,0.5945642000006046,1.7128661000006105,1.7964006000001973,,,,,nat_2,001,2020_Jan_31_1432,posner,3.1.5,59.977568389574394,
-0.5,0,1,left,1,3,2,0,2,0,8,3,67,1,,,,,,,,,656.2447083999996,656.7446155999996,657.4621824999995,None,656.7612601999999,657.4455656999999,657.9627977999999,None,left,1,0.3860818000002837,657.9627977999999,None,None,656.7612601999999,657.9462582999995,0.511549400000149,0.5949804000001677,1.7131766000002244,1.7973072000004322,,,,,nat_2,001,2020_Jan_31_1432,posner,3.1.5,59.977568389574394,
0.5,180,1,right,2,4,2,0,2,0,8,4,68,5,,,,,,,,,658.3647034999995,658.8642774999998,659.5817382999994,None,658.8808262999992,659.5652405999999,660.082488,None,right,1,0.29830309999942983,660.082488,None,None,658.8808262999992,660.0659733999992,0.5116495000002033,0.5949016000004121,1.7133245000004536,1.7966407000003528,,,,,nat_2,001,2020_Jan_31_1432,posner,3.1.5,59.977568389574394,
-0.5,180,0,left,2,3,2,0,2,0,8,5,69,4,,,,,,,,,660.4001417,660.9001517999995,661.6177736,None,660.9169622999998,661.6010017999997,662.1188447999994,None,left,1,0.3419962999996642,662.1188447999994,None,None,660.9169622999998,662.1019111999994,0.511504000000059,0.5952084999998988,1.713257800000065,1.7969015999997282,,,,,nat_2,001,2020_Jan_31_1432,posner,3.1.5,59.977568389574394,
-0.5,0,1,left,1,3,2,0,2,0,8,6,70,0,,,,,,,,,662.4866438999998,662.9866431999999,663.7042016999994,None,663.0031216999996,663.6876526999995,664.2048883999996,None,left,1,0.31983970000055706,664.2048883999996,None,None,663.0031216999996,664.1882093999993,0.5115955000001122,0.5947122000006857,1.713151700000708,1.7963995999998588,,,,,nat_2,001,2020_Jan_31_1432,posner,3.1.5,59.977568389574394,
0.5,180,1,right,2,4,2,0,2,0,8,7,71,6,,,,,,,,,664.5558114999994,665.0559895999995,665.7736611999999,None,665.0726528999994,665.7569344999993,666.2743584,None,right,1,0.29843909999999596,666.2743584,None,None,665.0726528999994,666.2576786999998,0.5115001000003758,0.5950942999998006,1.713184100000035,1.7965855000002193,,,,,nat_2,001,2020_Jan_31_1432,posner,3.1.5,59.977568389574394,
0.5,180,1,right,2,4,2,0,2,0,9,0,72,5,,,,,,,,,666.5918028999995,667.0919893999999,667.8097158999999,None,667.1090075999991,667.7930276999996,668.3103456999997,None,right,1,0.3264195000001564,668.3103456999997,None,None,667.1090075999991,668.2938006999993,0.5119641000001138,0.5955243999997037,1.7137534000003143,1.7972718999999415,,,,,nat_2,001,2020_Jan_31_1432,posner,3.1.5,59.977568389574394,
-0.5,180,0,left,2,3,2,0,2,0,9,1,73,4,,,,,,,,,668.661204,669.1613936999993,669.8793682999994,None,669.1783458,669.8626087999992,670.3799368,None,left,1,0.352754399999867,670.3799368,None,None,669.1783458,670.3633334999995,0.5116532000001826,0.5953887999994549,1.7135737999997218,1.7970212999998694,,,,,nat_2,001,2020_Jan_31_1432,posner,3.1.5,59.977568389574394,
-0.5,0,1,left,1,3,2,0,2,0,9,2,74,1,,,,,,,,,670.7641269999995,671.2646148999993,671.9821256999994,None,671.2810141,671.9655949999997,672.4827273999999,None,left,1,0.20199370000045747,672.4827273999999,None,None,671.2810141,672.4663183999992,0.5118286999995689,0.5953595999999379,1.7135092999997141,1.7967681999998604,,,,,nat_2,001,2020_Jan_31_1432,posner,3.1.5,59.977568389574394,
