targetX,cueOri,congr,corrAns,pin_cue,pin_target,block.thisRepN,block.thisTrialN,block.thisN,block.thisIndex,posner_task.thisRepN,posner_task.thisTrialN,posner_task.thisN,posner_task.thisIndex,port_start_block.started,port_start_block.stopped,text_2.started,text_2.stopped,p_port.started,p_port.stopped,text.started,text.stopped,fixation_1.started,fixation_1.stopped,fixation_2.started,fixation_2.stopped,cue.started,cue.stopped,target.started,target.stopped,correct_key_resp.keys,correct_key_resp.corr,correct_key_resp.rt,correct_key_resp.started,correct_key_resp.stopped,early_resp.keys,early_resp.started,early_resp.stopped,trigger_cue.started,trigger_cue.stopped,trigger_target.started,trigger_target.stopped,early_resp.rt,break_text.started,break_text.stopped,end_port.started,end_port.stopped,participant,session,date,expName,psychopyVersion,frameRate,
-0.5,180,0,left,2,3,0,0,0,0,0,0,0,4,1.7299999854003545e-05,0.09333960000003572,23.763345700000173,None,1.469999915570952e-05,0.0996274999997695,25.649403299999904,None,25.989435600000434,26.5000555000006,27.20123860000058,None,26.5000555000006,27.184613200000058,27.701892099999895,None,left,1,0.32783309999922494,27.701892099999895,None,None,26.5000555000006,27.685367300000507,0.5034873999993579,0.603610099999969,1.7051117000000886,1.788326899999447,,,,,,prithik_3,001,2020_Feb_05_1248,posner,3.1.5,59.95401527031515,
0.5,180,1,right,2,4,0,0,0,0,0,1,1,5,,,,,,,,,28.053045499999826,28.553306599999814,29.27064530000007,None,28.569662300000346,29.255020200000217,29.77145660000042,None,right,1,0.2817672000001039,29.77145660000042,None,None,28.569662300000346,29.75507259999995,0.5111369999995077,0.5942697000000408,1.7128830000001471,1.7960017999994307,,,,,,prithik_3,001,2020_Feb_05_1248,posner,3.1.5,59.95401527031515,
-0.5,0,1,left,1,3,0,0,0,0,0,2,2,1,,,,,,,,,30.0723323000002,30.572585700000673,31.290211100000306,None,30.58914890000051,31.273598499999935,31.790908699999818,None,left,1,0.29410099999950035,31.790908699999818,None,None,30.58914890000051,31.774140100000295,0.5122328999996171,0.595661299999847,1.7137714000000415,1.7971624000001611,,,,,,prithik_3,001,2020_Feb_05_1248,posner,3.1.5,59.95401527031515,
0.5,180,1,right,2,4,0,0,0,0,0,3,3,7,,,,,,,,,32.10939690000032,32.60846399999991,33.32658470000024,None,32.625410399999964,33.30951569999979,33.827153799999905,None,right,1,0.2659654999997656,33.827153799999905,None,None,32.625410399999964,33.81050779999987,0.5110619000006409,0.5948333000005732,1.7130852000000232,1.796444600000541,,,,,,prithik_3,001,2020_Feb_05_1248,posner,3.1.5,59.95401527031515,
-0.5,0,1,left,1,3,0,0,0,0,0,4,4,0,,,,,,,,,34.111815000000206,34.61143859999993,35.328929000000244,None,34.62811790000069,35.312553200000366,35.82971450000059,None,left,1,0.30345219999981055,35.82971450000059,None,None,34.62811790000069,35.81314019999991,0.511487899999338,0.5948931999992055,1.713165599999229,1.7966930999991746,,,,,,prithik_3,001,2020_Feb_05_1248,posner,3.1.5,59.95401527031515,
0.5,180,1,right,2,4,0,0,0,0,0,5,5,6,,,,,,,,,36.16406670000015,36.66439129999981,37.38197620000028,None,36.68083110000043,37.365128299999924,37.88270350000039,None,right,1,0.2824854000000414,37.88270350000039,None,None,36.68083110000043,37.86594849999983,0.5115874000002805,0.594895400000496,1.7131337999999232,1.7964375000001382,,,,,,prithik_3,001,2020_Feb_05_1248,posner,3.1.5,59.95401527031515,
0.5,0,0,right,1,4,0,0,0,0,0,6,6,3,,,,,,,,,38.1838142000006,38.68382660000043,39.40152760000001,None,38.70039710000037,39.38474039999983,39.90210540000044,None,right,1,0.3109411999994336,39.90210540000044,None,None,38.70039710000037,39.885461200000464,0.5113307999999961,0.594603499999721,1.7129488000000492,1.7960868000000119,,,,,,prithik_3,001,2020_Feb_05_1248,posner,3.1.5,59.95401527031515,
-0.5,0,1,left,1,3,0,0,0,0,0,7,7,2,,,,,,,,,40.23659720000069,40.73679440000069,41.454372799999874,None,40.75362660000064,41.43736340000032,41.95477710000068,None,left,1,0.2503357999994478,41.95477710000068,None,None,40.75362660000064,41.938009200000124,0.5120254000003115,0.5951076000001194,1.713218400000187,1.7970488999999361,,,,,,prithik_3,001,2020_Feb_05_1248,posner,3.1.5,59.95401527031515,
-0.5,0,1,left,1,3,0,0,0,0,1,0,8,2,,,,,,,,,42.222227600000224,42.72255899999982,43.44007310000052,None,42.73928840000008,43.42369560000043,43.94087649999983,None,left,1,0.2802873999999065,43.94087649999983,None,None,42.73928840000008,43.9241806,0.5122196000002077,0.595925000000534,1.7138171000005968,1.7971873000005871,,,,,,prithik_3,001,2020_Feb_05_1248,posner,3.1.5,59.95401527031515,
0.5,0,0,right,1,4,0,0,0,0,1,1,9,3,,,,,,,,,44.24230720000014,44.74209450000035,45.45955950000007,None,44.7586867,45.4431381000004,45.96031480000056,None,right,1,0.24493939999956638,45.96031480000056,None,None,44.7586867,45.94366770000033,0.511466300000393,0.5948786000008113,1.71301399999993,1.7964214000003267,,,,,,prithik_3,001,2020_Feb_05_1248,posner,3.1.5,59.95401527031515,
-0.5,0,1,left,1,3,0,0,0,0,1,2,10,1,,,,,,,,,46.22828990000016,46.728084400000625,47.44590470000003,None,46.7448473000004,47.42899320000015,47.9468453999998,None,left,1,0.24225329999990208,47.9468453999998,None,None,46.7448473000004,47.92966280000019,0.511406700000407,0.5950308999999834,1.712970700000369,1.7964708999998038,,,,,,prithik_3,001,2020_Feb_05_1248,posner,3.1.5,59.95401527031515,
-0.5,0,1,left,1,3,0,0,0,0,1,3,11,0,,,,,,,,,48.214054600000054,48.71417780000047,49.43183880000015,None,48.73093710000012,49.41502450000007,49.93267350000042,None,left,1,0.3364370000008421,49.93267350000042,None,None,48.73093710000012,49.91603260000011,0.511748400000215,0.5950706000003265,1.7135863000003155,1.7968392000002495,,,,,,prithik_3,001,2020_Feb_05_1248,posner,3.1.5,59.95401527031515,
0.5,180,1,right,2,4,0,0,0,0,1,4,12,6,,,,,,,,,50.30022580000059,50.80028250000032,51.51797189999979,None,50.817121200000656,51.50127640000028,52.01855290000003,None,right,1,0.2665751000004093,52.01855290000003,None,None,50.817121200000656,52.00218820000009,0.5116834000000381,0.5952331999997114,1.7135668000000805,1.7968259999997827,,,,,,prithik_3,001,2020_Feb_05_1248,posner,3.1.5,59.95401527031515,
0.5,180,1,right,2,4,0,0,0,0,1,5,13,7,,,,,,,,,52.30352519999997,52.803186500000265,53.52082980000068,None,52.81979980000051,53.50392499999998,54.02180060000046,None,right,1,0.391259899999568,54.02180060000046,None,None,52.81979980000051,54.0047297000001,0.5109527999993588,0.5943420999992668,1.7124770999998873,1.7958610999994562,,,,,,prithik_3,001,2020_Feb_05_1248,posner,3.1.5,59.95401527031515,
0.5,180,1,right,2,4,0,0,0,0,1,6,14,5,,,,,,,,,54.43873090000034,54.93920810000054,55.65682220000053,None,54.95618590000049,55.640332099999796,56.15793240000039,None,right,1,0.31913840000015625,56.15793240000039,None,None,54.95618590000049,56.14123259999997,0.5120280999999522,0.5958197999998447,1.7140316000004532,1.7974466000005123,,,,,,prithik_3,001,2020_Feb_05_1248,posner,3.1.5,59.95401527031515,
-0.5,180,0,left,2,3,0,0,0,0,1,7,15,4,,,,,,,,,56.50896790000024,57.00880750000033,57.72690200000034,None,57.025664900000265,57.70984440000029,58.22712080000019,None,left,1,0.2578820999997333,58.22712080000019,None,None,57.025664900000265,58.21043079999981,0.5114151999996466,0.5949671999997008,1.7130199000002904,1.7968011000002662,,,,,,prithik_3,001,2020_Feb_05_1248,posner,3.1.5,59.95401527031515,
0.5,0,0,right,1,4,0,0,0,0,2,0,16,3,,,,,,,,,58.51161950000005,59.011577000000216,59.72913740000058,None,59.02820780000002,59.71277040000041,60.22989820000021,None,left,0,0.3992070000003878,60.22989820000021,None,None,59.02820780000002,60.2132916999999,0.5115730999996231,0.5949975000003178,1.7132751999997708,1.796621800000139,,,,,,prithik_3,001,2020_Feb_05_1248,posner,3.1.5,59.95401527031515,
-0.5,0,1,left,1,3,0,0,0,0,2,1,17,0,,,,,,,,,60.64823680000063,61.14786390000063,61.86569920000056,None,61.16476280000006,61.84881740000037,62.36649480000051,None,left,1,0.2386146999997436,62.36649480000051,None,None,61.16476280000006,62.34958730000017,0.5115728999999192,0.595194999999876,1.7132816999992428,1.796684699999787,,,,,,prithik_3,001,2020_Feb_05_1248,posner,3.1.5,59.95401527031515,
-0.5,0,1,left,1,3,0,0,0,0,2,2,18,1,,,,,,,,,62.63395149999997,63.134153300000435,63.85170759999983,None,63.150690000000395,63.83500129999993,64.35257700000057,None,left,1,0.30843579999964277,64.35257700000057,None,None,63.150690000000395,64.33578860000034,0.5113661000004868,0.5945245000002615,1.7129919999997583,1.7961480000003576,,,,,,prithik_3,001,2020_Feb_05_1248,posner,3.1.5,59.95401527031515,
0.5,180,1,right,2,4,0,0,0,0,2,3,19,6,,,,,,,,,64.68671499999982,65.18711950000034,65.90452660000028,None,65.20347410000068,65.8878009,66.40520300000026,66.88909930000045,right,1,0.47968280000077357,66.40520300000026,None,None,65.20347410000068,66.38850060000004,0.5119424999993498,0.5950815999995029,1.713309599999775,1.7968808999994508,,,,,,prithik_3,001,2020_Feb_05_1248,posner,3.1.5,59.95401527031515,
-0.5,180,0,left,2,3,0,0,0,0,2,4,20,4,,,,,,,,,66.90649209999992,67.40656070000023,68.12413699999979,None,67.42313759999979,68.10737400000016,68.62495470000067,None,left,1,0.300091699999939,68.62495470000067,None,None,67.42313759999979,68.60801989999982,0.5116601999998238,0.5952173999994557,1.7131025999997291,1.7967691999992894,,,,,,prithik_3,001,2020_Feb_05_1248,posner,3.1.5,59.95401527031515,
0.5,180,1,right,2,4,0,0,0,0,2,5,21,5,,,,,,,,,68.94301330000053,69.44260810000014,70.16032730000006,None,69.45921960000032,70.14356230000067,70.66089439999996,None,right,1,0.2800488000002588,70.66089439999996,None,None,69.45921960000032,70.6443919000003,0.5112762999997358,0.5949258999999074,1.7130343999997422,1.7963030999999319,,,,,,prithik_3,001,2020_Feb_05_1248,posner,3.1.5,59.95401527031515,
-0.5,0,1,left,1,3,0,0,0,0,2,6,22,2,,,,,,,,,70.96284470000046,71.46235109999998,72.1796801999999,None,71.47869390000051,72.16323360000024,72.68039670000053,None,left,1,0.3726209000005838,72.68039670000053,None,None,71.47869390000051,72.66372070000034,0.5115712999995594,0.5947526999998445,1.7129174000001512,1.7965997000001153,,,,,,prithik_3,001,2020_Feb_05_1248,posner,3.1.5,59.95401527031515,
0.5,180,1,right,2,4,0,0,0,0,2,7,23,7,,,,,,,,,73.08172470000045,73.58163890000014,74.29918970000017,None,73.59818770000038,74.2827584000006,74.79997210000056,None,right,1,0.2528636999995797,74.79997210000056,None,None,73.59818770000038,74.78327520000039,0.5115630000000237,0.5948926999999458,1.7131911000005857,1.7965951000005589,,,,,,prithik_3,001,2020_Feb_05_1248,posner,3.1.5,59.95401527031515,
-0.5,0,1,left,1,3,0,0,0,0,3,0,24,1,,,,,,,,,75.08434589999979,75.58480289999989,76.3022047000004,None,75.60123720000047,76.28541180000047,76.80291089999992,None,left,1,0.306137999999919,76.80291089999992,None,None,75.60123720000047,76.78603420000036,0.5119986999998218,0.594910499999969,1.7132136000000173,1.7966484999997192,,,,,,prithik_3,001,2020_Feb_05_1248,posner,3.1.5,59.95401527031515,
-0.5,0,1,left,1,3,0,0,0,0,3,1,25,0,,,,,,,,,77.13715630000024,77.63719540000056,78.35496250000051,None,77.65402210000047,78.33808930000032,78.85562170000048,None,left,1,0.3092807000002722,78.85562170000048,None,None,77.65402210000047,78.83886299999995,0.5115943000000698,0.5950858999995035,1.7132479000001695,1.7968848000000435,,,,,,prithik_3,001,2020_Feb_05_1248,posner,3.1.5,59.95401527031515,
0.5,180,1,right,2,4,0,0,0,0,3,2,26,6,,,,,,,,,79.19112620000033,79.68996650000008,80.40780210000048,None,79.7066832999999,80.39111850000063,80.90822300000036,None,right,1,0.2407009000007747,80.90822300000036,None,None,79.7066832999999,80.89160150000043,0.5114317999996274,0.5949339999997392,1.7130506000003152,1.796636899999612,,,,,,prithik_3,001,2020_Feb_05_1248,posner,3.1.5,59.95401527031515,
0.5,0,0,right,1,4,0,0,0,0,3,3,27,3,,,,,,,,,81.17613160000019,81.67621409999992,82.39380900000015,None,81.69281870000032,82.37696320000032,82.89439840000068,None,right,1,0.32650900000044203,82.89439840000068,None,None,81.69281870000032,82.87767919999987,0.5117172999998729,0.5949070999995456,1.7131601999999475,1.7970884999995178,,,,,,prithik_3,001,2020_Feb_05_1248,posner,3.1.5,59.95401527031515,
0.5,180,1,right,2,4,0,0,0,0,3,4,28,5,,,,,,,,,83.24552330000006,83.74553490000017,84.46325030000025,None,83.76231280000047,84.4466239000003,84.96409459999995,None,right,1,0.2807799000001978,84.96409459999995,None,None,83.76231280000047,84.94728300000043,0.5116116999997757,0.5950846000005185,1.713362600000437,1.7968126000005213,,,,,,prithik_3,001,2020_Feb_05_1248,posner,3.1.5,59.95401527031515,
-0.5,180,0,left,2,3,0,0,0,0,3,5,29,4,,,,,,,,,85.26520210000035,85.76506729999983,86.48285360000045,None,85.78170620000037,86.46601910000027,86.98348820000047,None,left,1,0.2612989999997808,86.98348820000047,None,None,85.78170620000037,86.9667614,0.5113086000001204,0.5946799000003011,1.7129895999996734,1.7962647000003926,,,,,,prithik_3,001,2020_Feb_05_1248,posner,3.1.5,59.95401527031515,
0.5,180,1,right,2,4,0,0,0,0,3,6,30,7,,,,,,,,,87.26773529999991,87.7677192000001,88.48541509999995,None,87.78458310000042,88.46852430000035,88.98631410000053,None,right,1,0.411050200000318,88.98631410000053,None,None,87.78458310000042,88.96930640000028,0.5117606999992859,0.5954406000000745,1.7133334999998624,1.7970557999997254,,,,,,prithik_3,001,2020_Feb_05_1248,posner,3.1.5,59.95401527031515,
-0.5,0,1,left,1,3,0,0,0,0,3,7,31,2,,,,,,,,,89.42155749999984,89.92063020000023,90.63831800000025,None,89.9372914000005,90.62171579999995,91.13898539999991,None,left,1,0.273989100000108,91.13898539999991,None,None,89.9372914000005,91.12249969999993,0.5109680999994453,0.5944994999999835,1.7127886999996917,1.7962524999993548,,,,,,prithik_3,001,2020_Feb_05_1248,posner,3.1.5,59.95401527031515,
0.5,0,0,right,1,4,0,0,0,0,4,0,32,3,,,,,,,,,91.44047510000019,91.94022829999994,92.65785480000068,None,91.9569760000004,92.64136599999983,93.15847450000001,None,right,1,0.34238600000026054,93.15847450000001,None,None,91.9569760000004,93.14189859999988,0.5116034000002401,0.594927899999675,1.713250099999641,1.796749600000112,,,,,,prithik_3,001,2020_Feb_05_1248,posner,3.1.5,59.95401527031515,
0.5,180,1,right,2,4,0,0,0,0,4,1,33,6,,,,,,,,,93.52618150000035,94.02634470000066,94.7441945999999,None,94.0433079000004,94.72716769999988,95.24474210000062,None,right,1,0.30400510000072245,95.24474210000062,None,None,94.0433079000004,95.22803470000053,0.5116037999996479,0.5949203000000125,1.7132981999993717,1.7969232999994347,,,,,,prithik_3,001,2020_Feb_05_1248,posner,3.1.5,59.95401527031515,
-0.5,0,1,left,1,3,0,0,0,0,4,2,34,0,,,,,,,,,95.5790775000005,96.0791036999999,96.79691390000062,None,96.09606010000061,96.78009350000048,97.29747060000045,None,left,1,0.2353714000000764,97.29747060000045,None,None,96.09606010000061,97.28107910000017,0.5115153999995528,0.5951291999999739,1.7134673999998995,1.796761200000219,,,,,,prithik_3,001,2020_Feb_05_1248,posner,3.1.5,59.95401527031515,
0.5,180,1,right,2,4,0,0,0,0,4,3,35,5,,,,,,,,,97.54847289999998,98.04864580000049,98.76637819999996,None,98.06546310000067,98.74955810000029,99.26682400000027,None,right,1,0.26601840000057564,99.26682400000027,None,None,98.06546310000067,99.25028060000022,0.5119108999997479,0.5953202999999121,1.7135263000000123,1.7973036000003049,,,,,,prithik_3,001,2020_Feb_05_1248,posner,3.1.5,59.95401527031515,
0.5,180,1,right,2,4,0,0,0,0,4,4,36,7,,,,,,,,,99.55189520000022,100.05139930000041,100.76887020000049,None,100.06788959999994,100.75247630000013,101.26965720000044,None,right,1,0.3351935999999114,101.26965720000044,None,left,100.06788959999994,101.25338250000004,0.511577600000237,0.5950953999999911,1.7135441000000355,1.7967336000001524,1.033032500000445,,,,,prithik_3,001,2020_Feb_05_1248,posner,3.1.5,59.95401527031515,
-0.5,180,0,left,2,3,0,0,0,0,4,5,37,4,,,,,,,,,101.62117450000005,102.12088740000036,102.83853249999993,None,102.13754610000069,102.82199980000041,103.33915290000004,None,left,1,0.3137224000001879,103.33915290000004,None,None,102.13754610000069,103.32256890000008,0.5115022999998473,0.5949395999996341,1.7131784999992306,1.7965996999992058,,,,,,prithik_3,001,2020_Feb_05_1248,posner,3.1.5,59.95401527031515,
-0.5,0,1,left,1,3,0,0,0,0,4,6,38,1,,,,,,,,,103.67351000000053,104.17366469999979,104.89142360000005,None,104.19050700000025,104.87466630000017,105.3921964000001,None,left,1,0.34856289999970613,105.3921964000001,None,None,104.19050700000025,105.37526930000058,0.5116571999997177,0.595368100000087,1.7132492999999158,1.796653100000185,,,,,,prithik_3,001,2020_Feb_05_1248,posner,3.1.5,59.95401527031515,
-0.5,0,1,left,1,3,0,0,0,0,4,7,39,2,,,,,,,,,105.7602568000002,106.25981279999996,106.97745100000066,None,106.2765086999998,106.9607887000002,107.4780765000005,None,left,1,0.3506532999999763,107.4780765000005,None,None,106.2765086999998,107.46165100000053,0.5114375000002838,0.5949792000001253,1.7132593000005727,1.7967060000000856,,,,,,prithik_3,001,2020_Feb_05_1248,posner,3.1.5,59.95401527031515,
-0.5,0,1,left,1,3,0,0,0,0,5,0,40,2,,,,,,,,,107.84597089999988,108.34604070000023,109.06384049999997,None,108.36269989999982,109.04706850000002,109.56446529999994,None,left,1,0.32036969999990106,109.56446529999994,None,None,108.36269989999982,109.54756950000046,0.5118001999999251,0.5953392999999778,1.7133159000004525,1.7971514000000752,,,,,,prithik_3,001,2020_Feb_05_1248,posner,3.1.5,59.95401527031515,
-0.5,0,1,left,1,3,0,0,0,0,5,1,41,1,,,,,,,,,109.91538670000045,110.41571470000054,111.1334480000005,None,110.43240510000032,111.11667680000028,111.63411780000024,None,left,1,0.3466522000007899,111.63411780000024,None,None,110.43240510000032,111.61719129999983,0.5118844000007812,0.5950764000008348,1.7133510000003298,1.7969676000002437,,,,,,prithik_3,001,2020_Feb_05_1248,posner,3.1.5,59.95401527031515,
-0.5,0,1,left,1,3,0,0,0,0,5,2,42,0,,,,,,,,,112.0014914000003,112.50197060000028,113.21934400000009,None,112.51829670000006,113.20283980000022,113.72011010000006,None,left,1,0.3086140000004889,113.72011010000006,None,None,112.51829670000006,113.70333590000064,0.5118918000007397,0.5953057000006083,1.7132341000005908,1.7970916000003854,,,,,,prithik_3,001,2020_Feb_05_1248,posner,3.1.5,59.95401527031515,
-0.5,180,0,left,2,3,0,0,0,0,5,3,43,4,,,,,,,,,114.05460070000026,114.55465080000067,115.27221999999983,None,114.57133220000014,115.25614700000006,115.77310320000015,None,left,1,0.3195324000007531,115.77310320000015,None,None,114.57133220000014,115.75662809999994,0.5115567999991981,0.5948300000000017,1.7135177000000112,1.796511599999576,,,,,,prithik_3,001,2020_Feb_05_1248,posner,3.1.5,59.95401527031515,
0.5,0,0,right,1,4,0,0,0,0,5,4,44,3,,,,,,,,,116.1239985000002,116.6242570000004,117.34192690000054,None,116.64086150000003,117.32510080000065,117.84268400000019,None,right,1,0.38604920000034326,117.84268400000019,None,None,116.64086150000003,117.82586230000015,0.5117124999997031,0.5949185999998008,1.7132941999998366,1.7965976000004957,,,,,,prithik_3,001,2020_Feb_05_1248,posner,3.1.5,59.95401527031515,
0.5,180,1,right,2,4,0,0,0,0,5,5,45,5,,,,,,,,,118.26063169999998,118.76027290000002,119.4779438000005,None,118.77704690000064,119.46163390000038,119.97870479999983,None,right,1,0.32204360000014276,119.97870479999983,None,None,118.77704690000064,119.96220650000032,0.5113746000006358,0.5948852999999872,1.7132860000001529,1.796740000000682,,,,,,prithik_3,001,2020_Feb_05_1248,posner,3.1.5,59.95401527031515,
0.5,180,1,right,2,4,0,0,0,0,5,6,46,6,,,,,,,,,120.32984290000059,120.82992329999979,121.54741530000047,None,120.84660460000032,121.53099590000056,122.0482404000004,None,right,1,0.3005575000006502,122.0482404000004,None,None,120.84660460000032,122.03152860000046,0.5116109000000506,0.5951314999992974,1.7131966999995711,1.7968034999994416,,,,,,prithik_3,001,2020_Feb_05_1248,posner,3.1.5,59.95401527031515,
0.5,180,1,right,2,4,0,0,0,0,5,7,47,7,,,,,,,,,122.36622970000008,122.86608350000006,123.58367050000015,None,122.88283540000066,123.56693720000021,124.08445740000025,None,right,1,0.328266700000313,124.08445740000025,None,None,122.88283540000066,124.06757800000014,0.5115470999999161,0.5948692000001756,1.713021900000058,1.7966506000002482,,,,,,prithik_3,001,2020_Feb_05_1248,posner,3.1.5,59.95401527031515,
-0.5,0,1,left,1,3,0,0,0,0,6,0,48,1,,,,,,,,,124.43588180000006,124.93570020000061,125.65323320000061,None,124.95211150000068,125.63647860000037,126.15397100000064,None,left,1,0.2827482000002419,126.15397100000064,None,None,124.95211150000068,126.13728850000007,0.5115814000000682,0.5949118999997154,1.7131553999997777,1.7964576000003945,,,,,,prithik_3,001,2020_Feb_05_1248,posner,3.1.5,59.95401527031515,
0.5,180,1,right,2,4,0,0,0,0,6,1,49,6,,,,,,,,,126.4549074000006,126.95482590000029,127.67269560000022,None,126.97176420000051,127.65595420000045,128.17323660000056,None,right,1,0.3194393999992826,128.17323660000056,None,None,126.97176420000051,128.15665179999996,0.5114623999998003,0.5949209999998857,1.7132651000001715,1.7967878999997993,,,,,,prithik_3,001,2020_Feb_05_1248,posner,3.1.5,59.95401527031515,
-0.5,180,0,left,2,3,0,0,0,0,6,2,50,4,,,,,,,,,128.5245603000003,129.02458170000045,129.74208350000026,None,129.04129030000058,129.7255449000004,130.2430131000001,None,left,1,0.28968800000075134,130.2430131000001,None,None,129.04129030000058,130.22640000000047,0.5114038000001528,0.5947627000005014,1.7132062999999107,1.7965033999998923,,,,,,prithik_3,001,2020_Feb_05_1248,posner,3.1.5,59.95401527031515,
-0.5,0,1,left,1,3,0,0,0,0,6,3,51,0,,,,,,,,,130.5605873000004,131.0607583000001,131.77821519999998,None,131.0771525,131.7616392,132.27879680000024,None,left,1,0.32582320000074105,132.27879680000024,None,None,131.0771525,132.26249820000066,0.5117060000002311,0.5951134000006277,1.7134218000001056,1.7966651000006095,,,,,,prithik_3,001,2020_Feb_05_1248,posner,3.1.5,59.95401527031515,
-0.5,0,1,left,1,3,0,0,0,0,6,4,52,2,,,,,,,,,132.63012470000012,133.1301701000002,133.84784709999985,None,133.1468433,133.83116599999994,134.34852800000044,None,left,1,0.35209130000021105,134.34852800000044,None,None,133.1468433,134.33196829999997,0.5118571000002703,0.5952266000003874,1.713631599999644,1.7969014999998763,,,,,,prithik_3,001,2020_Feb_05_1248,posner,3.1.5,59.95401527031515,
0.5,180,1,right,2,4,0,0,0,0,6,5,53,5,,,,,,,,,134.7164375000002,135.21634780000022,135.93411280000055,None,135.23314070000015,135.91710930000045,136.43470770000022,None,right,1,0.24188870000034512,136.43470770000022,None,None,135.23314070000015,136.4176693999998,0.5116689999995288,0.5951951999995799,1.7129697999998825,1.7968534000001455,,,,,,prithik_3,001,2020_Feb_05_1248,posner,3.1.5,59.95401527031515,
0.5,180,1,right,2,4,0,0,0,0,6,6,54,7,,,,,,,,,136.7024505999998,137.2027164000001,137.91996699999982,None,137.2190083000005,137.90352900000016,138.4206591000002,None,right,1,0.3519827999998597,138.4206591000002,None,None,137.2190083000005,138.40396730000066,0.5121153999998569,0.5952220999997735,1.7133542999999918,1.7969130000001314,,,,,,prithik_3,001,2020_Feb_05_1248,posner,3.1.5,59.95401527031515,
0.5,0,0,right,1,4,0,0,0,0,6,7,55,3,,,,,,,,,138.78885460000038,139.28854390000015,140.00620380000055,None,139.30528180000056,139.9896228000007,140.5069594000006,None,right,1,0.3136752999998862,140.5069594000006,None,None,139.30528180000056,140.49046739999994,0.511320199999318,0.5949636999994254,1.7132558999992398,1.7965008999999554,,,,,,prithik_3,001,2020_Feb_05_1248,posner,3.1.5,59.95401527031515,
-0.5,0,1,left,1,3,0,0,0,0,7,0,56,0,,,,,,,,,140.8418597,141.3416115,142.0588415000002,None,141.35803570000007,142.04250289999982,142.5596697000001,None,left,1,0.37306210000042483,142.5596697000001,None,None,141.35803570000007,142.5430022999999,0.5116107000003467,0.594796899999892,1.7129921000005197,1.7965126999997665,,,,,,prithik_3,001,2020_Feb_05_1248,posner,3.1.5,59.95401527031515,
0.5,180,1,right,2,4,0,0,0,0,7,1,57,6,,,,,,,,,142.9612919000001,143.4611329999998,144.1785428000003,None,143.47813029999998,144.1621008000002,144.67948109999998,None,right,1,0.30906059999961144,144.67948109999998,None,None,143.47813029999998,144.66281140000046,0.511652299999696,0.5949531999995088,1.713312599999881,1.796653399999741,,,,,,prithik_3,001,2020_Feb_05_1248,posner,3.1.5,59.95401527031515,
0.5,180,1,right,2,4,0,0,0,0,7,2,58,7,,,,,,,,,145.01393559999997,145.51383690000057,146.23163440000008,None,145.53046080000058,146.21473670000069,146.73212450000028,None,right,1,0.37645530000008876,146.73212450000028,None,None,145.53046080000058,146.71560779999982,0.5115538999998535,0.5949040999994395,1.7133083999997325,1.79658819999986,,,,,,prithik_3,001,2020_Feb_05_1248,posner,3.1.5,59.95401527031515,
-0.5,0,1,left,1,3,0,0,0,0,7,3,59,1,,,,,,,,,147.13316579999992,147.63352510000004,148.35132049999993,None,147.650302,148.33429419999993,148.8519778,None,left,1,0.2326720999999452,148.8519778,None,None,147.650302,148.8351388000001,0.5120931999999812,0.595385300000089,1.7136843000007502,1.7969178000003012,,,,,,prithik_3,001,2020_Feb_05_1248,posner,3.1.5,59.95401527031515,
0.5,180,1,right,2,4,0,0,0,0,7,4,60,5,,,,,,,,,149.10279270000046,149.60294430000067,150.32060180000008,None,149.61940380000033,150.3037159000005,150.82115729999987,None,right,1,0.38347890000022744,150.82115729999987,None,None,149.61940380000033,150.80450259999998,0.5119158999996216,0.5951663999994707,1.7134582999997292,1.7967750999996497,,,,,,prithik_3,001,2020_Feb_05_1248,posner,3.1.5,59.95401527031515,
-0.5,0,1,left,1,3,0,0,0,0,7,5,61,2,,,,,,,,,151.22276599999987,151.7223681000005,152.43996010000046,None,151.73903109999992,152.42327029999979,152.94095580000067,None,left,1,0.2475643999996464,152.94095580000067,None,None,151.73903109999992,152.9237720000001,0.5114384000007703,0.5949850000006336,1.7128252000002249,1.7960901000005833,,,,,,prithik_3,001,2020_Feb_05_1248,posner,3.1.5,59.95401527031515,
0.5,0,0,right,1,4,0,0,0,0,7,6,62,3,,,,,,,,,153.20861960000002,153.70833010000024,154.42618889999994,None,153.7253655000004,154.4092872000001,154.92685970000002,None,left,0,0.4295621999999639,154.92685970000002,None,None,153.7253655000004,154.91008950000014,0.5113106999997399,0.5949570000002495,1.7130520000000615,1.7964599999995698,,,,,,prithik_3,001,2020_Feb_05_1248,posner,3.1.5,59.95401527031515,
-0.5,180,0,left,2,3,0,0,0,0,7,7,63,4,,,,,,,,,155.37764349999998,155.8779357000003,156.5958344999999,None,155.89491530000032,156.57893479999984,157.09661349999988,None,left,1,0.27590779999991355,157.09661349999988,None,None,155.89491530000032,157.07967180000014,0.5120043000006262,0.5956368000006478,1.7137210999999297,1.7973363000000973,,,,,,prithik_3,001,2020_Feb_05_1248,posner,3.1.5,59.95401527031515,
0.5,180,1,right,2,4,0,0,0,0,8,0,64,7,,,,,,,,,157.39770170000065,157.89759800000047,158.6155429999999,None,157.91430620000028,158.5982912999998,159.11602029999995,None,right,1,0.29645780000009836,159.11602029999995,None,None,157.91430620000028,159.0991696000001,0.5117471000003206,0.5951620000005278,1.7132989000001544,1.7967969000001176,,,,,,prithik_3,001,2020_Feb_05_1248,posner,3.1.5,59.95401527031515,
0.5,180,1,right,2,4,0,0,0,0,8,1,65,6,,,,,,,,,159.43388570000025,159.9336589000004,160.65137010000035,None,159.95042509999985,160.6346910000002,161.15211439999985,None,right,1,0.38827390000005835,161.15211439999985,None,None,159.95042509999985,161.13534280000022,0.5113966000008077,0.5946767000004911,1.7130692000000636,1.7963036000001011,,,,,,prithik_3,001,2020_Feb_05_1248,posner,3.1.5,59.95401527031515,
0.5,180,1,right,2,4,0,0,0,0,8,2,66,5,,,,,,,,,161.5699596000004,162.07005449999997,162.7875315000001,None,162.0867913000002,162.7708762000002,163.28822780000064,None,right,1,0.3162017000004198,163.28822780000064,None,None,162.0867913000002,163.27171660000022,0.5117323000004035,0.5951752000000852,1.7133732000002055,1.7966317999998864,,,,,,prithik_3,001,2020_Feb_05_1248,posner,3.1.5,59.95401527031515,
-0.5,0,1,left,1,3,0,0,0,0,8,3,67,2,,,,,,,,,163.6230426000002,164.1227974000003,164.84034040000006,None,164.13931219999995,164.8237269000001,165.34116679999988,None,left,1,0.303343099999438,165.34116679999988,None,None,164.13931219999995,165.32447540000067,0.5114263999994364,0.5948484999998982,1.713088699999389,1.7963134999999966,,,,,,prithik_3,001,2020_Feb_05_1248,posner,3.1.5,59.95401527031515,
-0.5,0,1,left,1,3,0,0,0,0,8,4,68,1,,,,,,,,,165.67521240000042,166.17566429999988,166.89328620000015,None,166.1924428000002,166.87646870000026,167.39399589999994,None,left,1,0.322451899999578,167.39399589999994,None,None,166.1924428000002,167.37701790000028,0.5118174999997791,0.5949937000004866,1.713158900000053,1.7970439999999144,,,,,,prithik_3,001,2020_Feb_05_1248,posner,3.1.5,59.95401527031515,
0.5,0,0,right,1,4,0,0,0,0,8,5,69,3,,,,,,,,,167.74526610000066,168.24501360000068,168.96284360000027,None,168.2616496999999,168.94606280000062,169.46331009999994,None,right,1,0.2451006999999663,169.46331009999994,None,None,168.2616496999999,169.44674269999996,0.5114749999993364,0.5948094999994282,1.7131671999995888,1.796517899999344,,,,,,prithik_3,001,2020_Feb_05_1248,posner,3.1.5,59.95401527031515,
-0.5,180,0,left,2,3,0,0,0,0,8,6,70,4,,,,,,,,,169.73135400000047,170.2312007999999,170.94858509999995,None,170.24771659999988,170.93228140000065,171.44936860000053,None,left,1,0.250996199999463,171.44936860000053,None,None,170.24771659999988,171.43284660000063,0.5115839000000051,0.5949689999997645,1.7132172000001447,1.796548299999813,,,,,,prithik_3,001,2020_Feb_05_1248,posner,3.1.5,59.95401527031515,
-0.5,0,1,left,1,3,0,0,0,0,8,7,71,0,,,,,,,,,171.71741100000054,172.21714380000049,172.93501230000038,None,172.23378980000052,172.91800839999996,173.43575539999983,None,left,1,0.3206674999992174,173.43575539999983,None,None,172.23378980000052,173.41873570000007,0.51150620000044,0.5951942000001509,1.7130839000001288,1.7965806000001976,,,,,,prithik_3,001,2020_Feb_05_1248,posner,3.1.5,59.95401527031515,
0.5,180,1,right,2,4,0,0,0,0,9,0,72,5,,,,,,,,,173.78662359999998,174.28692670000055,175.0043783000001,None,174.3034348000001,174.98761120000017,175.50542490000043,None,right,1,0.3070404000000053,175.50542490000043,None,None,174.3034348000001,175.4883746000005,0.5120370000004186,0.5952377000003253,1.713471600000048,1.7969792000003508,,,,,,prithik_3,001,2020_Feb_05_1248,posner,3.1.5,59.95401527031515,
0.5,0,0,right,1,4,0,0,0,0,9,1,73,3,,,,,,,,,175.83949260000009,176.33939509999982,177.05708060000052,None,176.35618330000034,177.04044030000023,177.55780779999986,None,right,1,0.3426320999997188,177.55780779999986,None,None,176.35618330000034,177.54110870000022,0.5113044999998237,0.5947857999999542,1.7130049999996118,1.7965976999994382,,,,,,prithik_3,001,2020_Feb_05_1248,posner,3.1.5,59.95401527031515,
0.5,180,1,right,2,4,0,0,0,0,9,2,74,7,,,,,,,,,177.92560810000032,178.42585680000047,179.1433975,None,178.44254450000062,179.1267222000006,179.64407660000052,None,right,1,0.32036650000009104,179.64407660000052,None,None,178.44254450000062,179.62711330000002,0.511898800000381,0.5951511000002938,1.7131410000001779,1.7970328000001246,,,,,,prithik_3,001,2020_Feb_05_1248,posner,3.1.5,59.95401527031515,
0.5,180,1,right,2,4,0,0,0,0,9,3,75,6,,,,,,,,,179.9951603999998,180.4952933000004,181.21303940000053,None,180.51199710000037,181.19617000000017,181.71365100000003,None,right,1,0.29877460000079736,181.71365100000003,None,None,180.51199710000037,181.69683200000054,0.5117676999998366,0.5949861999997665,1.7132874999997512,1.7966487000003326,,,,,,prithik_3,001,2020_Feb_05_1248,posner,3.1.5,59.95401527031515,
-0.5,180,0,left,2,3,0,0,0,0,9,4,76,4,,,,,,,,,182.03155380000044,182.53139220000048,183.24911190000057,None,182.5480333000005,183.2322267999998,183.74958570000035,None,left,1,0.43900980000034906,183.74958570000035,None,None,182.5480333000005,183.73306630000025,0.5116471000001184,0.595172399999683,1.713303100000303,1.796733299999687,,,,,,prithik_3,001,2020_Feb_05_1248,posner,3.1.5,59.95401527031515,
-0.5,0,1,left,1,3,0,0,0,0,9,5,77,1,,,,,,,,,184.21762500000023,184.71751180000047,185.4355211000002,None,184.73451139999997,185.41872000000058,185.93598199999997,None,left,1,0.3963120999997045,185.93598199999997,None,None,184.73451139999997,185.9193108999998,0.5115219999997862,0.5952471999999034,1.7133015999997951,1.7970329999998285,,,,,,prithik_3,001,2020_Feb_05_1248,posner,3.1.5,59.95401527031515,
-0.5,0,1,left,1,3,0,0,0,0,9,6,78,2,,,,,,,,,186.3540791000005,186.8541597000003,187.57155070000044,None,186.8708540000007,187.55501430000004,188.0723963999999,None,left,1,0.3642186999995829,188.0723963999999,None,None,186.8708540000007,188.05575800000042,0.5116798000008203,0.5947738000004392,1.7132584000000861,1.7964298000006238,,,,,,prithik_3,001,2020_Feb_05_1248,posner,3.1.5,59.95401527031515,
-0.5,0,1,left,1,3,0,0,0,0,9,7,79,0,,,,,,,,,188.45741429999998,188.95662619999985,189.6746060000005,None,188.97352580000006,189.65764410000065,190.17536000000018,None,left,1,0.38895440000032977,190.17536000000018,None,None,188.97352580000006,190.15851830000065,0.5111695999994481,0.5948966999994809,1.7130415000001449,1.7962913000001208,,,,,,prithik_3,001,2020_Feb_05_1248,posner,3.1.5,59.95401527031515,
0.5,180,1,right,2,4,0,0,0,0,10,0,80,6,,,,,,,,,190.59314470000027,191.09304729999985,191.81082180000067,None,191.1096206000002,191.79409790000045,192.31154700000025,None,right,1,0.3168298999999024,192.31154700000025,None,None,191.1096206000002,192.29483940000046,0.5111555000003136,0.5948098999997455,1.7129345000003013,1.796121100000164,,,,,,prithik_3,001,2020_Feb_05_1248,posner,3.1.5,59.95401527031515,
-0.5,0,1,left,1,3,0,0,0,0,10,1,81,1,,,,,,,,,192.64588960000037,193.14608709999993,193.86341270000048,None,193.1627279000004,193.84687080000003,194.36426590000065,None,left,1,0.296072400000412,194.36426590000065,None,None,193.1627279000004,194.3475982,0.5117626999999629,0.5949866000000839,1.713257700000213,1.796706500000255,,,,,,prithik_3,001,2020_Feb_05_1248,posner,3.1.5,59.95401527031515,
0.5,180,1,right,2,4,0,0,0,0,10,2,82,7,,,,,,,,,194.68222490000062,195.18233039999996,195.89987999999994,None,195.1987048000001,195.88305219999984,196.40067290000025,None,right,1,0.3397834999996121,196.40067290000025,None,None,195.1987048000001,196.38372960000015,0.5116837000005034,0.5949015000005602,1.7130708000004233,1.7962310000002617,,,,,,prithik_3,001,2020_Feb_05_1248,posner,3.1.5,59.95401527031515,
0.5,0,0,right,1,4,0,0,0,0,10,3,83,3,,,,,,,,,196.76850689999992,197.2682021999999,197.98602149999988,None,197.28503140000066,197.96916390000024,198.48673719999988,None,right,1,0.3737846999993053,198.48673719999988,None,None,197.28503140000066,198.46986300000026,0.5113342000004195,0.5950222999999824,1.712976499999968,1.796729100000448,,,,,,prithik_3,001,2020_Feb_05_1248,posner,3.1.5,59.95401527031515,
0.5,180,1,right,2,4,0,0,0,0,10,4,84,5,,,,,,,,,198.88769349999984,199.3877007000001,200.10577019999982,None,199.40556490000017,200.08882960000028,200.6061926000002,None,right,1,0.4300513999996838,200.6061926000002,None,None,199.40556490000017,200.58949759999996,0.5118432999997822,0.596219299999575,1.7136223999996218,1.797140099999524,,,,,,prithik_3,001,2020_Feb_05_1248,posner,3.1.5,59.95401527031515,
-0.5,180,0,left,2,3,0,0,0,0,10,5,85,4,,,,,,,,,201.05752200000006,201.55752490000032,202.27519720000055,None,201.57433050000054,202.25847090000025,202.7759328000002,None,left,1,0.28428399999938847,202.7759328000002,None,None,201.57433050000054,202.75938120000046,0.5116052000003037,0.5949501000004602,1.7134467000005316,1.79682000000048,,,,,,prithik_3,001,2020_Feb_05_1248,posner,3.1.5,59.95401527031515,
-0.5,0,1,left,1,3,0,0,0,0,10,6,86,0,,,,,,,,,203.07690420000017,203.57690450000064,204.29473420000068,None,203.5935970999999,204.2777543000002,204.79560850000053,None,left,1,0.34460049999961484,204.79560850000053,None,None,203.5935970999999,204.77851670000018,0.5114331999993738,0.5949379999992743,1.7130321999993612,1.7966493999992963,,,,,,prithik_3,001,2020_Feb_05_1248,posner,3.1.5,59.95401527031515,
-0.5,0,1,left,1,3,0,0,0,0,10,7,87,2,,,,,,,,,205.16297380000015,205.66331600000012,206.38087750000068,None,205.67971519999992,206.36422230000062,206.88153930000044,None,left,1,0.3949425999999221,206.88153930000044,None,None,205.67971519999992,206.86479800000052,0.51171179999983,0.5950571999992462,1.7131783999993786,1.7965844000000288,,,,,,prithik_3,001,2020_Feb_05_1248,posner,3.1.5,59.95401527031515,
,,,,,,0,0,0,0,,,,,,,,,,,,,,,,,,,,,,,,,,,,,,,,,,207.3004189000003,None,1.9500000234984327e-05,0.9954532000001564,prithik_3,001,2020_Feb_05_1248,posner,3.1.5,59.95401527031515,
0.5,0,0,right,1,4,1,0,1,0,0,0,0,3,1.1899999663000926e-05,0.09759200000007695,268.31591449999996,None,1.4899999769113492e-05,0.09798599999976432,270.41868350000004,None,270.6912149,271.1866129,271.9040715000001,None,271.2031209000006,271.88752230000046,272.4048584000002,None,right,1,0.35117709999940416,272.4048584000002,None,None,271.2031209000006,272.38821129999997,0.5056171999995058,0.5892696000000797,1.7072023000000627,1.790578699999969,,,,,,prithik_3,001,2020_Feb_05_1248,posner,3.1.5,59.95401527031515,
0.5,180,1,right,2,4,1,0,1,0,0,1,1,7,,,,,,,,,272.7730188000005,273.27289480000036,273.9904991000003,None,273.28954650000014,273.97367940000004,274.49123560000044,None,right,1,0.33670580000034533,274.49123560000044,None,None,273.28954650000014,274.4743948000005,0.5108232000002317,0.5938511000003928,1.7123099000000366,1.7955441000003702,,,,,,prithik_3,001,2020_Feb_05_1248,posner,3.1.5,59.95401527031515,
-0.5,0,1,left,1,3,1,0,1,0,0,2,2,2,,,,,,,,,274.85854629999994,275.35882070000025,276.0764732000007,None,275.3754520000002,276.0598712000001,276.5773396000004,None,left,1,0.2826568000000407,276.5773396000004,None,None,275.3754520000002,276.5605178000005,0.5115229000002728,0.5950960000000123,1.7132018000002063,1.7967876000002434,,,,,,prithik_3,001,2020_Feb_05_1248,posner,3.1.5,59.95401527031515,
-0.5,180,0,left,2,3,1,0,1,0,0,3,3,4,,,,,,,,,276.87782060000063,277.37825410000005,278.09597290000056,None,277.39531030000035,278.0792360000005,278.5964391000007,None,left,1,0.35140599999976985,278.5964391000007,None,None,277.39531030000035,278.5799470000002,0.5122620000001916,0.5957017999999152,1.713943400000062,1.7976140000000669,,,,,,prithik_3,001,2020_Feb_05_1248,posner,3.1.5,59.95401527031515,
-0.5,0,1,left,1,3,1,0,1,0,0,4,4,0,,,,,,,,,278.9642291,279.4647352000002,280.1823178000004,None,279.48125919999984,280.16539400000056,280.6828650000007,None,left,1,0.30496149999999034,280.6828650000007,None,None,279.48125919999984,280.6662961000002,0.5123880999999528,0.5957295999996859,1.7139336000000185,1.7972944000002826,,,,,,prithik_3,001,2020_Feb_05_1248,posner,3.1.5,59.95401527031515,
0.5,180,1,right,2,4,1,0,1,0,0,5,5,5,,,,,,,,,281.01727800000026,281.51715049999984,282.2351969000001,None,281.53415420000056,282.21820519999983,282.7355574000003,None,right,1,0.31629549999979645,282.7355574000003,None,None,281.53415420000056,282.7188786000006,0.5115528999995149,0.5954352999997354,1.7132611999995788,1.7969387000002826,,,,,,prithik_3,001,2020_Feb_05_1248,posner,3.1.5,59.95401527031515,
0.5,180,1,right,2,4,1,0,1,0,0,6,6,6,,,,,,,,,283.0704878000006,283.5702406999999,284.28787809999994,None,283.5868926000003,284.27142490000006,284.78855870000007,None,right,1,0.31926819999989675,284.78855870000007,None,None,283.5868926000003,284.7719146999998,0.5116201999999248,0.5950528000003033,1.713271700000405,1.7966997000003175,,,,,,prithik_3,001,2020_Feb_05_1248,posner,3.1.5,59.95401527031515,
-0.5,0,1,left,1,3,1,0,1,0,0,7,7,1,,,,,,,,,285.13994490000005,285.6396872000005,286.35708070000055,None,285.65665140000056,286.3406316999999,286.85792670000046,None,left,1,0.2818495999999868,286.85792670000046,None,None,285.65665140000056,286.84159570000065,0.5114534000003914,0.5948330999999598,1.7133349000005182,1.7966300000007323,,,,,,prithik_3,001,2020_Feb_05_1248,posner,3.1.5,59.95401527031515,
-0.5,0,1,left,1,3,1,0,1,0,1,0,8,2,,,,,,,,,287.1591717000001,287.65907789999983,288.37675500000023,None,287.6758762999998,288.36009100000047,288.87732330000017,None,left,1,0.33459789999960776,288.87732330000017,None,None,287.6758762999998,288.86088819999986,0.511612199999945,0.5951735999997254,1.713400499999807,1.7967430999997305,,,,,,prithik_3,001,2020_Feb_05_1248,posner,3.1.5,59.95401527031515,
0.5,180,1,right,2,4,1,0,1,0,1,1,9,7,,,,,,,,,289.2292017,289.7285883000004,290.4464216000006,None,289.74539520000053,290.42948720000004,290.94708249999985,None,right,1,0.27288339999995515,290.94708249999985,None,None,289.74539520000053,290.93039940000017,0.5113166000001002,0.5947740999999951,1.7133813999998893,1.796527999999853,,,,,,prithik_3,001,2020_Feb_05_1248,posner,3.1.5,59.95401527031515,
0.5,180,1,right,2,4,1,0,1,0,1,2,10,5,,,,,,,,,291.24814160000005,291.74803770000017,292.4658421000004,None,291.76495239999986,292.4490024000006,292.9664077000007,None,right,1,0.32538149999982124,292.9664077000007,None,None,291.76495239999986,292.94979820000026,0.511500900000101,0.5949987000003603,1.713243500000317,1.7967351999996026,,,,,,prithik_3,001,2020_Feb_05_1248,posner,3.1.5,59.95401527031515,
-0.5,0,1,left,1,3,1,0,1,0,1,3,11,1,,,,,,,,,293.31726789999993,293.81746360000034,294.535809,None,293.8342640000001,294.51862640000036,295.0360432000007,None,left,1,0.2796717000001081,295.0360432000007,None,None,293.8342640000001,295.0191924999999,0.5119229000001724,0.5955890999994153,1.713631599999644,1.7971364999993966,,,,,,prithik_3,001,2020_Feb_05_1248,posner,3.1.5,59.95401527031515,
0.5,180,1,right,2,4,1,0,1,0,1,4,12,6,,,,,,,,,295.3370947000003,295.8369403000006,296.55492550000054,None,295.8537180000003,296.53805250000005,297.05531599999995,None,right,1,0.284403999999995,297.05531599999995,None,None,295.8537180000003,297.0387295999999,0.5116718000008404,0.5951888000008694,1.7134452000000238,1.7969549000008556,,,,,,prithik_3,001,2020_Feb_05_1248,posner,3.1.5,59.95401527031515,
-0.5,180,0,left,2,3,1,0,1,0,1,5,13,4,,,,,,,,,297.3566300000002,297.8565079,298.57417870000063,None,297.8732590999998,298.55744630000027,299.0748923000001,None,left,1,0.2888990000001286,299.0748923000001,None,None,297.8732590999998,299.05808400000024,0.5117959000008341,0.5953126000003977,1.7133505000001605,1.796808900000542,,,,,,prithik_3,001,2020_Feb_05_1248,posner,3.1.5,59.95401527031515,
-0.5,0,1,left,1,3,1,0,1,0,1,6,14,0,,,,,,,,,299.39254080000046,299.8927395999999,300.6104602000005,None,299.9094173000003,300.5935649000003,301.11105510000016,None,left,1,0.2926940999996077,301.11105510000016,None,None,299.9094173000003,301.0944391000003,0.5114030000004277,0.5946867000002385,1.7130839000001288,1.7962878999996974,,,,,,prithik_3,001,2020_Feb_05_1248,posner,3.1.5,59.95401527031515,
0.5,0,0,right,1,4,1,0,1,0,1,7,15,3,,,,,,,,,301.42895170000065,301.9289405999998,302.64626560000033,None,301.9456031999998,302.62995930000034,303.1471179,None,right,1,0.2885838000001968,303.1471179,None,None,301.9456031999998,303.1304678000006,0.5115776999991795,0.594865099999879,1.7130806999994093,1.7964836999999534,,,,,,prithik_3,001,2020_Feb_05_1248,posner,3.1.5,59.95401527031515,
-0.5,0,1,left,1,3,1,0,1,0,2,0,16,1,,,,,,,,,303.4648543000003,303.96482540000034,304.68269490000057,None,303.98154500000055,304.66584500000044,305.18299560000014,None,left,1,0.27676570000039646,305.18299560000014,None,None,303.98154500000055,305.1667127999999,0.5114398000005167,0.5949424000000363,1.7133049000003666,1.7966903000005914,,,,,,prithik_3,001,2020_Feb_05_1248,posner,3.1.5,59.95401527031515,
0.5,180,1,right,2,4,1,0,1,0,2,1,17,5,,,,,,,,,305.48373790000005,305.9844082999998,306.7020295000002,None,306.00122120000015,306.68548809999993,307.20275310000034,None,right,1,0.3049756000000343,307.20275310000034,None,None,306.00122120000015,307.18601880000006,0.5126497999999629,0.5959170000005543,1.7142491000004156,1.797599600000467,,,,,,prithik_3,001,2020_Feb_05_1248,posner,3.1.5,59.95401527031515,
-0.5,0,1,left,1,3,1,0,1,0,2,2,18,0,,,,,,,,,307.53692910000063,308.0371743000005,308.75506720000067,None,308.05376160000014,308.73814670000047,309.2559031999999,None,left,1,0.3558669000003647,309.2559031999999,None,None,308.05376160000014,309.2387757000006,0.5116472999998223,0.5951508999996804,1.7132351000000199,1.7966976999996405,,,,,,prithik_3,001,2020_Feb_05_1248,posner,3.1.5,59.95401527031515,
0.5,180,1,right,2,4,1,0,1,0,2,3,19,7,,,,,,,,,309.6405910000003,310.13992640000015,310.8576135000003,None,310.1565367000003,310.8410770999999,311.35848309999983,None,right,1,0.2372387000004892,311.35848309999983,None,None,310.1565367000003,311.34172970000054,0.5113475999996808,0.5949467000000368,1.7131289999997534,1.7964902999992773,,,,,,prithik_3,001,2020_Feb_05_1248,posner,3.1.5,59.95401527031515,
-0.5,180,0,left,2,3,1,0,1,0,2,4,20,4,,,,,,,,,311.62584960000004,312.12613280000005,312.84373980000055,None,312.1430618000004,312.8269893000006,313.3443610000004,None,left,1,0.3793868000002476,313.3443610000004,None,None,312.1430618000004,313.3279143,0.5118044999999256,0.5952402000002621,1.7135738000006313,1.7969600000005812,,,,,,prithik_3,001,2020_Feb_05_1248,posner,3.1.5,59.95401527031515,
0.5,0,0,right,1,4,1,0,1,0,2,5,21,3,,,,,,,,,313.7459015000004,314.2459024,314.96335140000065,None,314.26238250000006,314.9467383000001,315.4640300000001,None,right,1,0.37164750000010827,315.4640300000001,None,None,314.26238250000006,315.4473652000006,0.5115642999999181,0.5950343000004068,1.7130146999998033,1.796534099999917,,,,,,prithik_3,001,2020_Feb_05_1248,posner,3.1.5,59.95401527031515,
-0.5,0,1,left,1,3,1,0,1,0,2,6,22,2,,,,,,,,,315.86527360000036,316.3654612,317.08286190000035,None,316.38213950000045,317.06634380000014,317.58363670000017,None,left,1,0.324114400000326,317.58363670000017,None,None,316.38213950000045,317.56678310000007,0.5117319000000862,0.5949716000004628,1.7130433000002085,1.7966317999998864,,,,,,prithik_3,001,2020_Feb_05_1248,posner,3.1.5,59.95401527031515,
0.5,180,1,right,2,4,1,0,1,0,2,7,23,6,,,,,,,,,317.9348122000001,318.4347736999998,319.1525406999999,None,318.45160940000005,319.1357347000003,319.6530550000007,None,right,1,0.3426238000001831,319.6530550000007,None,None,318.45160940000005,319.6364429000005,0.5116747999991276,0.5950636999996277,1.7133225999996284,1.7967444999994768,,,,,,prithik_3,001,2020_Feb_05_1248,posner,3.1.5,59.95401527031515,
-0.5,0,1,left,1,3,1,0,1,0,3,0,24,0,,,,,,,,,320.0212569000005,320.5209402999999,321.2386382000004,None,320.5376120000001,321.2221006,321.7392602,None,left,1,0.2564390000006824,321.7392602,None,None,320.5376120000001,321.72268729999996,0.5114201999995203,0.5950777999996717,1.7131460000000516,1.7965653000001112,,,,,,prithik_3,001,2020_Feb_05_1248,posner,3.1.5,59.95401527031515,
0.5,0,0,right,1,4,1,0,1,0,3,1,25,3,,,,,,,,,322.02352750000045,322.5237253000005,323.241481,None,322.5406122000004,323.2248391000003,323.74217260000023,None,right,1,0.3095083000007435,323.74217260000023,None,None,322.5406122000004,323.7255915000005,0.5116830000006303,0.5949620999999752,1.713527900000372,1.7967415000002802,,,,,,prithik_3,001,2020_Feb_05_1248,posner,3.1.5,59.95401527031515,
0.5,180,1,right,2,4,1,0,1,0,3,2,26,5,,,,,,,,,324.0764700999998,324.57655479999994,325.2943384,None,324.59330110000064,325.2773981999999,325.7950602000001,None,right,1,0.368637900000067,325.7950602000001,None,None,324.59330110000064,325.7780421000007,0.511799300000348,0.5952038000004904,1.7132731000001513,1.7973228000000745,,,,,,prithik_3,001,2020_Feb_05_1248,posner,3.1.5,59.95401527031515,
-0.5,0,1,left,1,3,1,0,1,0,3,3,27,2,,,,,,,,,326.1795831999998,326.6795613000004,327.3971225000005,None,326.69620470000064,327.3804842999998,327.89777550000053,328.3818676000001,left,1,0.6339465999999447,327.89777550000053,None,None,326.69620470000064,327.88119150000057,0.5116871999998693,0.5949356000000989,1.7132598999996844,1.7966120000000956,,,,,,prithik_3,001,2020_Feb_05_1248,posner,3.1.5,59.95401527031515,
-0.5,180,0,left,2,3,1,0,1,0,3,4,28,4,,,,,,,,,328.5494821000002,329.04933170000004,329.76683420000063,None,329.06621260000065,329.7504581000003,330.26755050000065,None,left,1,0.3279893999997512,330.26755050000065,None,None,329.06621260000065,330.2513121000002,0.511558199999854,0.5950023000004876,1.713496500000474,1.7966561000002912,,,,,,prithik_3,001,2020_Feb_05_1248,posner,3.1.5,59.95401527031515,
-0.5,0,1,left,1,3,1,0,1,0,3,5,29,1,,,,,,,,,330.6195013000006,331.1187547999998,331.83652750000056,None,331.13559970000006,331.8198147000003,332.3371095000002,None,left,1,0.29844890000003943,332.3371095000002,None,None,331.13559970000006,332.32061760000033,0.5111585999993622,0.594702899999902,1.7129971999993359,1.7963888999993287,,,,,,prithik_3,001,2020_Feb_05_1248,posner,3.1.5,59.95401527031515,
0.5,180,1,right,2,4,1,0,1,0,3,6,30,7,,,,,,,,,332.6551401000006,333.15537720000066,333.87317280000025,None,333.1720868000002,333.8561079000001,334.3735837000004,None,right,1,0.45396029999938037,334.3735837000004,None,None,333.1720868000002,334.35640330000024,0.511962599999606,0.5950387000002593,1.7129730999995445,1.7968157999994219,,,,,,prithik_3,001,2020_Feb_05_1248,posner,3.1.5,59.95401527031515,
0.5,180,1,right,2,4,1,0,1,0,3,7,31,6,,,,,,,,,334.85799920000045,335.35797189999994,336.0755822000001,None,335.37497070000063,336.05894200000057,336.5763629000003,334.85799920000045,right,1,0.3950838000000658,336.5763629000003,None,None,335.37497070000063,336.55962720000025,0.5113219999993817,0.5949875999995129,1.7129531000000497,1.7963804000000891,,,,,,prithik_3,001,2020_Feb_05_1248,posner,3.1.5,59.95401527031515,
0.5,180,1,right,2,4,1,0,1,0,4,0,32,5,,,,,,,,,336.9943645000003,337.4944523000004,338.21196190000046,None,337.51104550000036,338.1955097,338.71262110000043,None,right,1,0.2028572000008353,338.71262110000043,None,None,337.51104550000036,338.69596530000035,0.5117295000000013,0.5949829000001046,1.7132287000003998,1.7966575999998895,,,,,,prithik_3,001,2020_Feb_05_1248,posner,3.1.5,59.95401527031515,
-0.5,0,1,left,1,3,1,0,1,0,4,1,33,2,,,,,,,,,338.94686679999995,339.44696920000024,340.16503920000014,None,339.46390620000057,340.1478756000006,340.66561020000063,341.14937650000047,left,1,0.5298886000000493,340.66561020000063,None,None,339.46390620000057,340.64876900000036,0.5116493999994418,0.5950769999999466,1.71342949999962,1.7969848999991882,,,,,,prithik_3,001,2020_Feb_05_1248,posner,3.1.5,59.95401527031515,
0.5,180,1,right,2,4,1,0,1,0,4,2,34,7,,,,,,,,,341.2171134,341.71671740000056,342.4344938000004,None,341.7335571000003,342.4176492000006,342.9352159,None,right,1,0.3404326999998375,342.9352159,None,None,341.7335571000003,342.9184215000005,0.5113571000001684,0.5949513000005027,1.7130463000003147,1.7965327000001707,,,,,,prithik_3,001,2020_Feb_05_1248,posner,3.1.5,59.95401527031515,
0.5,0,0,right,1,4,1,0,1,0,4,3,35,3,,,,,,,,,343.3027095000007,343.8031853000002,344.5206797999999,None,343.81989500000054,344.50413579999986,345.0215388000006,None,right,1,0.4060988000001089,345.0215388000006,None,None,343.81989500000054,345.0046650000004,0.5120182999999088,0.5951037000004362,1.7134861000004094,1.7969438999998602,,,,,,prithik_3,001,2020_Feb_05_1248,posner,3.1.5,59.95401527031515,
-0.5,180,0,left,2,3,1,0,1,0,4,4,36,4,,,,,,,,,345.4561743000004,345.95601440000064,346.6736350000001,None,345.9726894000005,346.6567006000005,347.17442310000024,None,left,1,0.3251007999997455,347.17442310000024,None,None,345.9726894000005,347.15741740000067,0.5116434000001391,0.5950849000000744,1.713030599999911,1.7968424000000596,,,,,,prithik_3,001,2020_Feb_05_1248,posner,3.1.5,59.95401527031515,
-0.5,0,1,left,1,3,1,0,1,0,4,5,37,1,,,,,,,,,347.52543779999996,348.02541550000024,348.7432538000003,None,348.04214200000024,348.72628710000026,349.2438239000003,None,left,1,0.29581529999995837,349.2438239000003,None,None,348.04214200000024,349.22719140000027,0.5117091000001892,0.5950164000005316,1.7134636999999202,1.7968147999999928,,,,,,prithik_3,001,2020_Feb_05_1248,posner,3.1.5,59.95401527031515,
-0.5,0,1,left,1,3,1,0,1,0,4,6,38,0,,,,,,,,,349.56195970000044,350.0615690000004,350.7791433000002,None,350.0781001000005,350.7626111999998,351.2800298000002,None,left,1,0.4035218999997596,351.2800298000002,None,None,350.0781001000005,351.2631935999998,0.5110846999996284,0.5945404999993116,1.712692099999913,1.7960882999996102,,,,,,prithik_3,001,2020_Feb_05_1248,posner,3.1.5,59.95401527031515,
0.5,180,1,right,2,4,1,0,1,0,4,7,39,6,,,,,,,,,351.71469440000055,352.2147491000005,352.9324172000006,None,352.23113360000025,352.91551419999996,353.43300100000033,None,right,1,0.33048510000026,353.43300100000033,None,None,352.23113360000025,353.4160754000004,0.5117045999995753,0.5951461999993626,1.7130050999994637,1.796895599999516,,,,,,prithik_3,001,2020_Feb_05_1248,posner,3.1.5,59.95401527031515,
0.5,180,1,right,2,4,1,0,1,0,5,0,40,6,,,,,,,,,353.783958,354.28413809999984,355.00179949999983,None,354.3011787000005,354.9852421000005,355.5023959,None,right,1,0.3571537999996508,355.5023959,None,None,354.3011787000005,355.48560480000015,0.5117450000007011,0.594975500000146,1.7131702000006044,1.7966507999999521,,,,,,prithik_3,001,2020_Feb_05_1248,posner,3.1.5,59.95401527031515,
0.5,180,1,right,2,4,1,0,1,0,5,1,41,5,,,,,,,,,355.88706100000036,356.38694790000045,357.1046599000001,None,356.40367440000045,357.0880293,357.6052976000001,None,right,1,0.34220769999956246,357.6052976000001,None,None,356.40367440000045,357.5886584,0.5117467000000033,0.5952953999994861,1.7134393999995154,1.7967405999997936,,,,,,prithik_3,001,2020_Feb_05_1248,posner,3.1.5,59.95401527031515,
-0.5,0,1,left,1,3,1,0,1,0,5,2,42,0,,,,,,,,,357.973207,358.4731627000001,359.1912226000004,None,358.49001880000014,359.17411940000056,359.69172530000014,None,left,1,0.41579410000031203,359.69172530000014,None,None,358.49001880000014,359.67484670000067,0.511612199999945,0.5950714999999036,1.71327250000013,1.7967799999996714,,,,,,prithik_3,001,2020_Feb_05_1248,posner,3.1.5,59.95401527031515,
0.5,0,0,right,1,4,1,0,1,0,5,3,43,3,,,,,,,,,360.1258183,360.62604160000046,361.34354220000023,None,360.6427512,361.3269685000005,361.8446276000004,None,right,1,0.26275359999999637,361.8446276000004,None,None,360.6427512,361.82764660000066,0.5119412999993074,0.5953284999995958,1.7135303999993994,1.7971468999994613,,,,,,prithik_3,001,2020_Feb_05_1248,posner,3.1.5,59.95401527031515,
-0.5,0,1,left,1,3,1,0,1,0,5,4,44,1,,,,,,,,,362.1289433000002,362.6289121,363.3464174999999,None,362.64561980000053,363.3298104000005,363.8471193000005,None,left,1,0.3564129000005778,363.8471193000005,None,None,362.64561980000053,363.83052920000046,0.5115569999998115,0.5949620999999752,1.7131537000004755,1.7966409000000567,,,,,,prithik_3,001,2020_Feb_05_1248,posner,3.1.5,59.95401527031515,
-0.5,180,0,left,2,3,1,0,1,0,5,5,45,4,,,,,,,,,364.2317606000006,364.73186410000017,365.4495510000006,None,364.7484088000001,365.4327420999998,365.9503050000003,None,left,1,0.3971083999995244,365.9503050000003,None,None,364.7484088000001,365.9333630000001,0.5116439000003083,0.5949381000000358,1.7131304000004093,1.796457299999929,,,,,,prithik_3,001,2020_Feb_05_1248,posner,3.1.5,59.95401527031515,
0.5,180,1,right,2,4,1,0,1,0,5,6,46,7,,,,,,,,,366.36819620000006,366.86803560000044,367.5857199000002,None,366.8850731000002,367.56899710000016,368.0863407000006,None,right,1,0.3090765000006286,368.0863407000006,None,None,366.8850731000002,368.06989410000006,0.5114973999998256,0.5949252000000342,1.7135899000004429,1.7966416999997818,,,,,,prithik_3,001,2020_Feb_05_1248,posner,3.1.5,59.95401527031515,
-0.5,0,1,left,1,3,1,0,1,0,5,7,47,2,,,,,,,,,368.42103430000043,368.92099000000053,369.6384023999999,None,368.9373564000007,369.6219890000002,370.1390930000007,None,left,1,0.2723535000004631,370.1390930000007,None,None,368.9373564000007,370.1225248999999,0.5117731000000276,0.5951924000000872,1.7132885000000897,1.7965802999997322,,,,,,prithik_3,001,2020_Feb_05_1248,posner,3.1.5,59.95401527031515,
0.5,180,1,right,2,4,1,0,1,0,6,0,48,6,,,,,,,,,370.4403063999998,370.9402484000002,371.65786320000007,None,370.9567586000003,371.6411109999999,372.1585273999999,None,right,1,0.348880100000315,372.1585273999999,None,None,370.9567586000003,372.14190810000036,0.5115324999997028,0.5949411000001419,1.7131789000004574,1.7967728000003262,,,,,,prithik_3,001,2020_Feb_05_1248,posner,3.1.5,59.95401527031515,
-0.5,0,1,left,1,3,1,0,1,0,6,1,49,1,,,,,,,,,372.52669330000026,373.0263421999998,373.74443040000006,None,373.04318280000007,373.72724879999987,374.2447972,None,left,1,0.2866322999998374,374.2447972,None,None,373.04318280000007,374.22809750000033,0.5113516999999774,0.5949123000000327,1.713093100000151,1.7966161000003922,,,,,,prithik_3,001,2020_Feb_05_1248,posner,3.1.5,59.95401527031515,
-0.5,0,1,left,1,3,1,0,1,0,6,2,50,2,,,,,,,,,374.5622475,375.0628445000002,375.78012339999987,None,375.07919500000025,375.7635594000003,376.2810868000006,376.7650201000006,left,1,0.5303695000002335,376.2810868000006,None,None,375.07919500000025,376.26435219999985,0.51206430000002,0.5952498999995441,1.7135591999995086,1.7968258999999307,,,,,,prithik_3,001,2020_Feb_05_1248,posner,3.1.5,59.95401527031515,
0.5,0,0,right,1,4,1,0,1,0,6,3,51,3,,,,,,,,,376.8327104,377.3324545000005,378.0500589000003,None,377.3492958000006,378.03329160000067,378.55111730000044,None,right,1,0.3322000999996817,378.55111730000044,None,None,377.3492958000006,378.5341997000005,0.5114652000002025,0.5949285999995482,1.713195799999994,1.7963959999997314,,,,,,prithik_3,001,2020_Feb_05_1248,posner,3.1.5,59.95401527031515,
0.5,180,1,right,2,4,1,0,1,0,6,4,52,5,,,,,,,,,378.90206709999984,379.4020338999999,380.11958030000005,None,379.4185421000002,380.10295099999985,380.62026960000003,None,right,1,0.4310570999996344,380.62026960000003,None,None,379.4185421000002,380.6034672000005,0.511700799999744,0.5950670000001992,1.713122199999816,1.7966784000000189,,,,,,prithik_3,001,2020_Feb_05_1248,posner,3.1.5,59.95401527031515,
-0.5,180,0,left,2,3,1,0,1,0,6,5,53,4,,,,,,,,,381.07161710000037,381.57174040000064,382.2892761000003,None,381.5883276000004,382.2726573,382.79002910000054,None,left,1,0.3333397000005789,382.79002910000054,None,None,381.5883276000004,382.77324450000015,0.5115780000005543,0.5948366000002352,1.7130652000005284,1.7963684000005742,,,,,,prithik_3,001,2020_Feb_05_1248,posner,3.1.5,59.95401527031515,
-0.5,0,1,left,1,3,1,0,1,0,6,6,54,0,,,,,,,,,383.1412340000006,383.64111800000046,384.35863920000065,None,383.65775790000043,384.3421029000001,384.8596658000006,None,left,1,0.3517332000001261,384.8596658000006,None,None,383.65775790000043,384.84267009999985,0.5115015999999741,0.5949774000000616,1.7130406000005678,1.79627150000033,,,,,,prithik_3,001,2020_Feb_05_1248,posner,3.1.5,59.95401527031515,
0.5,180,1,right,2,4,1,0,1,0,6,7,55,7,,,,,,,,,385.2436708000005,385.74403580000035,386.46187629999986,None,385.7607127000001,386.4450373999998,386.96240300000045,None,right,1,0.3128951999997298,386.96240300000045,None,None,385.7607127000001,386.94558490000054,0.5118296000000555,0.5953723000002356,1.7133648999997604,1.7967467999997098,,,,,,prithik_3,001,2020_Feb_05_1248,posner,3.1.5,59.95401527031515,
-0.5,0,1,left,1,3,1,0,1,0,7,0,56,2,,,,,,,,,387.2964337000003,387.7965920000006,388.5145757999999,None,387.8134041000003,388.4976797999998,389.01515389999986,None,left,1,0.3401864999996178,389.01515389999986,None,None,387.8134041000003,388.9983879000001,0.511825200000203,0.5956032000003688,1.713604999999916,1.7971602000006897,,,,,,prithik_3,001,2020_Feb_05_1248,posner,3.1.5,59.95401527031515,
0.5,180,1,right,2,4,1,0,1,0,7,1,57,7,,,,,,,,,389.38297820000025,389.8831578999998,390.6007844000005,None,389.8999635,390.5841016000004,391.1015335000002,None,right,1,0.24576210000032006,391.1015335000002,None,None,389.8999635,391.08473310000045,0.5116095999992467,0.5947582999997394,1.7131761999999071,1.7963875999994343,,,,,,prithik_3,001,2020_Feb_05_1248,posner,3.1.5,59.95401527031515,
-0.5,0,1,left,1,3,1,0,1,0,7,2,58,1,,,,,,,,,391.3696485999999,391.86902069999996,392.5867388000006,None,391.8857308000006,392.57018770000013,393.08730060000016,None,left,1,0.2678912000001219,393.08730060000016,None,None,391.8857308000006,393.0709617000002,0.5112394000007043,0.5946598999998969,1.713155800000095,1.7965156000000206,,,,,,prithik_3,001,2020_Feb_05_1248,posner,3.1.5,59.95401527031515,
0.5,180,1,right,2,4,1,0,1,0,7,3,59,5,,,,,,,,,393.3717778,393.87193650000063,394.5894235000005,None,393.8887093000003,394.5728589,395.09045400000014,None,right,1,0.2248184999998557,395.09045400000014,None,None,393.8887093000003,395.0732816,0.5115242000001672,0.5946993999996266,1.7128560999999536,1.796362400000362,,,,,,prithik_3,001,2020_Feb_05_1248,posner,3.1.5,59.95401527031515,
0.5,0,0,right,1,4,1,0,1,0,7,4,60,3,,,,,,,,,395.3413046000005,395.8413506000006,396.5587712000006,None,395.8578774000007,396.5423285000006,397.0596011000007,397.5436516,right,1,0.48772050000025047,397.0596011000007,None,None,395.8578774000007,397.0428208000003,0.511635999999271,0.5951391999997213,1.7130811999995785,1.796440299999631,,,,,,prithik_3,001,2020_Feb_05_1248,posner,3.1.5,59.95401527031515,
0.5,180,1,right,2,4,1,0,1,0,7,5,61,6,,,,,,,,,397.57700550000027,398.0774373000004,398.79531880000013,None,398.09431660000064,398.7785493000001,399.29569320000064,None,right,1,0.36348459999953775,399.29569320000064,None,None,398.09431660000064,399.27923569999984,0.5118998000007196,0.59542220000003,1.7136803000003056,1.7970954000002166,,,,,,prithik_3,001,2020_Feb_05_1248,posner,3.1.5,59.95401527031515,
-0.5,180,0,left,2,3,1,0,1,0,7,6,62,4,,,,,,,,,399.68093880000015,400.1806565000006,400.8982364000003,None,400.1972215000005,400.8814768000002,401.3990107999998,None,left,1,0.2923114999994141,401.3990107999998,None,None,400.1972215000005,401.3822675000001,0.5115150000001449,0.594918100000541,1.7131052000004274,1.7963620999998966,,,,,,prithik_3,001,2020_Feb_05_1248,posner,3.1.5,59.95401527031515,
-0.5,0,1,left,1,3,1,0,1,0,7,7,63,0,,,,,,,,,401.7167006999998,402.2165442000005,402.93419260000064,None,402.23331320000034,402.9174541000002,403.4348213000003,None,left,1,0.3604168000001664,403.4348213000003,None,None,402.23331320000034,403.41820030000054,0.5117992000004961,0.595439400000032,1.7134355000007417,1.7969037000002572,,,,,,prithik_3,001,2020_Feb_05_1248,posner,3.1.5,59.95401527031515,
-0.5,0,1,left,1,3,1,0,1,0,8,0,64,2,,,,,,,,,403.8198065000006,404.31951280000067,405.0370555999998,None,404.33601499999986,405.02055030000065,405.53778839999995,None,left,1,0.30552739999984624,405.53778839999995,None,None,404.33601499999986,405.5212691000006,0.5114443999991636,0.5949334999995699,1.7131893999994645,1.7966723999998067,,,,,,prithik_3,001,2020_Feb_05_1248,posner,3.1.5,59.95401527031515,
0.5,0,0,right,1,4,1,0,1,0,8,1,65,3,,,,,,,,,405.8722983000007,406.3723305000003,407.0903294999998,None,406.3892053999998,407.07322040000054,407.5907643999999,None,right,1,0.22866469999917172,407.5907643999999,None,None,406.3892053999998,407.5740913999998,0.5114799000002677,0.5948041000001467,1.7132242999996379,1.7963739999995596,,,,,,prithik_3,001,2020_Feb_05_1248,posner,3.1.5,59.95401527031515,
-0.5,180,0,left,2,3,1,0,1,0,8,2,66,4,,,,,,,,,407.84192600000006,408.3417872,409.05935390000013,None,408.3582393000006,409.0427733000006,409.5601465,None,left,1,0.2590360000003784,409.5601465,None,None,408.3582393000006,409.5433702,0.5113270000001648,0.594525600000452,1.7129175000000032,1.7961000000004788,,,,,,prithik_3,001,2020_Feb_05_1248,posner,3.1.5,59.95401527031515,
-0.5,0,1,left,1,3,1,0,1,0,8,3,67,0,,,,,,,,,409.84430599999996,410.34468130000005,411.0620293000002,None,410.3611099999998,411.04544820000046,411.56289280000055,412.0467311000002,left,1,0.5043733000002248,411.56289280000055,None,None,410.3611099999998,411.5460621000002,0.5120167000004585,0.5950487999998586,1.7133898000001864,1.7968509000002086,,,,,,prithik_3,001,2020_Feb_05_1248,posner,3.1.5,59.95401527031515,
0.5,180,1,right,2,4,1,0,1,0,8,4,68,7,,,,,,,,,412.09715490000053,412.5975846000001,413.31508140000005,None,412.61420240000007,413.2985359000004,413.8158189000005,None,right,1,0.27536959999997634,413.8158189000005,None,None,412.61420240000007,413.7991636000006,0.5117854000000079,0.5952541999995447,1.7136297999995804,1.7968115000003309,,,,,,prithik_3,001,2020_Feb_05_1248,posner,3.1.5,59.95401527031515,
0.5,180,1,right,2,4,1,0,1,0,8,5,69,6,,,,,,,,,414.11694330000046,414.61697710000044,415.33474040000056,None,414.63374830000066,415.3178343999998,415.8353883,None,right,1,0.31984769999962737,415.8353883,None,None,414.63374830000066,415.8186583000006,0.51167710000027,0.5951244000007136,1.7133434000006673,1.7967711999999665,,,,,,prithik_3,001,2020_Feb_05_1248,posner,3.1.5,59.95401527031515,
-0.5,0,1,left,1,3,1,0,1,0,8,6,70,1,,,,,,,,,416.1863282000004,416.6864869000001,417.4041498000006,None,416.7034016000007,417.3875207000001,417.9048370999999,None,left,1,0.34622249999938504,417.9048370999999,None,None,416.7034016000007,417.88811260000057,0.5116766999999527,0.5952170000000478,1.7132827000004909,1.796710599999642,,,,,,prithik_3,001,2020_Feb_05_1248,posner,3.1.5,59.95401527031515,
0.5,180,1,right,2,4,1,0,1,0,8,7,71,5,,,,,,,,,418.2732590000005,418.77276690000053,419.4906345999998,None,418.7894475000003,419.47389400000066,419.99123190000046,None,right,1,0.1720820000000458,419.99123190000046,None,None,418.7894475000003,419.9744718000002,0.5111660999991727,0.594297199999346,1.7128460999992967,1.7960869999997158,,,,,,prithik_3,001,2020_Feb_05_1248,posner,3.1.5,59.95401527031515,
-0.5,0,1,left,1,3,1,0,1,0,9,0,72,2,,,,,,,,,420.19194789999983,420.69212440000047,421.4096663,None,420.7086964,421.39302680000037,421.9103882999998,None,left,1,0.2367431000002398,421.9103882999998,None,None,420.7086964,421.8935822000003,0.5117024999999558,0.5949224000005415,1.7131475000005594,1.7966073000006872,,,,,,prithik_3,001,2020_Feb_05_1248,posner,3.1.5,59.95401527031515,
0.5,180,1,right,2,4,1,0,1,0,9,1,73,5,,,,,,,,,422.1780982999999,422.6779047,423.39580040000055,None,422.69486440000037,423.3790409000003,423.8964120999999,None,right,1,0.26674329999968904,423.8964120999999,None,None,422.69486440000037,423.87973990000046,0.5114222000001973,0.5950335999996241,1.7132383999996819,1.7968364999996993,,,,,,prithik_3,001,2020_Feb_05_1248,posner,3.1.5,59.95401527031515,
-0.5,180,0,left,2,3,1,0,1,0,9,2,74,4,,,,,,,,,424.1814189000006,424.6809406000002,425.39843120000023,None,424.69757130000016,425.3818363999999,425.89940060000026,None,left,1,0.3197243000004164,425.89940060000026,None,None,424.69757130000016,425.88241280000057,0.511308399999507,0.5946149000001242,1.7127667999993719,1.796246699999756,,,,,,prithik_3,001,2020_Feb_05_1248,posner,3.1.5,59.95401527031515,
0.5,0,0,right,1,4,1,0,1,0,9,3,75,3,,,,,,,,,426.2503394000005,426.75033090000034,427.4679464000001,None,426.76690659999986,427.45138880000013,427.96852350000063,None,right,1,0.40263059999961115,427.96852350000063,None,None,426.76690659999986,427.95216040000014,0.5117763999996896,0.5953693999999814,1.713582100000167,1.7968933000001925,,,,,,prithik_3,001,2020_Feb_05_1248,posner,3.1.5,59.95401527031515,
-0.5,0,1,left,1,3,1,0,1,0,9,4,76,1,,,,,,,,,428.40329999999994,428.90328769999996,429.62103540000044,None,428.9199714000006,429.60442710000007,430.1216776000001,None,left,1,0.2974026000001686,430.1216776000001,None,None,428.9199714000006,430.1049404000005,0.5115556000000652,0.5951418000004196,1.7131847999999081,1.796693100000084,,,,,,prithik_3,001,2020_Feb_05_1248,posner,3.1.5,59.95401527031515,
-0.5,0,1,left,1,3,1,0,1,0,9,5,77,0,,,,,,,,,430.43977580000046,430.9394284,431.65701590000026,None,430.9562028999999,431.64040300000033,432.1576691999999,None,left,1,0.38949440000033064,432.1576691999999,None,None,430.9562028999999,432.1410089000001,0.5116223000004538,0.5950321999998778,1.7131717000002027,1.7966773999996803,,,,,,prithik_3,001,2020_Feb_05_1248,posner,3.1.5,59.95401527031515,
0.5,180,1,right,2,4,1,0,1,0,9,6,78,6,,,,,,,,,432.5755644000001,433.0755779000001,433.7932201000003,None,433.0923622999999,433.7765681000001,434.2942780000003,None,right,1,0.4688039000002391,434.2942780000003,None,None,433.0923622999999,434.2771555999998,0.5114795999998023,0.5949844999995548,1.7130435999997644,1.7968301000000793,,,,,,prithik_3,001,2020_Feb_05_1248,posner,3.1.5,59.95401527031515,
0.5,180,1,right,2,4,1,0,1,0,9,7,79,7,,,,,,,,,434.77879269999994,435.2788379000003,435.9964217000006,None,435.2953371000003,435.9798928,436.49714029999996,434.77879269999994,right,1,0.4099240000005011,436.49714029999996,None,None,435.2953371000003,436.4805049000006,0.5118259000000762,0.5951318000006722,1.7134636000000683,1.796693100000084,,,,,,prithik_3,001,2020_Feb_05_1248,posner,3.1.5,59.95401527031515,
0.5,0,0,right,1,4,1,0,1,0,10,0,80,3,,,,,,,,,436.9318510000003,437.4316073,438.1495660999999,None,437.4483581000004,438.1327289999999,438.65017309999985,None,right,1,0.35284860000047047,438.65017309999985,None,None,437.4483581000004,438.633417,0.5114296000001559,0.5948992000003273,1.7132148000000598,1.7964363999999478,,,,,,prithik_3,001,2020_Feb_05_1248,posner,3.1.5,59.95401527031515,
0.5,180,1,right,2,4,1,0,1,0,10,1,81,7,,,,,,,,,439.0342047000004,439.53459920000023,440.2526613,None,439.5513283,440.2356466000001,440.7533629999998,None,right,1,0.3376856000004409,440.7533629999998,None,None,439.5513283,440.73608109999986,0.5116706999997405,0.5951657999994495,1.7131380000000718,1.7968676000000414,,,,,,prithik_3,001,2020_Feb_05_1248,posner,3.1.5,59.95401527031515,
0.5,180,1,right,2,4,1,0,1,0,10,2,82,5,,,,,,,,,441.12064680000003,441.62080870000045,442.3383554000002,None,441.63727650000055,442.32174250000025,442.8392137999999,None,right,1,0.2999644999999873,442.8392137999999,None,None,441.63727650000055,442.8225014999998,0.5114711999995052,0.5949579999996786,1.7131479999998191,1.7963472999999794,,,,,,prithik_3,001,2020_Feb_05_1248,posner,3.1.5,59.95401527031515,
-0.5,0,1,left,1,3,1,0,1,0,10,3,83,1,,,,,,,,,443.1567679,443.6567687000006,444.37448610000047,None,443.67358330000025,444.35770760000014,444.8752365999999,None,left,1,0.37584119999974064,444.8752365999999,None,None,443.67358330000025,444.8583982,0.5114245000004303,0.5951136000003316,1.7130346000003556,1.796656299999995,,,,,,prithik_3,001,2020_Feb_05_1248,posner,3.1.5,59.95401527031515,
-0.5,180,0,left,2,3,1,0,1,0,10,4,84,4,,,,,,,,,445.27639160000035,445.7763276000005,446.4942968000005,None,445.7932225000004,446.4772948,446.9948920000006,447.4787409999999,left,1,0.47215569999934814,446.9948920000006,None,None,445.7932225000004,446.9779972000006,0.5115452000000005,0.5952351000005365,1.7131988999999521,1.7967868000005183,,,,,,prithik_3,001,2020_Feb_05_1248,posner,3.1.5,59.95401527031515,
-0.5,0,1,left,1,3,1,0,1,0,10,5,85,0,,,,,,,,,447.4958886000004,447.99606889999995,448.7139361999998,None,448.01287480000065,448.69703070000014,449.21467160000066,449.6986101000002,left,1,0.5004181999993307,449.21467160000066,None,None,448.01287480000065,449.1978589,0.5116593000002467,0.5952933999997185,1.7134301999994932,1.7969434999995428,,,,,,prithik_3,001,2020_Feb_05_1248,posner,3.1.5,59.95401527031515,
0.5,180,1,right,2,4,1,0,1,0,10,6,86,6,,,,,,,,,449.73273000000063,450.2325131000007,450.95032850000007,None,450.2492696999998,450.93362140000045,451.45112250000057,451.9349820000007,right,1,0.7598854999996547,451.45112250000057,None,None,450.2492696999998,451.4342922000005,0.5114107999997941,0.5947946999995111,1.7131666999994195,1.796432499999355,,,,,,prithik_3,001,2020_Feb_05_1248,posner,3.1.5,59.95401527031515,
-0.5,0,1,left,1,3,1,0,1,0,10,7,87,2,,,,,,,,,452.23604909999995,452.7359876999999,453.4537743000001,None,452.7530215000006,453.4369015000002,453.95445070000005,None,left,1,0.3284470999997211,453.95445070000005,None,None,452.7530215000006,453.93758570000045,0.5116791000000376,0.5953049000008832,1.7132474000000002,1.7968097000002672,,,,,,prithik_3,001,2020_Feb_05_1248,posner,3.1.5,59.95401527031515,
,,,,,,1,0,1,0,,,,,,,,,,,,,,,,,,,,,,,,,,,,,,,,,,454.30529990000014,None,1.6400000276917126e-05,0.9957522000004246,prithik_3,001,2020_Feb_05_1248,posner,3.1.5,59.95401527031515,
0.5,0,0,right,1,4,2,0,2,0,0,0,0,3,1.1499999345687684e-05,0.09755820000009408,515.3220572999999,None,1.5099999473022763e-05,0.09771980000004987,517.4251162,None,517.7143757000003,518.2093862000002,518.9268951000004,None,518.2261675999998,518.9103703000001,519.4278641000001,None,right,1,0.28685850000056234,519.4278641000001,None,None,518.2261675999998,519.4109223000005,0.5044308999995337,0.587705900000401,1.7059536999995544,1.7895066999999472,,,,,,prithik_3,001,2020_Feb_05_1248,posner,3.1.5,59.95401527031515,
-0.5,0,1,left,1,3,2,0,2,0,0,1,1,0,,,,,,,,,519.7455602999999,520.2453992000001,520.9633418000003,None,520.2622535999999,520.9463880000003,521.4637320000002,None,left,1,0.2669172999994771,521.4637320000002,None,None,520.2622535999999,521.4471850999998,0.5107158000000709,0.59436100000039,1.7124903000003542,1.7959215999999287,,,,,,prithik_3,001,2020_Feb_05_1248,posner,3.1.5,59.95401527031515,
0.5,180,1,right,2,4,2,0,2,0,0,2,2,7,,,,,,,,,521.7481603000006,522.2483661000006,522.9658002000006,None,522.2649722000006,522.9494154000004,523.4665228000003,None,right,1,0.23214660000030563,523.4665228000003,None,None,522.2649722000006,523.4500284000005,0.5120688999995764,0.5952615999995032,1.7136977999998635,1.7971066999998584,,,,,,prithik_3,001,2020_Feb_05_1248,posner,3.1.5,59.95401527031515,
-0.5,180,0,left,2,3,2,0,2,0,0,3,3,4,,,,,,,,,523.7177560999999,524.2174835000005,524.9351930000003,None,524.2341873000005,524.9189093000005,525.4356482000003,None,left,1,0.254955900000823,525.4356482000003,None,None,524.2341873000005,525.4192339000001,0.5113070000006701,0.5950356000003012,1.713039000000208,1.7965352000001076,,,,,,prithik_3,001,2020_Feb_05_1248,posner,3.1.5,59.95401527031515,
-0.5,0,1,left,1,3,2,0,2,0,0,4,4,1,,,,,,,,,525.7202403000001,526.2204172000002,526.9380165000002,None,526.2368733000003,526.9214589000003,527.4385608000002,None,left,1,0.3240970999995625,527.4385608000002,None,None,526.2368733000003,527.4221120000002,0.5116441999998642,0.595126899999741,1.7133143999999447,1.796672700000272,,,,,,prithik_3,001,2020_Feb_05_1248,posner,3.1.5,59.95401527031515,
-0.5,0,1,left,1,3,2,0,2,0,0,5,5,2,,,,,,,,,527.7899629000003,528.2900226000002,529.0074115000007,None,528.3064791000006,528.9909738000006,529.5081675000001,None,left,1,0.3506164999998873,529.5081675000001,None,None,528.3064791000006,529.4916922000002,0.5120891999995365,0.5954932999993616,1.7137408999997206,1.7969607999993968,,,,,,prithik_3,001,2020_Feb_05_1248,posner,3.1.5,59.95401527031515,
0.5,180,1,right,2,4,2,0,2,0,0,6,6,5,,,,,,,,,529.8755778000004,530.3760202000003,531.0937461000003,None,530.3927766000006,531.0768870000002,531.5943484999998,None,right,1,0.24817329999950744,531.5943484999998,None,None,530.3927766000006,531.5776438000003,0.5121202000000267,0.5955707000002803,1.713724700000057,1.797266700000364,,,,,,prithik_3,001,2020_Feb_05_1248,posner,3.1.5,59.95401527031515,
0.5,180,1,right,2,4,2,0,2,0,0,7,7,6,,,,,,,,,531.8620555000007,532.3622036000006,533.0798795000001,None,532.3787960999998,533.0631325000004,533.5805201000003,None,right,1,0.29427510000004986,533.5805201000003,None,None,532.3787960999998,533.5636549000001,0.5116698000001634,0.5949715000006108,1.7131097999999838,1.7966906000001472,,,,,,prithik_3,001,2020_Feb_05_1248,posner,3.1.5,59.95401527031515,
0.5,180,1,right,2,4,2,0,2,0,1,0,8,7,,,,,,,,,533.8993637000003,534.3984080999999,535.1158366999998,None,534.4150273000005,535.0992524000003,535.6165342000004,None,right,1,0.3060528999994858,535.6165342000004,None,None,534.4150273000005,535.6001505000004,0.5114528000003702,0.5949017000002641,1.71317210000052,1.7962334000003466,,,,,,prithik_3,001,2020_Feb_05_1248,posner,3.1.5,59.95401527031515,
-0.5,0,1,left,1,3,2,0,2,0,1,1,9,1,,,,,,,,,535.9508587,536.4511904999999,537.1688153000005,None,536.4677442000002,537.152161,537.6694691000002,None,left,1,0.23707310000008874,537.6694691000002,None,None,536.4677442000002,537.6526847000005,0.5122630999994726,0.5956313999995473,1.71373339999991,1.797094699999434,,,,,,prithik_3,001,2020_Feb_05_1248,posner,3.1.5,59.95401527031515,
-0.5,0,1,left,1,3,2,0,2,0,1,2,10,0,,,,,,,,,537.9367670000001,538.4370157000003,539.1546654000003,None,538.4538573999998,539.1380098999998,539.6553310999998,None,left,1,0.31534390000069834,539.6553310999998,None,None,538.4538573999998,539.6389868000006,0.5114385999995648,0.5951828999995996,1.7133856999998898,1.7966611000001649,,,,,,prithik_3,001,2020_Feb_05_1248,posner,3.1.5,59.95401527031515,
-0.5,0,1,left,1,3,2,0,2,0,1,3,11,2,,,,,,,,,539.9901835999999,540.4901929000007,541.2074861000001,None,540.5067690000005,541.1910839000002,541.7083919000006,None,left,1,0.30220180000014807,541.7083919000006,None,None,540.5067690000005,541.6916259999998,0.511711600000126,0.5949183000002449,1.7131319000000076,1.7965737000004083,,,,,,prithik_3,001,2020_Feb_05_1248,posner,3.1.5,59.95401527031515,
0.5,180,1,right,2,4,2,0,2,0,1,4,12,6,,,,,,,,,542.0262462999999,542.5260039000004,543.2436720000005,None,542.5427322000005,543.2269992000001,543.7445211000004,None,right,1,0.2579547999994247,543.7445211000004,None,None,542.5427322000005,543.7277592999999,0.5113111000000572,0.594835900000362,1.7130464000001666,1.7965799000003244,,,,,,prithik_3,001,2020_Feb_05_1248,posner,3.1.5,59.95401527031515,
0.5,180,1,right,2,4,2,0,2,0,1,5,13,5,,,,,,,,,544.0287198000005,544.5290466000006,545.2463667000002,None,544.5452974,545.2297165,545.747249,None,right,1,0.33526419999998325,545.747249,None,None,544.5452974,545.7304875999998,0.5120197000005646,0.5952257999997528,1.7134437000004255,1.7968879999998535,,,,,,prithik_3,001,2020_Feb_05_1248,posner,3.1.5,59.95401527031515,
-0.5,180,0,left,2,3,2,0,2,0,1,6,14,4,,,,,,,,,546.0988033000003,546.5983445000002,547.3158981000006,None,546.6150943000002,547.2993812000004,547.8165914000001,None,left,1,0.28201369999987946,547.8165914000001,None,None,546.6150943000002,547.7999525000005,0.511489999999867,0.5949571999999534,1.7130583999996816,1.7966659000003347,,,,,,prithik_3,001,2020_Feb_05_1248,posner,3.1.5,59.95401527031515,
0.5,0,0,right,1,4,2,0,2,0,1,7,15,3,,,,,,,,,548.11841,548.6177389000004,549.3353808000002,None,548.6346492000002,549.3189302999999,549.8360599000007,None,right,1,0.1984019999999873,549.8360599000007,None,None,548.6346492000002,549.8196275,0.511205599999812,0.594708399999945,1.7130693999997675,1.796485699999721,,,,,,prithik_3,001,2020_Feb_05_1248,posner,3.1.5,59.95401527031515,
0.5,180,1,right,2,4,2,0,2,0,2,0,16,6,,,,,,,,,550.053852,550.5539046000004,551.2714479000006,None,550.5704112000003,551.2552148000004,551.7722090000007,None,right,1,0.286212500000147,551.7722090000007,None,None,550.5704112000003,551.7557554000005,0.5116289999996297,0.5949109999992288,1.7134637999997722,1.7966913000000204,,,,,,prithik_3,001,2020_Feb_05_1248,posner,3.1.5,59.95401527031515,
0.5,0,0,right,1,4,2,0,2,0,2,1,17,3,,,,,,,,,552.0906580000001,552.5901178000004,553.3075781000007,None,552.6064296000004,553.2910161999998,553.8082450000002,None,right,1,0.3381292999993093,553.8082450000002,None,None,552.6064296000004,553.7916759,0.5102339999994001,0.5935493999995742,1.7117783999992753,1.7950208999991446,,,,,,prithik_3,001,2020_Feb_05_1248,posner,3.1.5,59.95401527031515,
0.5,180,1,right,2,4,2,0,2,0,2,2,18,7,,,,,,,,,554.1759934000002,554.6759827000005,555.3938125000004,None,554.6927538999998,555.3769569000006,555.8945686000006,None,right,1,0.2358726000002207,555.8945686000006,None,None,554.6927538999998,555.8775597000003,0.511364500000127,0.5950661000006221,1.7129226000006383,1.796681200000421,,,,,,prithik_3,001,2020_Feb_05_1248,posner,3.1.5,59.95401527031515,
-0.5,0,1,left,1,3,2,0,2,0,2,3,19,1,,,,,,,,,556.1619243000005,556.6623215999998,557.3799782000006,None,556.6788341000001,557.3631491000006,557.8807379999998,None,left,1,0.2736661000008098,557.8807379999998,None,None,556.6788341000001,557.8640466000006,0.5117385000003196,0.5949305000003733,1.7134495999998762,1.7966817000005904,,,,,,prithik_3,001,2020_Feb_05_1248,posner,3.1.5,59.95401527031515,
-0.5,0,1,left,1,3,2,0,2,0,2,4,20,0,,,,,,,,,558.1816202,558.6817295000001,559.3993420000006,None,558.6983765000004,559.3827501000005,559.9000492000005,None,left,1,0.30241530000057537,559.9000492000005,None,None,558.6983765000004,559.8834004,0.5117129000000205,0.5949208000001818,1.7133671000001414,1.7965727000000697,,,,,,prithik_3,001,2020_Feb_05_1248,posner,3.1.5,59.95401527031515,
0.5,180,1,right,2,4,2,0,2,0,2,5,21,5,,,,,,,,,560.2178954000001,560.7177778000005,561.4353808000005,None,560.7344118000001,561.4189314000005,561.9360139,None,right,1,0.25086019999980635,561.9360139,None,None,560.7344118000001,561.9193744000004,0.5114703999997801,0.5949239000001398,1.7130464000001666,1.7965996000002633,,,,,,prithik_3,001,2020_Feb_05_1248,posner,3.1.5,59.95401527031515,
-0.5,180,0,left,2,3,2,0,2,0,2,6,22,4,,,,,,,,,562.2036304000003,562.7038411000003,563.4214295000002,None,562.7205584000003,563.4046128,563.9220132999999,None,left,1,0.22440800000003946,563.9220132999999,None,None,562.7205584000003,563.9056089000005,0.5118034999995871,0.595220999999583,1.7135564999998678,1.7970838000001095,,,,,,prithik_3,001,2020_Feb_05_1248,posner,3.1.5,59.95401527031515,
-0.5,0,1,left,1,3,2,0,2,0,2,7,23,2,,,,,,,,,564.1729468000003,564.6733670000003,565.3909954000001,None,564.6898479000001,565.3744061000007,565.8915768000006,None,left,1,0.3108809999994264,565.8915768000006,None,None,564.6898479000001,565.8747704000007,0.5119015000000218,0.5953446000003169,1.713288900000407,1.7967705000000933,,,,,,prithik_3,001,2020_Feb_05_1248,posner,3.1.5,59.95401527031515,
-0.5,180,0,left,2,3,2,0,2,0,3,0,24,4,,,,,,,,,566.2255128000006,566.7259296000002,567.4437601999998,None,566.7427965000006,567.4268603,567.9445131000002,None,left,1,0.32202480000069045,567.9445131000002,None,None,566.7427965000006,567.9275821000001,0.5120598000003156,0.5955825999999433,1.7136977000000115,1.7972082000005685,,,,,,prithik_3,001,2020_Feb_05_1248,posner,3.1.5,59.95401527031515,
0.5,0,0,right,1,4,2,0,2,0,3,1,25,3,,,,,,,,,568.2953511000005,568.7954151000004,569.5130906000004,None,568.812253,569.4963585000005,570.0139440000003,None,right,1,0.27644820000023174,570.0139440000003,None,None,568.812253,569.9971562000001,0.5116445000003296,0.595398400000704,1.7133702999999514,1.7967937000003076,,,,,,prithik_3,001,2020_Feb_05_1248,posner,3.1.5,59.95401527031515,
-0.5,0,1,left,1,3,2,0,2,0,3,2,26,1,,,,,,,,,570.3152371000006,570.8148970000002,571.5327225000001,None,570.8315753000006,571.5158373000004,572.0335076000001,572.5171977999998,left,1,0.5846926000003805,572.0335076000001,None,right,570.8315753000006,572.0164890000005,0.5113862999996854,0.594973299999765,1.7129647000001569,1.7966474000004382,0.3789120000001276,,,,,prithik_3,001,2020_Feb_05_1248,posner,3.1.5,59.95401527031515,
-0.5,0,1,left,1,3,2,0,2,0,3,3,27,0,,,,,,,,,572.6350957000004,573.1349383000006,573.8524521999998,None,573.1515353000004,573.8356680000006,574.353263,None,left,1,0.30526520000057644,574.353263,None,None,573.1515353000004,574.3364065000005,0.5114063999999416,0.5949232000002667,1.7128609000001234,1.796491099999912,,,,,,prithik_3,001,2020_Feb_05_1248,posner,3.1.5,59.95401527031515,
-0.5,0,1,left,1,3,2,0,2,0,3,4,28,2,,,,,,,,,574.6878463000003,575.1877666,575.9053398000005,None,575.2041949000004,575.8888361999998,576.4060926000002,None,left,1,0.32416899999952875,576.4060926000002,None,None,575.2041949000004,576.3895738000001,0.5117670999998154,0.5949309999996331,1.713550899999973,1.796935399999711,,,,,,prithik_3,001,2020_Feb_05_1248,posner,3.1.5,59.95401527031515,
0.5,180,1,right,2,4,2,0,2,0,3,5,29,6,,,,,,,,,576.7573981000005,577.2571416999999,577.9746906999999,None,577.2739747000005,577.9582453000003,578.4753504,None,right,1,0.0870096000007834,578.4753504,None,None,577.2739747000005,578.4590881000004,0.5115207999997438,0.5949791000002733,1.7134451000001718,1.7966780999995535,,,,,,prithik_3,001,2020_Feb_05_1248,posner,3.1.5,59.95401527031515,
0.5,180,1,right,2,4,2,0,2,0,3,6,30,7,,,,,,,,,578.5927514000005,579.0931319000001,579.8108241,None,579.1098155999998,579.7940595999999,580.3115089000003,None,right,1,0.2669375999994372,580.3115089000003,None,None,579.1098155999998,580.2945574000005,0.5120111999995061,0.5951989999994112,1.713440499999706,1.7967779999999038,,,,,,prithik_3,001,2020_Feb_05_1248,posner,3.1.5,59.95401527031515,
0.5,180,1,right,2,4,2,0,2,0,3,7,31,5,,,,,,,,,580.5957323000002,581.0956901,581.8135394999999,None,581.1126723000007,581.7966523000005,582.3140013000002,None,right,1,0.30434669999976904,582.3140013000002,None,None,581.1126723000007,582.2973775,0.5119032000002335,0.5955604000000676,1.7135754999999335,1.7969761000003928,,,,,,prithik_3,001,2020_Feb_05_1248,posner,3.1.5,59.95401527031515,
0.5,0,0,right,1,4,2,0,2,0,4,0,32,3,,,,,,,,,582.6487720000005,583.1487205000003,583.866102,None,583.1651987000005,583.8496824000003,584.3667261999999,None,right,1,0.2995987000003879,584.3667261999999,None,None,583.1651987000005,584.3504136000001,0.5117529999997714,0.5951027000000977,1.7134195999997246,1.7966395000003104,,,,,,prithik_3,001,2020_Feb_05_1248,posner,3.1.5,59.95401527031515,
-0.5,0,1,left,1,3,2,0,2,0,4,1,33,1,,,,,,,,,584.6848773000002,585.1848107000005,585.9025053000005,None,585.2014521000001,585.8855340999999,586.4031510000004,586.8869985000001,None,0,,586.4031510000004,None,None,585.2014521000001,586.3862761,0.5115662999996857,0.5948894000002838,1.7130177999997613,1.7965507999997499,,,,,,prithik_3,001,2020_Feb_05_1248,posner,3.1.5,59.95401527031515,
0.5,180,1,right,2,4,2,0,2,0,4,2,34,6,,,,,,,,,587.3876926000003,587.8886221000002,588.6059525000001,587.3876926000003,587.9049425000003,588.5894696000005,589.1067017000005,None,right,1,0.2315559000007852,589.1067017000005,None,None,587.9049425000003,589.0902411000006,0.5140629999996236,0.5972830999999132,1.7156671000002461,1.7990281000002142,,,,,,prithik_3,001,2020_Feb_05_1248,posner,3.1.5,59.95401527031515,
0.5,180,1,right,2,4,2,0,2,0,4,3,35,5,,,,,,,,,589.3579291000005,589.8578674999999,590.5753894,None,589.8743787000003,590.5587665000003,591.0759868000005,None,right,1,0.3903634999996939,591.0759868000005,None,None,589.8743787000003,591.0593841999998,0.5115215999994689,0.5948706999997739,1.7130127999998876,1.796756099999584,,,,,,prithik_3,001,2020_Feb_05_1248,posner,3.1.5,59.95401527031515,
-0.5,0,1,left,1,3,2,0,2,0,4,4,36,2,,,,,,,,,591.4941186000005,591.9940299999998,592.7118856000006,None,592.0107760999999,592.6952258000001,593.2124289000003,None,left,1,0.2539765000001353,593.2124289000003,None,None,592.0107760999999,593.1955926999999,0.5117402000005313,0.5951328999999532,1.7132816000003004,1.7968363999998473,,,,,,prithik_3,001,2020_Feb_05_1248,posner,3.1.5,59.95401527031515,
-0.5,0,1,left,1,3,2,0,2,0,4,5,37,0,,,,,,,,,593.4960812999998,593.9968705000001,594.7147392000006,None,594.0135084000003,594.6978137000006,595.2151091000005,None,left,1,0.30724320000081207,595.2151091000005,None,None,594.0135084000003,595.1986231999999,0.5124898999993093,0.5958734999994704,1.7142176999996082,1.7976432999994358,,,,,,prithik_3,001,2020_Feb_05_1248,posner,3.1.5,59.95401527031515,
-0.5,180,0,left,2,3,2,0,2,0,4,6,38,4,,,,,,,,,595.5497743000005,596.0496561999998,596.7671832000005,None,596.0661263000002,596.7506588000006,597.2679435,None,left,1,0.294153699999697,597.2679435,None,None,596.0661263000002,597.2513927999998,0.5115905000002385,0.5952475000003687,1.7133059000007052,1.7965742000005775,,,,,,prithik_3,001,2020_Feb_05_1248,posner,3.1.5,59.95401527031515,
0.5,180,1,right,2,4,2,0,2,0,4,7,39,7,,,,,,,,,597.5856944000006,598.0856365999998,598.8035909,None,598.1024800000005,598.7866553000003,599.3042925999998,None,right,1,0.2659222000002046,599.3042925999998,None,None,598.1024800000005,599.2874633000001,0.5115654000001086,0.5951266000001851,1.7133718000004592,1.7966366999999082,,,,,,prithik_3,001,2020_Feb_05_1248,posner,3.1.5,59.95401527031515,
-0.5,0,1,left,1,3,2,0,2,0,5,0,40,2,,,,,,,,,599.5889149000004,600.0886368000001,600.8060567000002,None,600.1050381000005,600.789573,601.3067668000003,None,left,1,0.2714280999998664,601.3067668000003,None,None,600.1050381000005,601.2902617,0.5116625999999087,0.5950365999997302,1.713249999999789,1.7966515999996773,,,,,,prithik_3,001,2020_Feb_05_1248,posner,3.1.5,59.95401527031515,
0.5,180,1,right,2,4,2,0,2,0,5,1,41,6,,,,,,,,,601.6077998000001,602.1078401000004,602.8255927999999,None,602.1246080999999,602.8089823999999,603.3262288000005,None,right,1,0.37189959999977873,603.3262288000005,None,None,602.1246080999999,603.3096861000004,0.5118098000002647,0.5953038999996352,1.713638500000343,1.7971224000002621,,,,,,prithik_3,001,2020_Feb_05_1248,posner,3.1.5,59.95401527031515,
0.5,0,0,right,1,4,2,0,2,0,5,2,42,3,,,,,,,,,603.7280182000004,604.2275207000002,604.9451425000007,None,604.2442453000003,604.9284625,605.4457957000004,None,right,1,0.4683204000002661,605.4457957000004,None,left,604.2442453000003,605.4292263000007,0.5114770000000135,0.5948116999998092,1.7131620999998631,1.7966592000002493,0.9900619999998526,,,,,prithik_3,001,2020_Feb_05_1248,posner,3.1.5,59.95401527031515,
0.5,180,1,right,2,4,2,0,2,0,5,3,43,7,,,,,,,,,605.9306065000001,606.4307341000003,607.1484385000003,None,606.4473561000004,607.1317551000002,607.649026,605.9306065000001,right,1,0.31315119999999297,607.649026,None,None,606.4473561000004,607.6322015000005,0.5117700999999215,0.5951147000005221,1.713209900000038,1.7965317999996842,,,,,,prithik_3,001,2020_Feb_05_1248,posner,3.1.5,59.95401527031515,
-0.5,180,0,left,2,3,2,0,2,0,5,4,44,4,,,,,,,,,607.9833910000007,608.4835247000001,609.2010157000004,None,608.5002080000004,609.1844004000004,609.7017421,None,left,1,0.22866129999965779,609.7017421,None,None,608.5002080000004,609.6848850000006,0.5117820999994365,0.5951051000001826,1.713130799999817,1.79702879999968,,,,,,prithik_3,001,2020_Feb_05_1248,posner,3.1.5,59.95401527031515,
0.5,180,1,right,2,4,2,0,2,0,5,5,45,5,,,,,,,,,609.9528657999999,610.4528488000005,611.1704979000006,None,610.4695443999999,611.1538218000005,611.6711243,None,right,1,0.22731930000009015,611.6711243,None,None,610.4695443999999,611.6544494999998,0.511685800000123,0.5949868999996397,1.7132622999997693,1.7965611999998146,,,,,,prithik_3,001,2020_Feb_05_1248,posner,3.1.5,59.95401527031515,
-0.5,0,1,left,1,3,2,0,2,0,5,6,46,1,,,,,,,,,611.9220965000004,612.4220464999999,613.1398555000005,None,612.4390010000006,613.1231194000002,613.6404926000005,None,left,1,0.27371559999937745,613.6404926000005,None,None,612.4390010000006,613.6238395,0.5116073999997752,0.5950416999994559,1.7133769000001848,1.7967557000001761,,,,,,prithik_3,001,2020_Feb_05_1248,posner,3.1.5,59.95401527031515,
-0.5,0,1,left,1,3,2,0,2,0,5,7,47,0,,,,,,,,,613.9416497000002,614.4414635000003,615.1592991000007,None,614.4582946,615.1428434,615.6598267999998,None,left,1,0.31036760000006325,615.6598267999998,None,None,614.4582946,615.6434482000004,0.5114791000005425,0.595342200000232,1.7134398000007423,1.7965997999999672,,,,,,prithik_3,001,2020_Feb_05_1248,posner,3.1.5,59.95401527031515,
0.5,180,1,right,2,4,2,0,2,0,6,0,48,7,,,,,,,,,615.9944752000001,616.4944399000005,617.2120739000002,None,616.5110681000006,617.1954303000002,617.7128228000001,None,right,1,0.26547540000046865,617.7128228000001,None,None,616.5110681000006,617.6960036,0.5117543999995178,0.5950614999992467,1.7133036999994147,1.7968930999995791,,,,,,prithik_3,001,2020_Feb_05_1248,posner,3.1.5,59.95401527031515,
-0.5,0,1,left,1,3,2,0,2,0,6,1,49,1,,,,,,,,,617.9974087,618.4970874,619.2149361000002,None,618.5139269000001,619.1982416000001,619.7153044000006,None,left,1,0.1427651000003607,619.7153044000006,None,None,618.5139269000001,619.6988664999999,0.5115335999998933,0.5951155000002473,1.7132873999998992,1.7965539000006174,,,,,,prithik_3,001,2020_Feb_05_1248,posner,3.1.5,59.95401527031515,
-0.5,0,1,left,1,3,2,0,2,0,6,2,50,2,,,,,,,,,619.8827445000006,620.3832136999999,621.1008747000005,None,620.3999381000003,621.0842321,621.6015347000002,None,left,1,0.36857789999976376,621.6015347000002,None,None,620.3999381000003,621.5847389,0.5117774999998801,0.5949866999999358,1.7132904999998573,1.7969985999998244,,,,,,prithik_3,001,2020_Feb_05_1248,posner,3.1.5,59.95401527031515,
-0.5,0,1,left,1,3,2,0,2,0,6,3,51,0,,,,,,,,,621.9860231000002,622.4859740000002,623.2036501000002,None,622.5026781000006,623.1869053999999,623.7041774999998,None,right,0,0.08998529999917082,623.7041774999998,None,None,622.5026781000006,623.6875240999998,0.5115513000000647,0.5950896000003922,1.7130805000006148,1.7966635000002498,,,,,,prithik_3,001,2020_Feb_05_1248,posner,3.1.5,59.95401527031515,
0.5,0,0,right,1,4,2,0,2,0,6,4,52,3,,,,,,,,,623.8219952,624.3219616000006,625.0396363999998,None,624.3386799999998,625.0229640000007,625.5402498000003,None,right,1,0.253853799999888,625.5402498000003,None,None,624.3386799999998,625.5236946000005,0.511717100000169,0.5949178999999276,1.713438099999621,1.796693499999492,,,,,,prithik_3,001,2020_Feb_05_1248,posner,3.1.5,59.95401527031515,
0.5,180,1,right,2,4,2,0,2,0,6,5,53,6,,,,,,,,,625.8246579000006,626.3244030000005,627.0422573000005,None,626.3412407000005,627.0254013000003,627.5430867000005,None,right,1,0.3628984999995737,627.5430867000005,None,None,626.3412407000005,627.5260498000007,0.5113383999996586,0.594884600000114,1.7129700999994384,1.7965935000001991,,,,,,prithik_3,001,2020_Feb_05_1248,posner,3.1.5,59.95401527031515,
-0.5,180,0,left,2,3,2,0,2,0,6,6,54,4,,,,,,,,,627.9276386000001,628.4275015000003,629.1450436000005,None,628.4441803999998,629.1282956000005,629.6456557000001,None,left,1,0.2845126000001983,629.6456557000001,None,None,628.4441803999998,629.6292785000005,0.5114319000003889,0.5948070000004009,1.7131874000006064,1.7967678000004526,,,,,,prithik_3,001,2020_Feb_05_1248,posner,3.1.5,59.95401527031515,
0.5,180,1,right,2,4,2,0,2,0,6,7,55,5,,,,,,,,,629.9472028,630.4469134999999,631.164436,None,630.4636097000002,631.1480744,631.6651671,None,right,1,0.24900290000005043,631.6651671,None,None,630.4636097000002,631.6487742999998,0.5114600000006249,0.5949620999999752,1.713302900000599,1.7965585000001738,,,,,,prithik_3,001,2020_Feb_05_1248,posner,3.1.5,59.95401527031515,
0.5,180,1,right,2,4,2,0,2,0,7,0,56,5,,,,,,,,,631.9331521000004,632.433188,633.1506878,None,632.4494808,633.1339844000004,633.6514026000004,None,right,1,0.3586542000002737,633.6514026000004,None,None,632.4494808,633.6345234,0.5116736999998466,0.5948061999997662,1.71299369999997,1.7968222999998034,,,,,,prithik_3,001,2020_Feb_05_1248,posner,3.1.5,59.95401527031515,
0.5,180,1,right,2,4,2,0,2,0,7,1,57,6,,,,,,,,,634.0354006000007,634.5357408999998,635.2536146000002,None,634.5527003000007,635.2367503000005,635.7546613000004,None,right,1,0.2872959999995146,635.7546613000004,None,None,634.5527003000007,635.7375880999998,0.5120293999998466,0.5957998000003499,1.713857900000221,1.797233999999662,,,,,,prithik_3,001,2020_Feb_05_1248,posner,3.1.5,59.95401527031515,
0.5,180,1,right,2,4,2,0,2,0,7,2,58,7,,,,,,,,,636.0718228000005,636.5721709999998,637.2898323,None,636.5888862000002,637.2730891000001,637.7904076000004,None,right,1,0.31569709999985207,637.7904076000004,None,None,636.5888862000002,637.7738946,0.5119617999998809,0.5951064999999289,1.7136506000006193,1.7968306000002485,,,,,,prithik_3,001,2020_Feb_05_1248,posner,3.1.5,59.95401527031515,
-0.5,0,1,left,1,3,2,0,2,0,7,3,59,0,,,,,,,,,638.1249606000001,638.6246160000001,639.3426253000007,None,638.6414682000004,639.3256941,639.8434033000003,None,left,1,0.3745681999998851,639.8434033000003,None,None,638.6414682000004,639.8263606999999,0.5112691000003906,0.5948809999999867,1.7130000000006476,1.7964906000006522,,,,,,prithik_3,001,2020_Feb_05_1248,posner,3.1.5,59.95401527031515,
-0.5,180,0,left,2,3,2,0,2,0,7,4,60,4,,,,,,,,,640.2443844,640.7444205000002,641.4620055000005,None,640.7609843999999,641.4452507000005,641.9627871000002,None,left,1,0.33508699999947567,641.9627871000002,None,None,640.7609843999999,641.9460219000002,0.5116600000001199,0.5950204000000667,1.7132495000005292,1.796889100000044,,,,,,prithik_3,001,2020_Feb_05_1248,posner,3.1.5,59.95401527031515,
0.5,0,0,right,1,4,2,0,2,0,7,5,61,3,,,,,,,,,642.3305758000006,642.8306661000006,643.5482710000006,None,642.8473928000003,643.5316339999999,644.0490507000004,None,right,1,0.21724509999967268,644.0490507000004,None,None,642.8473928000003,644.0321887999999,0.5115833999998358,0.5949533999992127,1.7130936999992628,1.7965891999992891,,,,,,prithik_3,001,2020_Feb_05_1248,posner,3.1.5,59.95401527031515,
-0.5,0,1,left,1,3,2,0,2,0,7,6,62,1,,,,,,,,,644.2832093000006,644.7834333000001,645.5009276000001,None,644.7999814000004,645.4840297000001,646.0018133000003,646.4854556,left,1,0.6561503999992055,646.0018133000003,None,None,644.7999814000004,645.9848529999999,0.5119174999999814,0.5951206999998249,1.7133223999999245,1.7971102000001338,,,,,,prithik_3,001,2020_Feb_05_1248,posner,3.1.5,59.95401527031515,
-0.5,0,1,left,1,3,2,0,2,0,7,7,63,2,,,,,,,,,646.6865347000003,647.1866361000002,647.9043301000002,None,647.2031846999998,647.8877467000002,648.4047836,None,left,1,0.36519119999957184,648.4047836,None,None,647.2031846999998,648.3884256000001,0.5116590999996333,0.5950637999994797,1.7134243999998944,1.7966175000001385,,,,,,prithik_3,001,2020_Feb_05_1248,posner,3.1.5,59.95401527031515,
-0.5,0,1,left,1,3,2,0,2,0,8,0,64,1,,,,,,,,,648.7900490000002,649.2895423999998,650.0070102,None,649.3060209000005,649.9906351,650.5077009000006,None,left,1,0.30220789999930275,650.5077009000006,None,None,649.3060209000005,650.4910801000005,0.511371099999451,0.5948220000000219,1.7128985999997894,1.7963853999999628,,,,,,prithik_3,001,2020_Feb_05_1248,posner,3.1.5,59.95401527031515,
0.5,180,1,right,2,4,2,0,2,0,8,1,65,7,,,,,,,,,650.8421746000004,651.3423864000006,652.0600953000003,None,651.3589563000005,652.0432875000006,652.5607034000004,None,right,1,0.24932480000006763,652.5607034000004,None,None,651.3589563000005,652.5439432000003,0.5115348999997877,0.5946395000000848,1.7130419999994047,1.7963718000000881,,,,,,prithik_3,001,2020_Feb_05_1248,posner,3.1.5,59.95401527031515,
0.5,0,0,right,1,4,2,0,2,0,8,2,66,3,,,,,,,,,652.8286189,653.3285052000001,654.0458007000007,None,653.3449672000006,654.0293193000007,654.5464931000006,None,right,1,0.3433798999994906,654.5464931000006,None,None,653.3449672000006,654.5300997000004,0.5116033999993306,0.5950279999997292,1.7131837999995696,1.7965614999993704,,,,,,prithik_3,001,2020_Feb_05_1248,posner,3.1.5,59.95401527031515,
0.5,180,1,right,2,4,2,0,2,0,8,3,67,6,,,,,,,,,654.9140582999999,655.4145125000005,656.1322613000002,None,655.4314519,656.1153623,656.6330508000001,None,right,1,0.28889559999970515,656.6330508000001,None,None,655.4314519,656.6160481000006,0.512400599999637,0.5960364000002301,1.7139165999997203,1.797673400000349,,,,,,prithik_3,001,2020_Feb_05_1248,posner,3.1.5,59.95401527031515,
-0.5,180,0,left,2,3,2,0,2,0,8,4,68,4,,,,,,,,,656.9507002,657.4509058000003,658.1685778000001,None,657.4672642000005,658.1516687000003,658.6691523,None,left,1,0.2606860999994751,658.6691523,None,None,657.4672642000005,658.6523250999999,0.5115782000002582,0.5947729999998046,1.7129813999999897,1.796327900000506,,,,,,prithik_3,001,2020_Feb_05_1248,posner,3.1.5,59.95401527031515,
0.5,180,1,right,2,4,2,0,2,0,8,5,69,5,,,,,,,,,658.9529931000006,659.4535102999998,660.1712585000005,None,659.4701101,660.1543652,660.6718615,None,right,1,0.2101437999999689,660.6718615,None,None,659.4701101,660.6549857999998,0.5120520999998917,0.5954156999996485,1.7135158000000956,1.7971233999996912,,,,,,prithik_3,001,2020_Feb_05_1248,posner,3.1.5,59.95401527031515,
-0.5,0,1,left,1,3,2,0,2,0,8,6,70,0,,,,,,,,,660.9057591999999,661.4060272000006,662.1236943000004,None,661.4230109,662.1070711000002,662.6242688000002,None,left,1,0.2337093999994977,662.6242688000002,None,None,661.4230109,662.6077179000004,0.5111241999993581,0.5948548999995182,1.7128295999991678,1.7964923999998064,,,,,,prithik_3,001,2020_Feb_05_1248,posner,3.1.5,59.95401527031515,
-0.5,0,1,left,1,3,2,0,2,0,8,7,71,2,,,,,,,,,662.8756027999998,663.3753895,664.0931551000003,None,663.3922106999999,664.0762998,664.5939570999999,None,right,0,0.2079555000000255,664.5939570999999,None,None,663.3922106999999,664.5771638000006,0.5112230000004274,0.594849900000554,1.7129783000000316,1.7964803000004395,,,,,,prithik_3,001,2020_Feb_05_1248,posner,3.1.5,59.95401527031515,
