targetX,cueOri,congr,corrAns,pin_cue,pin_target,block.thisRepN,block.thisTrialN,block.thisN,block.thisIndex,posner_task.thisRepN,posner_task.thisTrialN,posner_task.thisN,posner_task.thisIndex,port_start_block.started,port_start_block.stopped,text_2.started,text_2.stopped,p_port.started,p_port.stopped,text.started,text.stopped,fixation_1.started,fixation_1.stopped,fixation_2.started,fixation_2.stopped,cue.started,cue.stopped,target.started,target.stopped,correct_key_resp.keys,correct_key_resp.corr,correct_key_resp.rt,correct_key_resp.started,correct_key_resp.stopped,early_resp.keys,early_resp.started,early_resp.stopped,trigger_cue.started,trigger_cue.stopped,trigger_target.started,trigger_target.stopped,early_resp.rt,break_text.started,break_text.stopped,end_port.started,end_port.stopped,participant,session,date,expName,psychopyVersion,frameRate,
0.5,180,1,right,2,4,0,0,0,0,0,0,0,5,1.759999940986745e-05,0.09242429999994783,16.0152405000008,None,1.3799999578623101e-05,0.09948979999990115,17.90113030000066,None,18.24555380000038,18.752253600000586,19.453303000000233,None,18.76869910000005,19.453303000000233,19.953741199999968,None,right,1,0.3264411000000109,19.953741199999968,None,None,18.76869910000005,19.953741199999968,0.5161499000005279,0.5995026000000507,1.7011323000006087,1.8011998000001768,,,,,,faizah_1,001,2020_Jan_10_1357,posner,3.1.5,59.951139821080574,
-0.5,180,0,left,2,3,0,0,0,0,0,1,1,4,,,,,,,,,20.30550190000031,20.804868900000656,21.522670900000776,None,20.82185770000069,21.50592250000045,22.023210100000142,None,left,1,0.36892449999959354,22.023210100000142,None,None,20.82185770000069,22.00661610000043,0.5106175999999323,0.5941361999994115,1.7123432999997021,1.7958998999993128,,,,,,faizah_1,001,2020_Jan_10_1357,posner,3.1.5,59.951139821080574,
-0.5,0,1,left,1,3,0,0,0,0,0,2,2,1,,,,,,,,,22.408158600000206,22.907829600000696,23.625469600000542,None,22.924350700000105,23.608892500000366,24.126067800000783,None,left,1,0.32206029999997554,24.126067800000783,None,None,22.924350700000105,24.109559400000762,0.5114289000002827,0.5950130000001081,1.713147100000242,1.7966058000001794,,,,,,faizah_1,001,2020_Jan_10_1357,posner,3.1.5,59.951139821080574,
-0.5,0,1,left,1,3,0,0,0,0,0,3,3,2,,,,,,,,,24.47754690000056,24.977445100000295,25.694913199999974,None,24.99403380000058,25.678382400000373,26.195756000000074,None,left,1,0.3644953000002715,26.195756000000074,None,None,24.99403380000058,26.179082200000266,0.5116465000000971,0.595092399999885,1.7132603999998537,1.7966472999996768,,,,,,faizah_1,001,2020_Jan_10_1357,posner,3.1.5,59.951139821080574,
-0.5,0,1,left,1,3,0,0,0,0,0,4,4,0,,,,,,,,,26.580541900000753,27.08035220000056,27.797943000000487,None,27.097331300000405,27.781352300000435,28.29857930000071,None,left,1,0.40574300000025687,28.29857930000071,None,None,27.097331300000405,28.28196350000053,0.5112263999999413,0.5946356000004016,1.712819500000478,1.7961604000001898,,,,,,faizah_1,001,2020_Jan_10_1357,posner,3.1.5,59.951139821080574,
0.5,180,1,right,2,4,0,0,0,0,0,5,5,7,,,,,,,,,28.733154500000637,29.233236100000795,29.951155500000823,None,29.250067200000558,29.934139400000277,30.45175510000081,None,right,1,0.268483699999706,30.45175510000081,None,None,29.250067200000558,30.434865100000025,0.5117129999998724,0.595146300000124,1.7133275999995021,1.7967884999998205,,,,,,faizah_1,001,2020_Jan_10_1357,posner,3.1.5,59.951139821080574,
0.5,180,1,right,2,4,0,0,0,0,0,6,6,6,,,,,,,,,30.735824900000807,31.23592650000046,31.953663700000106,None,31.252758399999948,31.936909200000628,32.45447000000058,None,right,1,0.2817752000000837,32.45447000000058,None,None,31.252758399999948,32.437727300000006,0.5116988999998284,0.5953212000003987,1.713480299999901,1.7970580000001064,,,,,,faizah_1,001,2020_Jan_10_1357,posner,3.1.5,59.951139821080574,
0.5,0,0,right,1,4,0,0,0,0,0,7,7,3,,,,,,,,,32.75575380000009,33.255454300000565,33.97310210000069,None,33.27222640000036,33.95641969999997,34.47394980000081,None,right,1,0.4142470000006142,34.47394980000081,None,None,33.27222640000036,34.45709330000045,0.5116527000000133,0.5950543999997535,1.7132731000001513,1.7969333000000915,,,,,,faizah_1,001,2020_Jan_10_1357,posner,3.1.5,59.951139821080574,
-0.5,0,1,left,1,3,0,0,0,0,1,0,8,0,,,,,,,,,34.90874840000015,35.40855450000072,36.12598950000029,None,35.425041800000145,36.10954530000072,36.62664280000081,None,left,1,0.3334878999994544,36.62664280000081,None,None,35.425041800000145,36.6101333000006,0.5117110000001048,0.5950007000001278,1.713272599999982,1.7967060000000856,,,,,,faizah_1,001,2020_Jan_10_1357,posner,3.1.5,59.951139821080574,
-0.5,0,1,left,1,3,0,0,0,0,1,1,9,1,,,,,,,,,36.97739580000052,37.47807570000077,38.19556980000016,None,37.494467800000166,38.178986500000065,38.696210100000826,None,left,1,0.30389049999939743,38.696210100000826,None,None,37.494467800000166,38.67958920000001,0.511750600000596,0.5952536000004329,1.7132638000002771,1.7967648000003464,,,,,,faizah_1,001,2020_Jan_10_1357,posner,3.1.5,59.951139821080574,
-0.5,180,0,left,2,3,0,0,0,0,1,2,10,4,,,,,,,,,39.03091190000032,39.53078860000005,40.24829040000077,None,39.54752460000054,40.23181190000014,40.74920360000033,None,left,1,0.41085240000029444,40.74920360000033,None,None,39.54752460000054,40.7325563000004,0.5113051999996969,0.5945959999999104,1.7130378000001656,1.7961414000001241,,,,,,faizah_1,001,2020_Jan_10_1357,posner,3.1.5,59.951139821080574,
-0.5,0,1,left,1,3,0,0,0,0,1,3,11,2,,,,,,,,,41.183297100000345,41.683822100000725,42.40154100000018,None,41.700405700000374,42.3845936000007,42.902308300000186,None,left,1,0.41777970000021014,42.902308300000186,None,None,41.700405700000374,42.88525050000044,0.5122856999996657,0.5957122999998319,1.7137023999994199,1.7972964000000502,,,,,,faizah_1,001,2020_Jan_10_1357,posner,3.1.5,59.951139821080574,
0.5,0,0,right,1,4,0,0,0,0,1,4,12,3,,,,,,,,,43.33691760000056,43.83653410000079,44.554187900000215,None,43.8534795000005,44.537752100000034,45.054998100000375,None,right,1,0.3130159000002095,45.054998100000375,None,None,43.8534795000005,45.03835230000004,0.5115101999999752,0.5950818999999683,1.713309499999923,1.7969206999996459,,,,,,faizah_1,001,2020_Jan_10_1357,posner,3.1.5,59.951139821080574,
0.5,180,1,right,2,4,0,0,0,0,1,5,13,5,,,,,,,,,45.38921610000034,45.889500000000226,46.60712550000062,None,45.906070300000465,46.59036770000057,47.10797520000051,None,right,1,0.3642378999993525,47.10797520000051,None,None,45.906070300000465,47.091258800000105,0.5122261999995317,0.5956878999995752,1.7139679000001706,1.7972624999993059,,,,,,faizah_1,001,2020_Jan_10_1357,posner,3.1.5,59.951139821080574,
0.5,180,1,right,2,4,0,0,0,0,1,6,14,7,,,,,,,,,47.49276870000085,47.99253450000015,48.71003560000008,None,48.00917610000033,48.69342730000062,49.21074270000008,None,right,1,0.3575611000005665,49.21074270000008,None,None,48.00917610000033,49.194033100000524,0.511569000000236,0.5948471000001518,1.7130536000004213,1.79656470000009,,,,,,faizah_1,001,2020_Jan_10_1357,posner,3.1.5,59.951139821080574,
0.5,180,1,right,2,4,0,0,0,0,1,7,15,6,,,,,,,,,49.59530040000027,50.095258500000455,50.812978300000395,None,50.112095800000134,50.79621380000026,51.313526300000376,None,right,1,0.2947987000006833,51.313526300000376,None,None,50.112095800000134,51.29707700000017,0.5116605999992316,0.595138899999256,1.7134409999998752,1.7967283999996653,,,,,,faizah_1,001,2020_Jan_10_1357,posner,3.1.5,59.951139821080574,
0.5,180,1,right,2,4,0,0,0,0,2,0,16,5,,,,,,,,,51.6316566000005,52.13151379999999,52.84913370000049,None,52.14807220000057,52.83238820000042,53.34987309999997,None,right,1,0.3623258999996324,53.34987309999997,None,None,52.14807220000057,53.333065499999975,0.5117301000000225,0.5951586000001043,1.7132655000004888,1.7966089999999895,,,,,,faizah_1,001,2020_Jan_10_1357,posner,3.1.5,59.951139821080574,
-0.5,180,0,left,2,3,0,0,0,0,2,1,17,4,,,,,,,,,53.73448400000052,54.23430090000056,54.95197320000079,None,54.25124589999996,54.93511430000035,55.45285030000014,None,left,1,0.42722560000038357,55.45285030000014,None,None,54.25124589999996,55.435841900000014,0.5115561000002344,0.5950267999996868,1.7130788000004031,1.7967902999998842,,,,,,faizah_1,001,2020_Jan_10_1357,posner,3.1.5,59.951139821080574,
0.5,180,1,right,2,4,0,0,0,0,2,2,18,7,,,,,,,,,55.90420440000071,56.403925900000104,57.121796900000845,None,56.42074560000037,57.10484290000022,57.62242210000022,None,right,1,0.3056138000001738,57.62242210000022,None,None,56.42074560000037,57.605641000000105,0.511243299999478,0.5946759999997084,1.71293759999935,1.7964133999994374,,,,,,faizah_1,001,2020_Jan_10_1357,posner,3.1.5,59.951139821080574,
-0.5,0,1,left,1,3,0,0,0,0,2,3,19,1,,,,,,,,,57.95728710000003,58.45679410000048,59.174551100000826,None,58.47339270000066,59.15775650000069,59.675049800000124,None,left,1,0.31696540000029927,59.675049800000124,None,None,58.47339270000066,59.65854750000017,0.5116760000000795,0.5951195000006919,1.71340550000059,1.7967574000003879,,,,,,faizah_1,001,2020_Jan_10_1357,posner,3.1.5,59.951139821080574,
-0.5,0,1,left,1,3,0,0,0,0,2,4,20,0,,,,,,,,,60.010122700000466,60.50952600000073,61.22718250000071,None,60.526217700000416,61.210607800000616,61.72799699999996,62.212080700000115,left,1,0.48007159999997384,61.72799699999996,None,None,60.526217700000416,61.71127969999998,0.5112977999997383,0.5948773999998593,1.7130294999997204,1.7963175000004412,,,,,,faizah_1,001,2020_Jan_10_1357,posner,3.1.5,59.951139821080574,
0.5,180,1,right,2,4,0,0,0,0,2,5,21,6,,,,,,,,,62.228918600000725,62.72920410000006,63.446865300000354,None,62.74603019999995,63.43038390000038,63.94776330000059,None,right,1,0.2523166000000856,63.94776330000059,None,None,62.74603019999995,63.931094600000506,0.5114869999997609,0.5950323999995817,1.713344099999631,1.7965517000002365,,,,,,faizah_1,001,2020_Jan_10_1357,posner,3.1.5,59.951139821080574,
-0.5,0,1,left,1,3,0,0,0,0,2,6,22,2,,,,,,,,,64.2154988000002,64.71530930000063,65.43314380000083,None,64.73227240000051,65.41624240000056,65.93368530000043,None,left,1,0.266410199999882,65.93368530000043,None,None,64.73227240000051,65.91712920000009,0.5114564000004975,0.5951635000001261,1.7132579999997688,1.7967956000002232,,,,,,faizah_1,001,2020_Jan_10_1357,posner,3.1.5,59.951139821080574,
0.5,0,0,right,1,4,0,0,0,0,2,7,23,3,,,,,,,,,66.21836600000006,66.71798540000054,67.43569190000017,None,66.7347092,67.41911960000016,67.93640940000023,None,right,1,0.3836484000003111,67.93640940000023,None,None,66.7347092,67.91979540000011,0.5110905999999886,0.5948784000001979,1.7128757000000405,1.7965110000004643,,,,,,faizah_1,001,2020_Jan_10_1357,posner,3.1.5,59.951139821080574,
0.5,0,0,right,1,4,0,0,0,0,3,0,24,3,,,,,,,,,68.33805520000078,68.83796600000005,69.55548620000081,None,68.8543552000001,69.53870220000044,70.05603150000024,None,right,1,0.3759966000006898,70.05603150000024,None,None,68.8543552000001,70.03940500000044,0.5118142999999691,0.5951629000001049,1.7132314000000406,1.7966896999996607,,,,,,faizah_1,001,2020_Jan_10_1357,posner,3.1.5,59.951139821080574,
0.5,180,1,right,2,4,0,0,0,0,3,1,25,7,,,,,,,,,70.45776540000043,70.9573745000007,71.67488360000061,None,70.97396879999997,71.65853120000065,72.17563490000066,None,right,1,0.32052050000038435,72.17563490000066,None,None,70.97396879999997,72.1588485000002,0.5117909999999029,0.5949203000000125,1.7129770000001372,1.7966437999994014,,,,,,faizah_1,001,2020_Jan_10_1357,posner,3.1.5,59.951139821080574,
-0.5,0,1,left,1,3,0,0,0,0,3,2,26,1,,,,,,,,,72.52679760000046,73.02675360000012,73.74445080000078,None,73.04356880000068,73.72779710000032,74.24513070000012,None,left,1,0.36286500000005617,74.24513070000012,None,None,73.04356880000068,74.2285339,0.5116015000003244,0.5952046000002156,1.713348300000689,1.7968473999999333,,,,,,faizah_1,001,2020_Jan_10_1357,posner,3.1.5,59.951139821080574,
0.5,180,1,right,2,4,0,0,0,0,3,3,27,5,,,,,,,,,74.63024500000029,75.12981060000038,75.84744709999995,None,75.14630370000032,75.83080620000055,76.34821000000011,None,right,1,0.28399959999933344,76.34821000000011,None,None,75.14630370000032,76.33149110000068,0.5115261999999348,0.5949196999999913,1.713190299999951,1.7964853000003131,,,,,,faizah_1,001,2020_Jan_10_1357,posner,3.1.5,59.951139821080574,
0.5,180,1,right,2,4,0,0,0,0,3,4,28,6,,,,,,,,,76.64962260000084,77.14914800000042,77.86697340000046,None,77.16580860000067,77.85028320000038,78.36749469999995,None,right,1,0.3605448999996952,78.36749469999995,None,None,77.16580860000067,78.35106350000024,0.5114495000007082,0.5949429000002056,1.713348300000689,1.7964461000001393,,,,,,faizah_1,001,2020_Jan_10_1357,posner,3.1.5,59.951139821080574,
-0.5,0,1,left,1,3,0,0,0,0,3,5,29,0,,,,,,,,,78.75216610000007,79.25222150000081,79.9697455000005,None,79.26879310000004,79.95316460000049,80.47057430000041,None,left,1,0.31344669999998587,80.47057430000041,None,None,79.26879310000004,80.4537220000002,0.5117994000002,0.5951227000005019,1.7132882000005338,1.796874100000423,,,,,,faizah_1,001,2020_Jan_10_1357,posner,3.1.5,59.951139821080574,
-0.5,180,0,left,2,3,0,0,0,0,3,6,30,4,,,,,,,,,80.80444460000035,81.30501810000078,82.02270880000015,None,81.32160300000032,82.00580830000035,82.52320050000071,None,left,1,0.4687979999998788,82.52320050000071,None,None,81.32160300000032,82.50664760000018,0.5123229999999239,0.5955103000005693,1.7139348999999129,1.7975092000006043,,,,,,faizah_1,001,2020_Jan_10_1357,posner,3.1.5,59.951139821080574,
-0.5,0,1,left,1,3,0,0,0,0,3,7,31,2,,,,,,,,,83.00827950000075,83.5078295000003,84.2255309000002,None,83.52454990000024,84.20898750000015,84.72637560000021,83.00827950000075,left,1,0.3375802999998996,84.72637560000021,None,None,83.52454990000024,84.70970970000053,0.5114241999999649,0.5950180999998338,1.7132811000001311,1.7966394999994009,,,,,,faizah_1,001,2020_Jan_10_1357,posner,3.1.5,59.951139821080574,
-0.5,0,1,left,1,3,0,0,0,0,4,0,32,1,,,,,,,,,85.09393190000083,85.59405650000008,86.31173380000018,None,85.61081790000026,86.29493110000021,86.81256910000047,None,left,1,0.4434568999995463,86.81256910000047,None,None,85.61081790000026,86.79586410000047,0.5116355000000112,0.5952294999997321,1.7134237999998732,1.7969046999996863,,,,,,faizah_1,001,2020_Jan_10_1357,posner,3.1.5,59.951139821080574,
0.5,180,1,right,2,4,0,0,0,0,4,1,33,6,,,,,,,,,87.28063670000029,87.78056900000047,88.49827630000073,None,87.79705950000061,88.48146910000014,88.99891130000015,None,right,1,0.33715459999984887,88.99891130000015,None,None,87.79705950000061,88.98211130000072,0.5118499000000156,0.5950947999999698,1.7133792000004178,1.796772300000157,,,,,,faizah_1,001,2020_Jan_10_1357,posner,3.1.5,59.951139821080574,
-0.5,0,1,left,1,3,0,0,0,0,4,2,34,2,,,,,,,,,89.36733600000025,89.86696630000006,90.5842586000008,None,89.88333580000017,90.56781040000078,91.08494640000026,None,left,1,0.29112999999961175,91.08494640000026,None,None,89.88333580000017,91.06830780000018,0.5116981999999552,0.5949883000002956,1.713027200000397,1.796737700000449,,,,,,faizah_1,001,2020_Jan_10_1357,posner,3.1.5,59.951139821080574,
-0.5,0,1,left,1,3,0,0,0,0,4,3,35,0,,,,,,,,,91.40293240000028,91.90279790000022,92.6205146000002,None,91.91948769999999,92.60376180000003,93.12119040000016,None,left,1,0.35879320000003645,93.12119040000016,None,None,91.91948769999999,93.10439410000072,0.5117338999998537,0.5951340999999957,1.7133103999995,1.796974500000033,,,,,,faizah_1,001,2020_Jan_10_1357,posner,3.1.5,59.951139821080574,
0.5,180,1,right,2,4,0,0,0,0,4,4,36,5,,,,,,,,,93.50633440000001,94.00563690000035,94.72324879999996,None,94.02243120000003,94.70689949999996,95.22413630000028,None,right,1,0.29576670000005834,95.22413630000028,None,None,94.02243120000003,95.20745560000069,0.5112994000000981,0.5947377000002234,1.7130808000001707,1.7964848999999958,,,,,,faizah_1,001,2020_Jan_10_1357,posner,3.1.5,59.951139821080574,
0.5,180,1,right,2,4,0,0,0,0,4,5,37,7,,,,,,,,,95.54215130000011,96.04207940000015,96.75959480000074,None,96.05860260000009,96.7427946000007,97.26020970000081,None,right,1,0.29987159999927826,97.26020970000081,None,None,96.05860260000009,97.2434159000004,0.5117915999999241,0.5948226999998951,1.7131147999998575,1.7969631999994817,,,,,,faizah_1,001,2020_Jan_10_1357,posner,3.1.5,59.951139821080574,
0.5,0,0,right,1,4,0,0,0,0,4,6,38,3,,,,,,,,,97.57885740000074,98.07765710000058,98.79576150000048,None,98.09444540000004,98.77907510000023,99.2962535000006,None,right,1,0.44767830000000686,99.2962535000006,None,left,98.09444540000004,99.2796588000001,0.5109168999997564,0.5943518999993103,1.712866199999553,1.7963831999995818,0.6735210999995616,,,,,faizah_1,001,2020_Jan_10_1357,posner,3.1.5,59.951139821080574,
-0.5,180,0,left,2,3,0,0,0,0,4,7,39,4,,,,,,,,,99.76457980000032,100.26428290000058,100.98208130000057,None,100.28107920000002,100.96522040000036,101.48275550000017,None,left,1,0.4452578000000358,101.48275550000017,None,None,100.28107920000002,101.46587270000055,0.5114719000002879,0.595080300000518,1.7130805000006148,1.7965853000005154,,,,,,faizah_1,001,2020_Jan_10_1357,posner,3.1.5,59.951139821080574,
0.5,180,1,right,2,4,0,0,0,0,5,0,40,7,,,,,,,,,101.95105130000047,102.45081010000013,103.1682922,None,102.46743240000069,103.15176310000061,103.66904150000028,None,right,1,0.3069344999994428,103.66904150000028,None,None,102.46743240000069,103.65246280000065,0.5117536999996446,0.594924699999865,1.7133823000003758,1.7967011999999158,,,,,,faizah_1,001,2020_Jan_10_1357,posner,3.1.5,59.951139821080574,
-0.5,0,1,left,1,3,0,0,0,0,5,1,41,1,,,,,,,,,104.00351670000055,104.50361820000035,105.22107380000034,None,104.52018110000063,105.20457550000083,105.72196010000062,None,left,1,0.3579141999998683,105.72196010000062,None,None,104.52018110000063,105.70504650000021,0.5118424000002051,0.5950986000007106,1.713257700000213,1.7968054000002667,,,,,,faizah_1,001,2020_Jan_10_1357,posner,3.1.5,59.951139821080574,
-0.5,0,1,left,1,3,0,0,0,0,5,2,42,2,,,,,,,,,106.10684310000033,106.60636550000072,107.32389500000045,None,106.62309500000083,107.30741170000056,107.82463100000041,None,left,1,0.4074655000003986,107.82463100000041,None,None,106.62309500000083,107.8081899000008,0.5114934000002904,0.59496130000025,1.713258799999494,1.7965357000002768,,,,,,faizah_1,001,2020_Jan_10_1357,posner,3.1.5,59.951139821080574,
-0.5,180,0,left,2,3,0,0,0,0,5,3,43,4,,,,,,,,,108.25960070000019,108.7594678000005,109.47712530000081,None,108.77599720000035,109.46027920000051,109.97773690000031,None,left,1,0.40628210000068066,109.97773690000031,None,None,108.77599720000035,109.96105650000027,0.5116226000000097,0.5949477000003753,1.7131951999999728,1.7965634000001955,,,,,,faizah_1,001,2020_Jan_10_1357,posner,3.1.5,59.951139821080574,
0.5,180,1,right,2,4,0,0,0,0,5,4,44,6,,,,,,,,,110.41240290000042,110.91233350000039,111.63006160000077,None,110.9291819,111.61342910000076,112.13077850000082,None,right,1,0.3491129000003639,112.13077850000082,None,None,110.9291819,112.11387660000037,0.5117361999991772,0.5951144999999087,1.7132590999999593,1.7968849999997474,,,,,,faizah_1,001,2020_Jan_10_1357,posner,3.1.5,59.951139821080574,
-0.5,0,1,left,1,3,0,0,0,0,5,5,45,0,,,,,,,,,112.49891790000038,112.99847810000028,113.71610300000066,None,113.01504010000008,113.69963240000016,114.21684430000005,None,left,1,0.37512209999931656,114.21684430000005,None,None,113.01504010000008,114.20030860000043,0.5114144999997734,0.5950931999996101,1.7132156999996369,1.7964625000004162,,,,,,faizah_1,001,2020_Jan_10_1357,posner,3.1.5,59.951139821080574,
0.5,180,1,right,2,4,0,0,0,0,5,6,46,5,,,,,,,,,114.61871860000065,115.11808760000076,115.83579550000013,None,115.13473599999998,115.81901990000006,116.33649110000079,None,right,1,0.31140770000001794,116.33649110000079,None,None,115.13473599999998,116.31985050000003,0.5112177000000884,0.5949221000000762,1.7129558999995425,1.79629549999936,,,,,,faizah_1,001,2020_Jan_10_1357,posner,3.1.5,59.951139821080574,
0.5,0,0,right,1,4,0,0,0,0,5,7,47,3,,,,,,,,,116.67117300000064,117.1710677000001,117.88868030000049,None,117.1878428,117.87196160000076,118.38932850000037,None,right,1,0.32267830000000686,118.38932850000037,None,None,117.1878428,118.3725043000004,0.5115617999999813,0.5948469000004479,1.7129853000005824,1.7965357000002768,,,,,,faizah_1,001,2020_Jan_10_1357,posner,3.1.5,59.951139821080574,
-0.5,0,1,left,1,3,0,0,0,0,6,0,48,1,,,,,,,,,118.74041320000015,119.24043530000017,119.95810430000074,None,119.25729980000051,119.94179150000036,120.45873930000016,None,left,1,0.3972045000000435,120.45873930000016,None,None,119.25729980000051,120.44219260000045,0.511711600000126,0.5950561999998172,1.7134472999996433,1.796719199999643,,,,,,faizah_1,001,2020_Jan_10_1357,posner,3.1.5,59.951139821080574,
-0.5,0,1,left,1,3,0,0,0,0,6,1,49,0,,,,,,,,,120.8770783,121.37677970000004,122.0941958000003,None,121.39338090000001,122.07770440000058,122.59490090000054,None,left,1,0.38089060000038444,122.59490090000054,None,None,121.39338090000001,122.57824460000029,0.5115510999994513,0.5949413999996978,1.7129571999994369,1.796642499999507,,,,,,faizah_1,001,2020_Jan_10_1357,posner,3.1.5,59.951139821080574,
0.5,180,1,right,2,4,0,0,0,0,6,2,50,7,,,,,,,,,122.99660110000059,123.49630310000066,124.21379680000064,None,123.51312890000008,124.19732999999997,124.71449060000032,None,right,1,0.3013651999999638,124.71449060000032,None,None,123.51312890000008,124.69805540000016,0.5115787000004275,0.5949626999999964,1.7133088000000498,1.7966974999999366,,,,,,faizah_1,001,2020_Jan_10_1357,posner,3.1.5,59.951139821080574,
0.5,180,1,right,2,4,0,0,0,0,6,3,51,6,,,,,,,,,125.03228840000065,125.53243790000033,126.24999370000023,None,125.5492049000004,126.23306990000037,126.75107810000009,None,right,1,0.288718499999959,126.75107810000009,None,None,125.5492049000004,126.73395710000023,0.5118039999997563,0.5952893000003314,1.713311600000452,1.7969904999999926,,,,,,faizah_1,001,2020_Jan_10_1357,posner,3.1.5,59.951139821080574,
0.5,180,1,right,2,4,0,0,0,0,6,4,52,5,,,,,,,,,127.0689807000008,127.56843019999997,128.2864599000004,None,127.5851932000005,128.26957250000032,128.78691030000027,None,right,1,0.3170307000000321,128.78691030000027,None,None,127.5851932000005,128.77029540000058,0.5113086000001204,0.5949893000006341,1.7131484000001365,1.7966451000002053,,,,,,faizah_1,001,2020_Jan_10_1357,posner,3.1.5,59.951139821080574,
0.5,0,0,right,1,4,0,0,0,0,6,5,53,3,,,,,,,,,129.12205580000045,129.62136330000067,130.33922970000003,None,129.6382706000004,130.32256620000044,130.84002020000025,None,right,1,0.3918419999999969,130.84002020000025,None,None,129.6382706000004,130.82296870000027,0.5113473999999769,0.5947141999995438,1.7129447999996046,1.796337499999936,,,,,,faizah_1,001,2020_Jan_10_1357,posner,3.1.5,59.951139821080574,
-0.5,0,1,left,1,3,0,0,0,0,6,6,54,2,,,,,,,,,131.25795720000042,131.7577624000005,132.47527340000033,None,131.77429340000072,132.45871920000081,132.97597180000048,None,left,1,0.391910999999709,132.97597180000048,None,None,131.77429340000072,132.95937250000043,0.5117529999997714,0.5952041999998983,1.7133469000000332,1.7966558999996778,,,,,,faizah_1,001,2020_Jan_10_1357,posner,3.1.5,59.951139821080574,
-0.5,180,0,left,2,3,0,0,0,0,6,7,55,4,,,,,,,,,133.39400150000074,133.89376090000042,134.61171300000024,None,133.91062910000073,134.5947831000003,135.11225420000028,None,left,1,0.40765579999970214,135.11225420000028,None,None,133.91062910000073,135.09542370000054,0.5116268000001583,0.5953492999997252,1.7132704000005106,1.7969922000002043,,,,,,faizah_1,001,2020_Jan_10_1357,posner,3.1.5,59.951139821080574,
-0.5,0,1,left,1,3,0,0,0,0,7,0,56,2,,,,,,,,,135.54711510000016,136.04701850000038,136.76444320000064,None,136.06344720000016,136.74797450000005,137.2650351000002,None,left,1,0.3747508000005837,137.2650351000002,None,None,136.06344720000016,137.2484828000006,0.5118024999992485,0.5951233999994656,1.7132449999999153,1.7969435999993948,,,,,,faizah_1,001,2020_Jan_10_1357,posner,3.1.5,59.951139821080574,
0.5,180,1,right,2,4,0,0,0,0,7,1,57,7,,,,,,,,,137.6655993000004,138.16643870000007,138.88413519999995,None,138.18307560000085,138.86742690000028,139.38466900000003,139.86888350000027,right,1,0.4711224000002403,139.38466900000003,None,None,138.18307560000085,139.36803480000071,0.5124001000003773,0.5958940000000439,1.7140016000003016,1.7977232000002914,,,,,,faizah_1,001,2020_Jan_10_1357,posner,3.1.5,59.951139821080574,
0.5,180,1,right,2,4,0,0,0,0,7,2,58,6,,,,,,,,,139.88635240000076,140.38611220000075,141.10368780000044,None,140.40295080000033,141.08718320000025,141.6044522000002,None,right,1,0.3631826999999248,141.6044522000002,None,None,140.40295080000033,141.5877958000001,0.5115541000004669,0.5949832000005699,1.713195899999846,1.7966934000005494,,,,,,faizah_1,001,2020_Jan_10_1357,posner,3.1.5,59.951139821080574,
-0.5,180,0,left,2,3,0,0,0,0,7,3,59,4,,,,,,,,,141.98947560000033,142.48909930000082,143.20684430000074,None,142.50573770000028,143.19032610000068,143.70746830000007,None,left,1,0.41232360000049084,143.70746830000007,None,None,142.50573770000028,143.6908430000003,0.511432600000262,0.59491270000035,1.7131520000002638,1.7965087000002313,,,,,,faizah_1,001,2020_Jan_10_1357,posner,3.1.5,59.951139821080574,
0.5,0,0,right,1,4,0,0,0,0,7,4,60,3,,,,,,,,,144.14240670000072,144.64215230000082,145.3598137000008,None,144.65892050000002,145.3429343000007,145.86050969999997,None,right,1,0.3472850999996808,145.86050969999997,None,None,144.65892050000002,145.8435184,0.5116637999999512,0.595006800000192,1.713016400000015,1.796737800000301,,,,,,faizah_1,001,2020_Jan_10_1357,posner,3.1.5,59.951139821080574,
0.5,180,1,right,2,4,0,0,0,0,7,5,61,5,,,,,,,,,146.22872160000043,146.72834050000074,147.44570310000017,None,146.74488480000036,147.42934970000078,147.94674580000083,None,right,1,0.3570135999998456,147.94674580000083,None,None,146.74488480000036,147.9297720000004,0.5114762000002884,0.5950044999999591,1.712894100000085,1.7964307000002009,,,,,,faizah_1,001,2020_Jan_10_1357,posner,3.1.5,59.951139821080574,
-0.5,0,1,left,1,3,0,0,0,0,7,6,62,0,,,,,,,,,148.33124380000027,148.8312233000006,149.54893080000056,None,148.84782640000049,149.53203680000024,150.04959490000056,None,left,1,0.3741429000001517,150.04959490000056,None,None,148.84782640000049,150.03286070000013,0.511871699999574,0.5953073999999106,1.7134869000001345,1.7968574999995326,,,,,,faizah_1,001,2020_Jan_10_1357,posner,3.1.5,59.951139821080574,
-0.5,0,1,left,1,3,0,0,0,0,7,7,63,1,,,,,,,,,150.45103830000062,150.95075400000042,151.66846970000006,None,150.96756750000077,151.6518270000006,152.16913420000037,None,left,1,0.3106881000003341,152.16913420000037,None,None,150.96756750000077,152.15252450000025,0.5117316000005303,0.5949989000000642,1.7134773000007044,1.7967552000000069,,,,,,faizah_1,001,2020_Jan_10_1357,posner,3.1.5,59.951139821080574,
-0.5,0,1,left,1,3,0,0,0,0,8,0,64,0,,,,,,,,,152.50388320000002,153.00346310000077,153.7213285000007,None,153.02029260000018,153.7044581,154.22203010000067,None,left,1,0.3937744000004386,154.22203010000067,None,None,153.02029260000018,154.20528090000062,0.5115593999998964,0.5953930999994554,1.7133620999993582,1.7967275999999401,,,,,,faizah_1,001,2020_Jan_10_1357,posner,3.1.5,59.951139821080574,
-0.5,0,1,left,1,3,0,0,0,0,8,1,65,2,,,,,,,,,154.6401603000004,155.14000470000065,155.85754090000046,None,155.1564773,155.8408558000001,156.35818370000015,None,left,1,0.34561159999975644,156.35818370000015,None,None,155.1564773,156.3415289000004,0.5116853999998057,0.5951145999997607,1.7131951000001209,1.7964124999998603,,,,,,faizah_1,001,2020_Jan_10_1357,posner,3.1.5,59.951139821080574,
0.5,180,1,right,2,4,0,0,0,0,8,2,66,6,,,,,,,,,156.72649400000046,157.2260892000004,157.94352870000057,None,157.24269860000004,157.92706460000045,158.44371890000002,None,right,1,0.3639184000003297,158.44371890000002,None,None,157.24269860000004,158.42740350000076,0.5115747999998348,0.5952849999994214,1.712843399999656,1.7961564999995971,,,,,,faizah_1,001,2020_Jan_10_1357,posner,3.1.5,59.951139821080574,
0.5,0,0,right,1,4,0,0,0,0,8,3,67,3,,,,,,,,,158.8292904,159.32898710000063,160.0466135000006,None,159.34562300000016,160.0299586000001,160.54745080000066,None,right,1,0.4042385999991893,160.54745080000066,None,None,159.34562300000016,160.5305631000001,0.511344999999892,0.5948289000007208,1.7129084000007424,1.7962193000003026,,,,,,faizah_1,001,2020_Jan_10_1357,posner,3.1.5,59.951139821080574,
-0.5,180,0,left,2,3,0,0,0,0,8,4,68,4,,,,,,,,,160.98183100000006,161.48189620000085,162.19971290000012,None,161.4986230000004,162.18272930000057,162.7008749000006,None,left,1,0.37078550000023824,162.7008749000006,None,None,161.4986230000004,162.68343940000068,0.5115453999997044,0.5949204999997164,1.7130723000000216,1.7967687000000296,,,,,,faizah_1,001,2020_Jan_10_1357,posner,3.1.5,59.951139821080574,
0.5,180,1,right,2,4,0,0,0,0,8,5,69,5,,,,,,,,,163.10173210000085,163.60179430000062,164.31925650000085,None,163.6181284000004,164.3024344000005,164.8201112000006,None,right,1,0.26762700000017503,164.8201112000006,None,None,163.6181284000004,164.8032471000006,0.511774499999774,0.5947235000003275,1.7132097000003341,1.7966684000002715,,,,,,faizah_1,001,2020_Jan_10_1357,posner,3.1.5,59.951139821080574,
-0.5,0,1,left,1,3,0,0,0,0,8,6,70,1,,,,,,,,,165.1044234000001,165.60422540000036,166.3219310000004,None,165.62102610000056,166.3054406000001,166.82262170000013,None,left,1,0.3371422000000166,166.82262170000013,None,None,165.62102610000056,166.80602830000043,0.5118380000003526,0.5955174000000625,1.7136074000000008,1.7971072999998796,,,,,,faizah_1,001,2020_Jan_10_1357,posner,3.1.5,59.951139821080574,
0.5,180,1,right,2,4,0,0,0,0,8,7,71,7,,,,,,,,,167.19019900000058,167.69054940000024,168.40800820000004,None,167.70714320000025,168.39141550000022,168.90904990000035,None,right,1,0.28270900000006804,168.90904990000035,None,None,167.70714320000025,168.89220020000084,0.5115084999997634,0.5948461999996653,1.713143900000432,1.7965383000000656,,,,,,faizah_1,001,2020_Jan_10_1357,posner,3.1.5,59.951139821080574,
0.5,180,1,right,2,4,0,0,0,0,9,0,72,6,,,,,,,,,169.21046360000037,169.70998560000044,170.4276245000001,None,169.72665550000056,170.41083120000076,170.92826090000017,None,right,1,0.32741950000036013,170.92826090000017,None,None,169.72665550000056,170.9117036000007,0.51166959999955,0.5948982999998407,1.7133704999996553,1.7966356999995696,,,,,,faizah_1,001,2020_Jan_10_1357,posner,3.1.5,59.951139821080574,
-0.5,0,1,left,1,3,0,0,0,0,9,1,73,2,,,,,,,,,171.27989310000066,171.7794358000001,172.49714650000078,None,171.7961159000006,172.4805279000002,172.9978826000006,None,left,1,0.3059223000000202,172.9978826000006,None,None,171.7961159000006,172.98128570000063,0.5114150999997946,0.5949690999996164,1.7132547000001068,1.7963364999995974,,,,,,faizah_1,001,2020_Jan_10_1357,posner,3.1.5,59.951139821080574,
-0.5,0,1,left,1,3,0,0,0,0,9,2,74,1,,,,,,,,,173.33185550000053,173.83222130000013,174.55003770000076,None,173.84917700000005,174.5331328000002,175.0508359000005,None,left,1,0.34076379999987694,175.0508359000005,None,None,173.84917700000005,175.03379500000028,0.5120907000000443,0.5953841999998986,1.7136504999998579,1.797275400000217,,,,,,faizah_1,001,2020_Jan_10_1357,posner,3.1.5,59.951139821080574,
0.5,180,1,right,2,4,0,0,0,0,9,3,75,7,,,,,,,,,175.41883690000031,175.91843850000078,176.6362394000007,None,175.93491910000012,176.6195542000005,177.13681220000035,None,left,0,0.29486289999931614,177.13681220000035,None,None,175.93491910000012,177.12012270000014,0.511365599999408,0.5949042000002009,1.713033699999869,1.7964052999996056,,,,,,faizah_1,001,2020_Jan_10_1357,posner,3.1.5,59.951139821080574,
-0.5,180,0,left,2,3,0,0,0,0,9,4,76,4,,,,,,,,,177.45405250000022,177.95446770000035,178.67216300000018,None,177.9712853000001,178.655444,179.17285979999997,None,left,1,0.42675559999952384,179.17285979999997,None,None,177.9712853000001,179.15632560000086,0.5123902000004819,0.5958859000002121,1.7142260999999053,1.7975876000000426,,,,,,faizah_1,001,2020_Jan_10_1357,posner,3.1.5,59.951139821080574,
0.5,0,0,right,1,4,0,0,0,0,9,5,77,3,,,,,,,,,179.6243832,180.12412420000055,180.84183389999998,None,180.14087390000077,180.82509970000046,181.3425472000008,None,right,1,0.43315010000060283,181.3425472000008,None,None,180.14087390000077,181.32585570000083,0.5116244000000734,0.5952078999998776,1.7133370999999897,1.7968000000000757,,,,,,faizah_1,001,2020_Jan_10_1357,posner,3.1.5,59.951139821080574,
-0.5,0,1,left,1,3,0,0,0,0,9,6,78,0,,,,,,,,,181.79398890000084,182.2938077000008,183.01151330000084,None,182.31076680000024,182.9948370000002,183.51221430000078,None,left,1,0.3834630000001198,183.51221430000078,None,None,182.31076680000024,183.4954834,0.5117200000004232,0.5952337999997326,1.7133819999999105,1.7969338000002608,,,,,,faizah_1,001,2020_Jan_10_1357,posner,3.1.5,59.951139821080574,
0.5,180,1,right,2,4,0,0,0,0,9,7,79,5,,,,,,,,,183.91376840000066,184.41346010000052,185.13135500000044,None,184.4303473,185.11437920000026,185.63195600000017,None,right,1,0.24765170000046055,185.63195600000017,None,None,184.4303473,185.61496070000067,0.5115464999998949,0.5950514000005569,1.7130311000000802,1.796809100000246,,,,,,faizah_1,001,2020_Jan_10_1357,posner,3.1.5,59.951139821080574,
0.5,180,1,right,2,4,0,0,0,0,10,0,80,5,,,,,,,,,185.89931350000006,186.39909060000082,187.11721750000015,None,186.41604280000047,187.10082650000004,187.61808290000045,None,right,1,0.30154510000011214,187.61808290000045,None,None,186.41604280000047,187.6018184000004,0.5116455999996106,0.5948173999995561,1.7143612999998368,1.7971275999998397,,,,,,faizah_1,001,2020_Jan_10_1357,posner,3.1.5,59.951139821080574,
0.5,0,0,right,1,4,0,0,0,0,10,1,81,3,,,,,,,,,187.93593610000062,188.43574480000007,189.15325180000036,None,188.4523560000007,189.1366461000007,189.65408710000065,None,right,1,0.3535578999999416,189.65408710000065,None,None,188.4523560000007,189.63733560000037,0.5117004000003362,0.5950651000002836,1.7132690999997067,1.7966656999997213,,,,,,faizah_1,001,2020_Jan_10_1357,posner,3.1.5,59.951139821080574,
0.5,180,1,right,2,4,0,0,0,0,10,2,82,7,,,,,,,,,190.0386696000005,190.53849560000072,191.25628490000054,None,190.55512460000045,191.23955130000013,191.75714550000066,None,right,1,0.2985257999998794,191.75714550000066,None,None,190.55512460000045,191.74043430000074,0.5115092999994886,0.5950114999996003,1.7134252999994715,1.7966296999993574,,,,,,faizah_1,001,2020_Jan_10_1357,posner,3.1.5,59.951139821080574,
0.5,180,1,right,2,4,0,0,0,0,10,3,83,6,,,,,,,,,192.0741035000001,192.57466160000058,193.29250880000018,None,192.5915182000008,193.27545830000054,193.7928735000005,None,right,1,0.32672920000004524,193.7928735000005,None,None,192.5915182000008,193.77661350000017,0.5115832999999839,0.5950142000001506,1.7135187000003498,1.7966957000007824,,,,,,faizah_1,001,2020_Jan_10_1357,posner,3.1.5,59.951139821080574,
-0.5,0,1,left,1,3,0,0,0,0,10,4,84,1,,,,,,,,,194.14420560000053,194.64425980000033,195.36179540000012,None,194.66088710000076,195.34498410000015,195.86261300000024,None,left,1,0.3290354999999181,195.86261300000024,None,None,194.66088710000076,195.84581120000075,0.511953999999605,0.595568099999582,1.7134547999994538,1.7970181999999113,,,,,,faizah_1,001,2020_Jan_10_1357,posner,3.1.5,59.951139821080574,
-0.5,180,0,left,2,3,0,0,0,0,10,5,85,4,,,,,,,,,196.21403540000028,196.71362580000005,197.43144210000082,None,196.73042760000044,197.4146195000003,197.93218420000085,None,left,1,0.4513950999998997,197.93218420000085,None,None,196.73042760000044,197.91534950000005,0.511489000000438,0.5949282000001404,1.7131882000003316,1.7967222000006586,,,,,,faizah_1,001,2020_Jan_10_1357,posner,3.1.5,59.951139821080574,
-0.5,0,1,left,1,3,0,0,0,0,10,6,86,0,,,,,,,,,198.4002919000004,198.90013390000058,199.6177099000006,None,198.91695320000053,199.6013479000003,200.11841820000063,None,left,1,0.35325790000024426,200.11841820000063,None,None,198.91695320000053,200.10188630000084,0.5117888000004314,0.5950197000001936,1.7135175000003073,1.7967853000000105,,,,,,faizah_1,001,2020_Jan_10_1357,posner,3.1.5,59.951139821080574,
-0.5,0,1,left,1,3,0,0,0,0,10,7,87,2,,,,,,,,,200.5030501000001,201.00305540000045,201.72063530000014,None,201.0197104000008,201.7038964000003,202.22155020000082,None,left,1,0.2739683999998306,202.22155020000082,None,None,201.0197104000008,202.20462710000083,0.5117755000001125,0.5949855999997453,1.7133324000005814,1.7969748000004984,,,,,,faizah_1,001,2020_Jan_10_1357,posner,3.1.5,59.951139821080574,
,,,,,,0,0,0,0,,,,,,,,,,,,,,,,,,,,,,,,,,,,,,,,,,202.52288730000055,None,1.7400000615452882e-05,0.9959693999999217,faizah_1,001,2020_Jan_10_1357,posner,3.1.5,59.951139821080574,
-0.5,0,1,left,1,3,1,0,1,0,0,0,0,1,9.599999430065509e-06,0.09777529999973922,263.5389543000001,None,1.4100000043981709e-05,0.09783349999997881,265.6418556000008,None,265.91948910000065,266.42662090000067,267.1273443,None,266.44300960000055,267.1273443,267.6278669000003,None,left,1,0.3236649000000398,267.6278669000003,None,None,266.44300960000055,267.6278669000003,0.516555199999857,0.5997520000000804,1.7012567000001582,1.8015224000000671,,,,,,faizah_1,001,2020_Jan_10_1357,posner,3.1.5,59.951139821080574,
-0.5,0,1,left,1,3,1,0,1,0,0,1,1,0,,,,,,,,,267.9802376000007,268.4792587000002,269.19672080000055,None,268.4956578000001,269.18019710000044,269.69744700000047,None,left,1,0.36596520000057353,269.69744700000047,None,None,268.4956578000001,269.6809211,0.5106663999995362,0.5939213999999993,1.712312299999212,1.7954976999999417,,,,,,faizah_1,001,2020_Jan_10_1357,posner,3.1.5,59.951139821080574,
0.5,180,1,right,2,4,1,0,1,0,0,2,2,6,,,,,,,,,270.08207890000085,270.58216059999995,271.2998103,None,270.59889740000017,271.2830053000007,271.80063020000034,None,right,1,0.2707500999995318,271.80063020000034,None,None,270.59889740000017,271.7835851,0.5118175000006886,0.5951578000003792,1.7132331000002523,1.7969130000001314,,,,,,faizah_1,001,2020_Jan_10_1357,posner,3.1.5,59.951139821080574,
0.5,180,1,right,2,4,1,0,1,0,0,3,3,7,,,,,,,,,272.1018544000008,272.6016724000001,273.3191164,None,272.61827190000076,273.3026686000003,273.81997350000074,None,right,1,0.3552772000002733,273.81997350000074,None,None,272.61827190000076,273.8030696000005,0.5117338999998537,0.59479040000042,1.7131198000006407,1.7970337000006111,,,,,,faizah_1,001,2020_Jan_10_1357,posner,3.1.5,59.951139821080574,
0.5,180,1,right,2,4,1,0,1,0,0,4,4,5,,,,,,,,,274.2044519000001,274.7044384000001,275.4219142000002,None,274.72122350000063,275.40526240000054,275.92274630000065,None,right,1,0.33267090000026656,275.92274630000065,None,None,274.72122350000063,275.9059846,0.5117858999992677,0.5952560999994603,1.7133315999999468,1.796766999999818,,,,,,faizah_1,001,2020_Jan_10_1357,posner,3.1.5,59.951139821080574,
0.5,0,0,right,1,4,1,0,1,0,0,5,5,3,,,,,,,,,276.2742609000006,276.7737597000005,277.4916187000008,None,276.79067490000034,277.47475420000046,277.9921860000004,None,right,1,0.3031760000003487,277.9921860000004,None,None,276.79067490000034,277.9755558000006,0.5114053000006606,0.5949153999999908,1.7131820000004154,1.7968086000000767,,,,,,faizah_1,001,2020_Jan_10_1357,posner,3.1.5,59.951139821080574,
-0.5,180,0,left,2,3,1,0,1,0,0,6,6,4,,,,,,,,,278.32701200000065,278.8268213000001,279.5442369000002,None,278.8433244000007,279.52758040000026,280.0450737000001,None,left,1,0.35422920000019076,280.0450737000001,None,None,278.8433244000007,280.0284695,0.5116465000000971,0.5951139999997395,1.7132788999997501,1.7966881000002104,,,,,,faizah_1,001,2020_Jan_10_1357,posner,3.1.5,59.951139821080574,
-0.5,0,1,left,1,3,1,0,1,0,0,7,7,2,,,,,,,,,280.42967360000057,280.92959410000003,281.6472668000006,None,280.94636140000057,281.63065350000034,282.1479627000008,None,left,1,0.36344699999972363,282.1479627000008,None,None,280.94636140000057,282.13122080000085,0.5112754000001587,0.5945324000003893,1.7128882000006342,1.7961983000004693,,,,,,faizah_1,001,2020_Jan_10_1357,posner,3.1.5,59.951139821080574,
0.5,0,0,right,1,4,1,0,1,0,1,0,8,3,,,,,,,,,282.5325502000005,283.0323646000006,283.7503228000005,None,283.0492071000008,283.7333464000003,284.2509321000007,None,right,1,0.3324265999999625,284.2509321000007,None,None,283.0492071000008,284.2339828000004,0.51142610000079,0.5953150000004825,1.7130440000000817,1.796635000000606,,,,,,faizah_1,001,2020_Jan_10_1357,posner,3.1.5,59.951139821080574,
0.5,180,1,right,2,4,1,0,1,0,1,1,9,7,,,,,,,,,284.60269830000016,285.1022203000002,285.8198181000007,None,285.11878700000034,285.8029968000001,286.32052040000053,None,right,1,0.2546849000000293,286.32052040000053,None,None,285.11878700000034,286.30377020000014,0.5116100000004735,0.5949252000000342,1.7131398000001354,1.7965714000001753,,,,,,faizah_1,001,2020_Jan_10_1357,posner,3.1.5,59.951139821080574,
-0.5,0,1,left,1,3,1,0,1,0,1,2,10,0,,,,,,,,,286.60477270000047,287.1047711000001,287.82252960000005,None,287.1213815000001,287.80582219999997,288.3233244000003,None,left,1,0.3959984000002805,288.3233244000003,None,None,287.1213815000001,288.3066791000001,0.5116209000007075,0.5949784000004001,1.7135013000006438,1.7967883999999685,,,,,,faizah_1,001,2020_Jan_10_1357,posner,3.1.5,59.951139821080574,
0.5,180,1,right,2,4,1,0,1,0,1,3,11,5,,,,,,,,,288.7412557000007,289.24105790000067,289.95878580000044,None,289.2577379000004,289.9420734000005,290.4593689000003,None,right,1,0.37996970000040164,290.4593689000003,None,None,289.2577379000004,290.4426265000002,0.5118286999995689,0.5951920999996219,1.713373099999444,1.796750399999837,,,,,,faizah_1,001,2020_Jan_10_1357,posner,3.1.5,59.951139821080574,
-0.5,0,1,left,1,3,1,0,1,0,1,4,12,2,,,,,,,,,290.860909,291.3605159000008,292.07836920000045,None,291.3773848000001,292.06165260000034,292.57899220000036,None,left,1,0.3241792999997415,292.57899220000036,None,None,291.3773848000001,292.5622125,0.5114353000008123,0.5949185000008583,1.713111700000809,1.7964811000001646,,,,,,faizah_1,001,2020_Jan_10_1357,posner,3.1.5,59.951139821080574,
-0.5,180,0,left,2,3,1,0,1,0,1,5,13,4,,,,,,,,,292.93017640000016,293.43022199999996,294.14779369999997,None,293.4468867000005,294.1311510000005,294.64844900000026,295.13239280000016,left,1,0.48681889999988925,294.64844900000026,None,None,293.4468867000005,294.6318702000008,0.5117143999996188,0.5950702999998612,1.7133427999997366,1.7966287999997803,,,,,,faizah_1,001,2020_Jan_10_1357,posner,3.1.5,59.951139821080574,
-0.5,0,1,left,1,3,1,0,1,0,1,6,14,1,,,,,,,,,295.16587849999996,295.66657470000064,296.3841280000006,None,295.68308630000047,296.3675858000006,296.8848271000006,None,left,1,0.3224040999994031,296.8848271000006,None,None,295.68308630000047,296.8682079,0.5122670999999173,0.5957967000003919,1.7138758000000962,1.7976217000004908,,,,,,faizah_1,001,2020_Jan_10_1357,posner,3.1.5,59.951139821080574,
0.5,180,1,right,2,4,1,0,1,0,1,7,15,6,,,,,,,,,297.2363948000002,297.7363097000007,298.4537005000002,None,297.75271540000085,298.4371028000005,298.95436830000017,None,right,1,0.30887970000003406,298.95436830000017,None,None,297.75271540000085,298.9377529000003,0.5118914000004224,0.5951091000006272,1.713314900000114,1.796775300000263,,,,,,faizah_1,001,2020_Jan_10_1357,posner,3.1.5,59.951139821080574,
-0.5,0,1,left,1,3,1,0,1,0,2,0,16,2,,,,,,,,,299.2891759000004,299.78883700000006,300.50653970000076,None,299.8055335000008,300.48998740000025,301.00718810000035,None,left,1,0.295948099999805,301.00718810000035,None,None,299.8055335000008,300.9905903000008,0.5114130999991175,0.5949400999998034,1.7131431999996494,1.7964021999996476,,,,,,faizah_1,001,2020_Jan_10_1357,posner,3.1.5,59.951139821080574,
0.5,180,1,right,2,4,1,0,1,0,2,1,17,6,,,,,,,,,301.3256514000004,301.8249587,302.54277790000015,None,301.8417450000006,302.52604020000035,303.0431832000004,None,right,1,0.28429329999926267,303.0431832000004,None,None,301.8417450000006,303.02671400000054,0.5112431000006836,0.5947356000006039,1.7129766000007294,1.796584000000621,,,,,,faizah_1,001,2020_Jan_10_1357,posner,3.1.5,59.951139821080574,
-0.5,0,1,left,1,3,1,0,1,0,2,2,18,0,,,,,,,,,303.344513,303.8443939000008,304.5622843000001,None,303.8613735000008,304.54536240000016,305.06269040000006,None,left,1,0.15256619999945542,305.06269040000006,None,None,303.8613735000008,305.0462133000001,0.5116454999997586,0.5951635000001261,1.7134496999997282,1.7968557000003784,,,,,,faizah_1,001,2020_Jan_10_1357,posner,3.1.5,59.951139821080574,
-0.5,180,0,left,2,3,1,0,1,0,2,3,19,4,,,,,,,,,305.2468271000007,305.7471908000007,306.46465460000036,None,305.76360939999995,306.44849820000036,306.96547400000054,None,right,0,0.08190759999979491,306.96547400000054,None,None,305.76360939999995,306.94892300000083,0.5122498000000633,0.5956857000001037,1.713980999999876,1.7970667999998113,,,,,,faizah_1,001,2020_Jan_10_1357,posner,3.1.5,59.951139821080574,
0.5,0,0,right,1,4,1,0,1,0,2,4,20,3,,,,,,,,,307.06583880000017,307.56632609999997,308.2838380000003,None,307.5829186000001,308.2673321000002,308.7845610000004,309.26863649999996,right,1,0.48671589999958087,308.7845610000004,None,None,307.5829186000001,308.76787630000035,0.512134700000388,0.5957460000008723,1.713661900000261,1.7972788000006403,,,,,,faizah_1,001,2020_Jan_10_1357,posner,3.1.5,59.951139821080574,
0.5,180,1,right,2,4,1,0,1,0,2,5,21,5,,,,,,,,,309.30216590000055,309.80270830000063,310.5204381000003,None,309.81942790000085,310.50360340000043,311.02112320000015,None,right,1,0.3302464999997028,311.02112320000015,None,None,309.81942790000085,311.00418190000073,0.5123885000002701,0.5957735000001776,1.7138482999998814,1.7974554000002172,,,,,,faizah_1,001,2020_Jan_10_1357,posner,3.1.5,59.951139821080574,
0.5,180,1,right,2,4,1,0,1,0,2,6,22,7,,,,,,,,,311.3724862000008,311.8722198000005,312.58985590000066,None,311.8889310000004,312.57305240000005,313.09046149999995,None,right,1,0.29275390000020707,313.09046149999995,None,None,311.8889310000004,313.07381239999995,0.5115507000000434,0.5948664999996254,1.713130000000092,1.7965830000002825,,,,,,faizah_1,001,2020_Jan_10_1357,posner,3.1.5,59.951139821080574,
-0.5,0,1,left,1,3,1,0,1,0,2,7,23,1,,,,,,,,,313.4084975000005,313.9083219000004,314.62569970000004,None,313.92491080000036,314.60945860000083,315.12685730000067,None,left,1,0.3445404999993116,315.12685730000067,None,None,313.92491080000036,315.1098956000005,0.511571100000765,0.5950987000005625,1.7131325999998808,1.7962938000000577,,,,,,faizah_1,001,2020_Jan_10_1357,posner,3.1.5,59.951139821080574,
-0.5,0,1,left,1,3,1,0,1,0,3,0,24,2,,,,,,,,,315.49476890000005,315.99453300000005,316.71217650000017,None,316.0111377000003,316.6953254,317.2128958000003,None,left,1,0.41031459999976505,317.2128958000003,None,None,316.0111377000003,317.19639030000053,0.511706199999935,0.5952811999995902,1.7135440000001836,1.7968138999995062,,,,,,faizah_1,001,2020_Jan_10_1357,posner,3.1.5,59.951139821080574,
-0.5,180,0,left,2,3,1,0,1,0,3,1,25,4,,,,,,,,,317.6476767000004,318.1475913000004,318.86520500000006,None,318.1640859000008,318.8486502000005,319.3658402000001,None,left,1,0.3773600999993505,319.3658402000001,None,None,318.1640859000008,319.3491412000003,0.5116710000002058,0.595237300000008,1.7131964999998672,1.796650100000079,,,,,,faizah_1,001,2020_Jan_10_1357,posner,3.1.5,59.951139821080574,
0.5,180,1,right,2,4,1,0,1,0,3,2,26,7,,,,,,,,,319.7675519000004,320.2671792000001,320.9846221000007,None,320.2836623000003,320.9681571000001,321.48529620000045,None,right,1,0.29789679999976215,321.48529620000045,None,None,320.2836623000003,321.46875480000017,0.5114739999999074,0.595053399999415,1.713039999999637,1.7965046999997867,,,,,,faizah_1,001,2020_Jan_10_1357,posner,3.1.5,59.951139821080574,
0.5,180,1,right,2,4,1,0,1,0,3,3,27,6,,,,,,,,,321.8031942000007,322.30313970000043,323.02088000000003,None,322.32001579999996,323.0042590000003,323.52161200000046,None,right,1,0.3656145999993896,323.52161200000046,None,None,322.32001579999996,323.50483110000005,0.5117418999998335,0.595339899999999,1.7134164999997665,1.7967348000001948,,,,,,faizah_1,001,2020_Jan_10_1357,posner,3.1.5,59.951139821080574,
-0.5,0,1,left,1,3,1,0,1,0,3,4,28,1,,,,,,,,,323.9065663000001,324.4060857000004,325.1235252000006,None,324.4228619000005,325.10712670000066,325.6242914000004,None,left,1,0.28698720000011235,325.6242914000004,None,None,324.4228619000005,325.6077589000006,0.5114733000000342,0.5948605999992651,1.7131194999992658,1.7968172999999297,,,,,,faizah_1,001,2020_Jan_10_1357,posner,3.1.5,59.951139821080574,
0.5,0,0,right,1,4,1,0,1,0,3,5,29,3,,,,,,,,,325.94201169999997,326.44230010000047,327.1598378000008,None,326.45898490000036,327.1432065000008,327.6606518000008,None,right,1,0.3306404000004477,327.6606518000008,None,None,326.45898490000036,327.64394000000084,0.5117005000001882,0.5950278999998773,1.7133296000001792,1.796632900000077,,,,,,faizah_1,001,2020_Jan_10_1357,posner,3.1.5,59.951139821080574,
-0.5,0,1,left,1,3,1,0,1,0,3,6,30,0,,,,,,,,,328.0114839000007,328.5116702000005,329.2293741000003,None,328.5285147000004,329.2128425000001,329.73008130000017,None,left,1,0.2851000999999087,329.73008130000017,None,None,328.5285147000004,329.7132749000002,0.511972400000559,0.5953636000003826,1.7135555000004388,1.7970806000002995,,,,,,faizah_1,001,2020_Jan_10_1357,posner,3.1.5,59.951139821080574,
0.5,180,1,right,2,4,1,0,1,0,3,7,31,5,,,,,,,,,330.0314197000007,330.5311786000002,331.24891130000015,None,330.54791960000057,331.2322146000006,331.74972660000003,None,right,1,0.2574719999993249,331.74972660000003,None,None,330.54791960000057,331.73280050000085,0.5116164999999455,0.5950623000007909,1.7132258000001457,1.7968076000006477,,,,,,faizah_1,001,2020_Jan_10_1357,posner,3.1.5,59.951139821080574,
-0.5,180,0,left,2,3,1,0,1,0,4,0,32,4,,,,,,,,,332.0343320000002,332.53382650000003,333.2518566000008,None,332.55091489999995,333.23487230000046,333.7522607000001,None,left,1,0.35075030000007246,333.7522607000001,None,None,332.55091489999995,333.73552570000084,0.5112226999999621,0.5948230000003605,1.712905100000171,1.7965475999999398,,,,,,faizah_1,001,2020_Jan_10_1357,posner,3.1.5,59.951139821080574,
-0.5,0,1,left,1,3,1,0,1,0,4,1,33,0,,,,,,,,,334.1202981000006,334.62019880000025,335.3379197000004,None,334.63684250000006,335.3211686000004,335.83843160000015,None,left,1,0.4086742999998023,335.83843160000015,None,None,334.63684250000006,335.8219747000003,0.5117092000000412,0.5950558000004094,1.71346210000047,1.796640500000649,,,,,,faizah_1,001,2020_Jan_10_1357,posner,3.1.5,59.951139821080574,
0.5,180,1,right,2,4,1,0,1,0,4,2,34,7,,,,,,,,,336.2734459000003,336.7730895000004,337.49094740000055,None,336.78991100000076,337.4739689000007,337.99152070000036,None,right,1,0.27959129999999277,337.99152070000036,None,None,336.78991100000076,337.9746976000006,0.5114528000003702,0.5948852000001352,1.7130428000000393,1.7965911999999662,,,,,,faizah_1,001,2020_Jan_10_1357,posner,3.1.5,59.951139821080574,
-0.5,0,1,left,1,3,1,0,1,0,4,3,35,2,,,,,,,,,338.2927556000004,338.7925950000008,339.51029259999996,None,338.8092964000007,339.49353240000073,340.01106060000075,None,left,1,0.3240542999992613,340.01106060000075,None,None,338.8092964000007,339.99421880000045,0.5114106000000902,0.5948965000006865,1.713018500000544,1.7967174000004889,,,,,,faizah_1,001,2020_Jan_10_1357,posner,3.1.5,59.951139821080574,
0.5,0,0,right,1,4,1,0,1,0,4,4,36,3,,,,,,,,,340.36234030000014,340.8620873,341.5797442000003,None,340.8788269000006,341.5628748000008,342.08029310000074,None,right,1,0.2708511000000726,342.08029310000074,None,None,340.8788269000006,342.0635740000007,0.511672699999508,0.5949854000000414,1.7131511999996292,1.7967483000002176,,,,,,faizah_1,001,2020_Jan_10_1357,posner,3.1.5,59.951139821080574,
-0.5,0,1,left,1,3,1,0,1,0,4,5,37,1,,,,,,,,,342.38140850000036,342.8817245,343.59939140000006,None,342.8982093000004,343.58248450000065,344.1003466000002,None,left,1,0.23476449999998295,344.1003466000002,None,None,342.8982093000004,344.0829767000005,0.5119511000002603,0.5951577000005273,1.7131902000000991,1.7967821000002004,,,,,,faizah_1,001,2020_Jan_10_1357,posner,3.1.5,59.951139821080574,
0.5,180,1,right,2,4,1,0,1,0,4,6,38,5,,,,,,,,,344.3511173000006,344.8511270000008,345.56871560000036,None,344.86769970000023,345.55202140000074,346.06927990000077,None,right,1,0.3059635999998136,346.06927990000077,None,None,344.86769970000023,346.0524952000005,0.5120036999996955,0.5950588999994579,1.713344999999208,1.7967238999999608,,,,,,faizah_1,001,2020_Jan_10_1357,posner,3.1.5,59.951139821080574,
0.5,180,1,right,2,4,1,0,1,0,4,7,39,6,,,,,,,,,346.40392970000084,346.9036309000003,347.6214723000003,None,346.92049660000066,347.60474930000055,348.1220402000008,None,right,1,0.30098629999974946,348.1220402000008,None,None,346.92049660000066,348.1053072000004,0.5115823000005548,0.5952248000003237,1.713235000000168,1.7968824999998105,,,,,,faizah_1,001,2020_Jan_10_1357,posner,3.1.5,59.951139821080574,
0.5,180,1,right,2,4,1,0,1,0,5,0,40,6,,,,,,,,,348.4400217000002,348.93997690000015,349.6575576000005,None,348.9565437000001,349.6407925000003,350.15827179999997,None,right,1,0.27292320000015025,350.15827179999997,None,None,348.9565437000001,350.1415543000003,0.511572200000046,0.5946745000001101,1.7131339000006847,1.7966166000005614,,,,,,faizah_1,001,2020_Jan_10_1357,posner,3.1.5,59.951139821080574,
-0.5,0,1,left,1,3,1,0,1,0,5,1,41,2,,,,,,,,,350.4593756000004,350.9592915000003,351.67700870000044,None,350.97617700000046,351.6602300000004,352.17772950000017,None,left,1,0.2773481999993237,352.17772950000017,None,None,350.97617700000046,352.1611276000003,0.5117358000006789,0.5951015000000552,1.7135478000000148,1.796857600000294,,,,,,faizah_1,001,2020_Jan_10_1357,posner,3.1.5,59.951139821080574,
-0.5,180,0,left,2,3,1,0,1,0,5,2,42,4,,,,,,,,,352.4790516000003,352.9788333000006,353.6964231000002,None,352.9953290000003,353.67987640000047,354.19723800000065,None,left,1,0.3780956000000515,354.19723800000065,None,None,352.9953290000003,354.1804757,0.5115804000006392,0.5948919000002206,1.7132007000000158,1.7965257000005295,,,,,,faizah_1,001,2020_Jan_10_1357,posner,3.1.5,59.951139821080574,
0.5,180,1,right,2,4,1,0,1,0,5,3,43,5,,,,,,,,,354.59905660000004,355.0983851000001,355.81632440000067,None,355.1150537000003,355.7993630000001,356.3166865000003,None,right,1,0.29838050000034855,356.3166865000003,None,None,355.1150537000003,356.30000220000056,0.5113960999997289,0.5948247999995147,1.7130026999993788,1.7962548999994397,,,,,,faizah_1,001,2020_Jan_10_1357,posner,3.1.5,59.951139821080574,
-0.5,0,1,left,1,3,1,0,1,0,5,4,44,1,,,,,,,,,356.6346222000002,357.1345687000003,357.85240410000006,None,357.1512670000002,357.83541440000045,358.35281510000004,None,left,1,0.3021276999998008,358.35281510000004,None,None,357.1512670000002,358.33616470000015,0.5118055000002641,0.5953088000005664,1.7133794999999736,1.7967532000002393,,,,,,faizah_1,001,2020_Jan_10_1357,posner,3.1.5,59.951139821080574,
0.5,0,0,right,1,4,1,0,1,0,5,5,45,3,,,,,,,,,358.6871723000004,359.1872192000001,359.9049543000001,None,359.20392100000026,359.8882652000002,360.4055410000001,None,right,1,0.35338729999966745,360.4055410000001,None,None,359.20392100000026,360.38908430000083,0.5115428999997675,0.5950763999999253,1.7133844999998473,1.7967675999998391,,,,,,faizah_1,001,2020_Jan_10_1357,posner,3.1.5,59.951139821080574,
0.5,180,1,right,2,4,1,0,1,0,5,6,46,7,,,,,,,,,360.79046860000017,361.29026500000055,362.0078817000003,None,361.3069351000004,361.99119040000005,362.5086416000004,None,right,1,0.4023764999992636,362.5086416000004,None,None,361.3069351000004,362.49207820000083,0.5114670000002661,0.5946948000000702,1.7132591999998112,1.7964285999996719,,,,,,faizah_1,001,2020_Jan_10_1357,posner,3.1.5,59.951139821080574,
-0.5,0,1,left,1,3,1,0,1,0,5,7,47,0,,,,,,,,,362.92690220000077,363.4265613000007,364.14410150000003,None,363.4430125000008,364.12739780000084,364.6448850000006,None,left,1,0.28235469999981433,364.6448850000006,None,None,363.4430125000008,364.6280519000002,0.5116637999999512,0.5951154999993378,1.7131398999999874,1.7967038999995566,,,,,,faizah_1,001,2020_Jan_10_1357,posner,3.1.5,59.951139821080574,
-0.5,0,1,left,1,3,1,0,1,0,6,0,48,2,,,,,,,,,364.9465151000004,365.44588270000077,366.16365620000033,None,365.46254260000023,366.1469945000008,366.6640174000004,None,left,1,0.3511420000004364,366.6640174000004,None,None,365.46254260000023,366.6474558,0.5113369000000603,0.594731000000138,1.7128904000001057,1.7966821999998501,,,,,,faizah_1,001,2020_Jan_10_1357,posner,3.1.5,59.951139821080574,
0.5,180,1,right,2,4,1,0,1,0,6,1,49,7,,,,,,,,,367.03226690000065,367.53219179999996,368.2498219000008,None,367.5486851000005,368.2329845000004,368.75066460000016,None,right,1,0.23239840000042022,368.75066460000016,None,None,367.5486851000005,368.73365680000006,0.5117288999999801,0.5951285999999527,1.7131810999999288,1.7967545999999857,,,,,,faizah_1,001,2020_Jan_10_1357,posner,3.1.5,59.951139821080574,
-0.5,0,1,left,1,3,1,0,1,0,6,2,50,0,,,,,,,,,369.0015720000001,369.5016213000008,370.21918040000037,None,369.5183342,370.2024254000007,370.71983290000026,None,left,1,0.41526129999965633,370.71983290000026,None,None,369.5183342,370.7030906,0.5117630999993708,0.5950844999997571,1.7132177999992564,1.796600199999375,,,,,,faizah_1,001,2020_Jan_10_1357,posner,3.1.5,59.951139821080574,
0.5,180,1,right,2,4,1,0,1,0,6,3,51,5,,,,,,,,,371.1546427000003,371.65440800000033,372.3721206,None,371.6711240000004,372.3554299000007,372.87264290000076,None,right,1,0.22240450000026613,372.87264290000076,None,None,371.6711240000004,372.8560068000006,0.5114535000002434,0.5949157000004561,1.7130324999998265,1.7966630000000805,,,,,,faizah_1,001,2020_Jan_10_1357,posner,3.1.5,59.951139821080574,
0.5,180,1,right,2,4,1,0,1,0,6,4,52,6,,,,,,,,,373.12301970000044,373.62371800000074,374.3414143,None,373.64060680000057,374.32469410000067,374.84219810000013,None,right,1,0.29285429999981716,374.84219810000013,None,None,373.64060680000057,374.82548080000015,0.5119624999997541,0.5957603999995627,1.7137150999997175,1.7972036000001026,,,,,,faizah_1,001,2020_Jan_10_1357,posner,3.1.5,59.951139821080574,
-0.5,0,1,left,1,3,1,0,1,0,6,5,53,1,,,,,,,,,375.1602808000007,375.6599096,376.37775650000003,None,375.67679640000006,376.3609774000006,376.8782069000008,None,left,1,0.3448398000000452,376.8782069000008,None,None,375.67679640000006,376.86182890000055,0.5114684000000125,0.5948118999995131,1.7133654999997816,1.7966202999996312,,,,,,faizah_1,001,2020_Jan_10_1357,posner,3.1.5,59.951139821080574,
-0.5,180,0,left,2,3,1,0,1,0,6,6,54,4,,,,,,,,,377.2466482,377.7459712,378.4637584000002,None,377.76277110000046,378.4472850000002,378.9643902000007,None,left,1,0.39474690000042756,378.9643902000007,None,None,377.76277110000046,378.9478422000002,0.5114069000001109,0.5951587999998083,1.7132690999997067,1.7965236999998524,,,,,,faizah_1,001,2020_Jan_10_1357,posner,3.1.5,59.951139821080574,
0.5,0,0,right,1,4,1,0,1,0,6,7,55,3,,,,,,,,,379.3827652,379.8826071000003,380.60049340000023,None,379.89908319999995,380.5833928000002,381.10108240000045,None,right,1,0.3458450999996785,381.10108240000045,None,None,379.89908319999995,381.0840734000003,0.5115945999996256,0.5951316000000588,1.7130496999998286,1.7964279999996506,,,,,,faizah_1,001,2020_Jan_10_1357,posner,3.1.5,59.951139821080574,
0.5,180,1,right,2,4,1,0,1,0,7,0,56,5,,,,,,,,,381.46885230000044,381.96867980000025,382.68635489999997,None,381.98525300000074,382.66950840000027,383.18711500000063,None,right,1,0.29985990000022866,383.18711500000063,None,None,381.98525300000074,383.17045900000085,0.5114371999998184,0.5948549999993702,1.7132007000000158,1.7965988999994806,,,,,,faizah_1,001,2020_Jan_10_1357,posner,3.1.5,59.951139821080574,
0.5,0,0,right,1,4,1,0,1,0,7,1,57,3,,,,,,,,,383.5052349000007,384.0046297000008,384.72249420000026,None,384.02155740000035,384.70578190000015,385.2230337000001,None,right,1,0.2639478999999483,385.2230337000001,None,None,384.02155740000035,385.20635760000005,0.511245499999859,0.594876999999542,1.7129648000000088,1.796454299999823,,,,,,faizah_1,001,2020_Jan_10_1357,posner,3.1.5,59.951139821080574,
-0.5,0,1,left,1,3,1,0,1,0,7,2,58,2,,,,,,,,,385.50764590000017,386.0074224,386.72527420000006,None,386.0242377000004,386.7085478000008,387.22586500000034,None,left,1,0.35718869999982417,387.22586500000034,None,None,386.0242377000004,387.2091999000004,0.5116146999998819,0.5952809999998863,1.7133683999991263,1.796832699999868,,,,,,faizah_1,001,2020_Jan_10_1357,posner,3.1.5,59.951139821080574,
0.5,180,1,right,2,4,1,0,1,0,7,3,59,7,,,,,,,,,387.6107484000004,388.1105030000008,388.82816020000064,None,388.12728010000046,388.8114159000006,389.32903590000024,None,right,1,0.26194849999956205,389.32903590000024,None,None,388.12728010000046,389.3120063000006,0.5117518999995809,0.595095499999843,1.7132400999998936,1.796664999999848,,,,,,faizah_1,001,2020_Jan_10_1357,posner,3.1.5,59.951139821080574,
-0.5,180,0,left,2,3,1,0,1,0,7,4,60,4,,,,,,,,,389.61332400000083,390.11307300000044,390.8310080000001,None,390.1298359000002,390.8140495000007,391.3321424000005,None,left,1,0.3868179000000964,391.3321424000005,None,None,390.1298359000002,391.31480530000044,0.5116264999996929,0.5952356999996482,1.713343999999779,1.7967249000002994,,,,,,faizah_1,001,2020_Jan_10_1357,posner,3.1.5,59.951139821080574,
0.5,180,1,right,2,4,1,0,1,0,7,5,61,6,,,,,,,,,391.74938380000003,392.2494628000004,392.9672292000005,None,392.26690360000066,392.9504919000001,393.4677835000002,None,right,1,0.25112369999988005,393.4677835000002,None,None,392.26690360000066,393.4513444000004,0.511714000000211,0.5950076999997691,1.7135619000000588,1.7967448999997941,,,,,,faizah_1,001,2020_Jan_10_1357,posner,3.1.5,59.951139821080574,
-0.5,0,1,left,1,3,1,0,1,0,7,6,62,0,,,,,,,,,393.73561990000053,394.2355363000006,394.95320100000026,None,394.2521861000005,394.9365348000001,395.45391350000045,None,left,1,0.2971016999999847,395.45391350000045,None,None,394.2521861000005,395.43718330000047,0.5116186000004745,0.5949686000003567,1.7132460000002538,1.7967309000005116,,,,,,faizah_1,001,2020_Jan_10_1357,posner,3.1.5,59.951139821080574,
-0.5,0,1,left,1,3,1,0,1,0,7,7,63,1,,,,,,,,,395.7720244000002,396.27153870000075,396.98932010000044,None,396.2884634000002,396.97265590000006,397.4900411000008,None,left,1,0.4529085000003761,397.4900411000008,None,None,396.2884634000002,397.4731707000001,0.5113223000007565,0.5948425000005955,1.7129369000003862,1.7966676000005464,,,,,,faizah_1,001,2020_Jan_10_1357,posner,3.1.5,59.951139821080574,
-0.5,180,0,left,2,3,1,0,1,0,8,0,64,4,,,,,,,,,397.9748526000003,398.47453459999997,399.19238980000046,None,398.4914009000004,399.17598870000074,399.6929878000001,397.9748526000003,left,1,0.3698054999995293,399.6929878000001,None,None,398.4914009000004,399.67645000000084,0.5115217000002303,0.5951360999997632,1.7134192000003168,1.7972499999996217,,,,,,faizah_1,001,2020_Jan_10_1357,posner,3.1.5,59.951139821080574,
-0.5,0,1,left,1,3,1,0,1,0,8,1,65,1,,,,,,,,,400.0938541000005,400.5942681000006,401.3118635000001,None,400.61090409999997,401.2951998000008,401.8126254000008,None,left,1,0.2983619999995426,401.8126254000008,None,None,400.61090409999997,401.7959438000007,0.5117761999999857,0.5952701999995043,1.7134335999999166,1.796841399999721,,,,,,faizah_1,001,2020_Jan_10_1357,posner,3.1.5,59.951139821080574,
-0.5,0,1,left,1,3,1,0,1,0,8,2,66,0,,,,,,,,,402.13062870000067,402.6304265000008,403.3481563000005,None,402.6471341000006,403.33156190000045,403.84867490000033,None,left,1,0.30214880000039557,403.84867490000033,None,None,402.6471341000006,403.8320891000003,0.5115812000003643,0.5949103000002651,1.7132314000000406,1.7969671000000744,,,,,,faizah_1,001,2020_Jan_10_1357,posner,3.1.5,59.951139821080574,
0.5,0,0,right,1,4,1,0,1,0,8,3,67,3,,,,,,,,,404.18273150000005,404.6832116000005,405.40109500000017,None,404.69995610000024,405.3841586000008,405.9018221000006,None,right,1,0.39312340000014956,405.9018221000006,None,None,404.69995610000024,405.8848200000002,0.5120142999994641,0.5954898999998477,1.7136076999995566,1.79721679999966,,,,,,faizah_1,001,2020_Jan_10_1357,posner,3.1.5,59.951139821080574,
0.5,180,1,right,2,4,1,0,1,0,8,4,68,7,,,,,,,,,406.31973820000076,406.8197103000002,407.5373604000006,None,406.8363796000003,407.5206067000008,408.03784690000066,None,right,1,0.2572096000003512,408.03784690000066,None,None,406.8363796000003,408.02122770000005,0.5117184999999154,0.5948551999999836,1.7132137999997212,1.7966435999996975,,,,,,faizah_1,001,2020_Jan_10_1357,posner,3.1.5,59.951139821080574,
0.5,180,1,right,2,4,1,0,1,0,8,5,69,5,,,,,,,,,408.3219585000006,408.8223772000001,409.54000910000013,None,408.8390799000008,409.52311120000013,410.04065810000066,None,right,1,0.3262847000005422,410.04065810000066,None,None,408.8390799000008,410.0239403000005,0.5120377000002918,0.5952287000000069,1.7135869000003368,1.7971464000002015,,,,,,faizah_1,001,2020_Jan_10_1357,posner,3.1.5,59.951139821080574,
-0.5,0,1,left,1,3,1,0,1,0,8,6,70,2,,,,,,,,,410.3914616000002,410.8919326000005,411.6093782000007,None,410.90843770000083,411.59264770000027,412.11019040000065,None,left,1,0.3288159000003361,412.11019040000065,None,None,410.90843770000083,412.09319870000036,0.5122781999998551,0.5955724999994345,1.713528999999653,1.7972105999997439,,,,,,faizah_1,001,2020_Jan_10_1357,posner,3.1.5,59.951139821080574,
0.5,180,1,right,2,4,1,0,1,0,8,7,71,6,,,,,,,,,412.4619151000006,412.9614495000005,413.67915790000006,None,412.9781980000007,413.6622543000003,414.1799153000002,None,right,1,0.25092920000042795,414.1799153000002,None,None,412.9781980000007,414.1627804,0.5115038000003551,0.5947650999996767,1.7128318000004583,1.7964172000001781,,,,,,faizah_1,001,2020_Jan_10_1357,posner,3.1.5,59.951139821080574,
-0.5,0,1,left,1,3,1,0,1,0,9,0,72,0,,,,,,,,,414.4475555000008,414.9473232,415.66491120000046,None,414.96405740000046,415.6484502000003,416.1655416000003,None,left,1,0.28129009999975096,416.1655416000003,None,None,414.96405740000046,416.14904879999995,0.5115161000003354,0.5950597999999445,1.7132277999999133,1.7965425000002142,,,,,,faizah_1,001,2020_Jan_10_1357,posner,3.1.5,59.951139821080574,
0.5,180,1,right,2,4,1,0,1,0,9,1,73,5,,,,,,,,,416.4670622000003,416.96696110000084,417.68437710000035,None,416.9833462000006,417.6677470000004,418.1850353,None,right,1,0.29389219999939087,418.1850353,None,None,416.9833462000006,418.16847270000017,0.5117410999991989,0.5951348999997208,1.7132411999991746,1.796726999999919,,,,,,faizah_1,001,2020_Jan_10_1357,posner,3.1.5,59.951139821080574,
-0.5,0,1,left,1,3,1,0,1,0,9,2,74,1,,,,,,,,,418.50397410000005,419.0030262,419.7207074000007,None,419.0197265000006,419.7039224,420.22136860000046,None,left,1,0.3216206000006423,420.22136860000046,None,None,419.0197265000006,420.2045362000008,0.5105337000004511,0.5938538999998855,1.7120296000002782,1.795714599999883,,,,,,faizah_1,001,2020_Jan_10_1357,posner,3.1.5,59.951139821080574,
0.5,180,1,right,2,4,1,0,1,0,9,3,75,6,,,,,,,,,420.57261780000044,421.07233560000077,421.79013570000006,None,421.08920080000007,421.77337420000003,422.29093230000035,None,right,1,0.2919160000001284,422.29093230000035,None,None,421.08920080000007,422.27400940000007,0.5114932000005865,0.5949516999999105,1.7131380999999237,1.7965675000004921,,,,,,faizah_1,001,2020_Jan_10_1357,posner,3.1.5,59.951139821080574,
0.5,180,1,right,2,4,1,0,1,0,9,4,76,7,,,,,,,,,422.6088488000005,423.1086066000007,423.82644060000075,None,423.12514790000023,423.80962960000033,424.32706750000034,None,right,1,0.26371429999926477,424.32706750000034,None,None,423.12514790000023,424.31041690000075,0.5113462999997864,0.5946755000004487,1.7131410000001779,1.7964892999998483,,,,,,faizah_1,001,2020_Jan_10_1357,posner,3.1.5,59.951139821080574,
-0.5,0,1,left,1,3,1,0,1,0,9,5,77,2,,,,,,,,,424.6114340000004,425.11141020000014,425.8290497000007,None,425.12810380000064,425.8122222000002,426.3298431000003,None,left,1,0.3330069999992702,426.3298431000003,None,None,425.12810380000064,426.3131116000004,0.5117448000000877,0.595140899999933,1.7134352000002764,1.7964657000002262,,,,,,faizah_1,001,2020_Jan_10_1357,posner,3.1.5,59.951139821080574,
-0.5,180,0,left,2,3,1,0,1,0,9,6,78,4,,,,,,,,,426.68142700000044,427.1809376000001,427.8986493000002,None,427.1975542,427.88190420000046,428.3991409,None,left,1,0.39973860000009154,428.3991409,None,None,427.1975542,428.3825628000004,0.5113378000005468,0.594476800000848,1.7129392000006192,1.796360000000277,,,,,,faizah_1,001,2020_Jan_10_1357,posner,3.1.5,59.951139821080574,
0.5,0,0,right,1,4,1,0,1,0,9,7,79,3,,,,,,,,,428.8171273000007,429.3172336000007,430.03469590000077,None,429.3337138000006,430.0183452000001,430.53542350000043,None,right,1,0.31138300000020536,430.53542350000043,None,None,429.3337138000006,430.51896660000057,0.512144299999818,0.5956178000005821,1.7138660000000527,1.7974107000000004,,,,,,faizah_1,001,2020_Jan_10_1357,posner,3.1.5,59.951139821080574,
0.5,180,1,right,2,4,1,0,1,0,10,0,80,7,,,,,,,,,430.87013019999995,431.3699864,432.08771850000085,None,431.3865712000006,432.0709028000001,432.5884040000001,None,right,1,0.39480490000005375,432.5884040000001,None,None,431.3865712000006,432.57168570000067,0.5116827000001649,0.5949674000003142,1.7133663000004162,1.796684400000231,,,,,,faizah_1,001,2020_Jan_10_1357,posner,3.1.5,59.951139821080574,
-0.5,180,0,left,2,3,1,0,1,0,10,1,81,4,,,,,,,,,433.00732830000015,433.50631430000067,434.2238272000004,None,433.52281630000016,434.20723290000024,434.72461340000064,None,left,1,0.4102134999993723,434.72461340000064,None,None,433.52281630000016,434.70778600000085,0.5110672999999224,0.5944687999999587,1.712527300000147,1.795970899999702,,,,,,faizah_1,001,2020_Jan_10_1357,posner,3.1.5,59.951139821080574,
0.5,180,1,right,2,4,1,0,1,0,10,2,82,6,,,,,,,,,435.1591160000007,435.6593969000005,436.37684080000054,None,435.67597580000074,436.36025680000057,436.87751019999996,437.36154140000053,right,1,0.5292134999999689,436.87751019999996,None,None,435.67597580000074,436.8608088000001,0.5118333999998868,0.5949405000001207,1.713232500000231,1.7967011000000639,,,,,,faizah_1,001,2020_Jan_10_1357,posner,3.1.5,59.951139821080574,
-0.5,0,1,left,1,3,1,0,1,0,10,3,83,2,,,,,,,,,437.42922270000054,437.9290912000006,438.64684080000006,None,437.9457013000001,438.62986060000003,439.1475091000002,None,left,1,0.33937239999977464,439.1475091000002,None,None,437.9457013000001,439.13071130000026,0.5117135000000417,0.5948355000000447,1.7133217000000514,1.796497599999384,,,,,,faizah_1,001,2020_Jan_10_1357,posner,3.1.5,59.951139821080574,
-0.5,0,1,left,1,3,1,0,1,0,10,4,84,1,,,,,,,,,439.5145747000006,440.01513539999996,440.73271170000044,None,440.03196540000044,440.7160558000005,441.2333645000008,441.7175889,left,1,0.5413852000001498,441.2333645000008,None,None,440.03196540000044,441.2168517,0.5115962999998374,0.5953515000001062,1.7132894999995187,1.7968842000000222,,,,,,faizah_1,001,2020_Jan_10_1357,posner,3.1.5,59.951139821080574,
-0.5,0,1,left,1,3,1,0,1,0,10,5,85,0,,,,,,,,,441.80173900000045,442.3019453000006,443.01942640000016,None,442.3185065000007,443.0027237000004,443.5199123000002,444.0040314000007,left,1,0.4708370999996987,443.5199123000002,None,None,442.3185065000007,443.50337390000004,0.5119525999998586,0.5951125000001412,1.713362700000289,1.7968181999995068,,,,,,faizah_1,001,2020_Jan_10_1357,posner,3.1.5,59.951139821080574,
0.5,0,0,right,1,4,1,0,1,0,10,6,86,3,,,,,,,,,444.02153050000015,444.5214994000007,445.2391264000007,None,444.53823980000016,445.2223418000003,445.7397092000001,None,right,1,0.371029400000225,445.7397092000001,None,None,444.53823980000016,445.7230403000003,0.5116687999998248,0.5949978999997256,1.713197900000523,1.796711900000446,,,,,,faizah_1,001,2020_Jan_10_1357,posner,3.1.5,59.951139821080574,
0.5,180,1,right,2,4,1,0,1,0,10,7,87,5,,,,,,,,,446.14061030000084,446.6413063,447.3587756000006,None,446.65772670000024,447.3419006000004,447.85928180000064,None,right,1,0.2914584999998624,447.85928180000064,None,None,446.65772670000024,447.84255850000045,0.5125276999997368,0.5955257999994501,1.713757199999236,1.7974360999996861,,,,,,faizah_1,001,2020_Jan_10_1357,posner,3.1.5,59.951139821080574,
,,,,,,1,0,1,0,,,,,,,,,,,,,,,,,,,,,,,,,,,,,,,,,,448.1767004000003,None,1.5900000107649248e-05,0.995896299999913,faizah_1,001,2020_Jan_10_1357,posner,3.1.5,59.951139821080574,
0.5,180,1,right,2,4,2,0,2,0,0,0,0,7,1.06999996205559e-05,0.09847259999969538,509.19367880000027,None,1.4199999895936344e-05,0.09760209999967628,511.2965597000002,None,511.5761536,512.0810448000002,512.7987384000007,None,512.0981222,512.7818634000005,513.2826953000003,None,right,1,0.34798639999917214,513.2826953000003,None,None,512.0981222,513.2826953000003,0.5151490999996895,0.5984531999993123,1.700260999999955,1.8001670999992712,,,,,,faizah_1,001,2020_Jan_10_1357,posner,3.1.5,59.951139821080574,
-0.5,0,1,left,1,3,2,0,2,0,0,1,1,1,,,,,,,,,513.6516646,514.1508676000003,514.8683974000005,None,514.1671701000005,514.8513527000005,515.3690035,None,left,1,0.3415397999997367,515.3690035,None,None,514.1671701000005,515.3521236000006,0.5111010999999053,0.5941031000002113,1.7123416000004,1.7960417000003872,,,,,,faizah_1,001,2020_Jan_10_1357,posner,3.1.5,59.951139821080574,
-0.5,0,1,left,1,3,2,0,2,0,0,2,2,2,,,,,,,,,515.7372141000005,516.2369496000001,516.9544648000001,None,516.2534499000003,516.9377278000002,517.4552532000007,None,left,1,0.31928900000002614,517.4552532000007,None,None,516.2534499000003,517.4385243000006,0.5117163000004439,0.595172399999683,1.7132737000001725,1.7964668000004167,,,,,,faizah_1,001,2020_Jan_10_1357,posner,3.1.5,59.951139821080574,
0.5,180,1,right,2,4,2,0,2,0,0,3,3,5,,,,,,,,,517.8066028000003,518.3066687,519.0238940000008,None,518.3229787,519.0072889000003,519.5245455000004,None,right,1,0.29016560000036407,519.5245455000004,None,None,518.3229787,519.5077909000001,0.512029800000164,0.5949974000004659,1.713140900000326,1.7966997000003175,,,,,,faizah_1,001,2020_Jan_10_1357,posner,3.1.5,59.951139821080574,
-0.5,180,0,left,2,3,2,0,2,0,0,4,4,4,,,,,,,,,519.8422328000006,520.3421955000003,521.0599680000005,None,520.3591966000004,521.0432557000004,521.5607289,None,left,1,0.34174650000022666,521.5607289,None,None,520.3591966000004,521.5439846000008,0.5117036999999982,0.5953831000006176,1.7134783999999854,1.7970516000004864,,,,,,faizah_1,001,2020_Jan_10_1357,posner,3.1.5,59.951139821080574,
-0.5,0,1,left,1,3,2,0,2,0,0,5,5,0,,,,,,,,,521.9288906000002,522.4288552000007,523.1462714000008,None,522.4453342000006,523.1296087000001,523.6469544000001,None,left,1,0.2875958000004175,523.6469544000001,None,None,522.4453342000006,523.6302869000001,0.5116778999999951,0.5949659999996584,1.7130958999996437,1.7964067000002615,,,,,,faizah_1,001,2020_Jan_10_1357,posner,3.1.5,59.951139821080574,
0.5,0,0,right,1,4,2,0,2,0,0,6,6,3,,,,,,,,,523.9647033000001,524.4646434000006,525.1825459000002,None,524.4813627000003,525.1657403000008,525.6829950000001,None,right,1,0.3957387000000381,525.6829950000001,None,None,524.4813627000003,525.6665401,0.5116217999993751,0.59511509999993,1.7134951999996701,1.7968270999999731,,,,,,faizah_1,001,2020_Jan_10_1357,posner,3.1.5,59.951139821080574,
0.5,180,1,right,2,4,2,0,2,0,0,7,7,6,,,,,,,,,526.1018027,526.6013066000005,527.3187339000006,None,526.6176367000007,527.3019982000005,527.8194556000008,None,right,1,0.2831387000005634,527.8194556000008,None,None,526.6176367000007,527.8027106,0.5118637999994462,0.5948825999994369,1.7132526999994298,1.7968035999992935,,,,,,faizah_1,001,2020_Jan_10_1357,posner,3.1.5,59.951139821080574,
-0.5,0,1,left,1,3,2,0,2,0,1,0,8,1,,,,,,,,,528.1209683000006,528.6205107000005,529.3383010000007,None,528.6371284000006,529.3215808000004,529.8389052000002,None,left,1,0.26356809999924735,529.8389052000002,None,None,528.6371284000006,529.822185,0.5116183000000092,0.5948832000003677,1.7132700000001932,1.7966722000001027,,,,,,faizah_1,001,2020_Jan_10_1357,posner,3.1.5,59.951139821080574,
-0.5,0,1,left,1,3,2,0,2,0,1,1,9,0,,,,,,,,,530.1225297000001,530.6231289000007,531.3409683,None,530.6398401000006,531.3243439000007,531.8415587,None,left,1,0.3008135999998558,531.8415587,None,None,530.6398401000006,531.8247655000005,0.5117152000002534,0.5953832000004695,1.7133272000000943,1.796925800000281,,,,,,faizah_1,001,2020_Jan_10_1357,posner,3.1.5,59.951139821080574,
-0.5,0,1,left,1,3,2,0,2,0,1,2,10,2,,,,,,,,,532.1597999000005,532.6594296000003,533.3769416000005,None,532.6762344000008,533.3603220000005,533.8777738000008,None,left,1,0.2568801000006715,533.8777738000008,None,None,532.6762344000008,533.8611028000005,0.5117178000000422,0.5949461000000156,1.7133794000001217,1.7967059000002337,,,,,,faizah_1,001,2020_Jan_10_1357,posner,3.1.5,59.951139821080574,
0.5,180,1,right,2,4,2,0,2,0,1,3,11,7,,,,,,,,,534.1623387,534.6620842000002,535.3798438000003,None,534.6789834000001,535.3631183000007,535.8805545000005,None,right,1,0.1259383999995407,535.8805545000005,None,None,534.6789834000001,535.8637357000007,0.5116511999995055,0.5951126999998451,1.7132934999999634,1.7967349000000468,,,,,,faizah_1,001,2020_Jan_10_1357,posner,3.1.5,59.951139821080574,
-0.5,180,0,left,2,3,2,0,2,0,1,4,12,4,,,,,,,,,536.0313751000003,536.5312381000003,537.2490518000004,None,536.5480666000003,537.2321246000001,537.7497095000008,None,left,1,0.2730068000000756,537.7497095000008,None,None,536.5480666000003,537.7328609000006,0.5115701000004265,0.595197300000109,1.7131732000007105,1.7968994000002567,,,,,,faizah_1,001,2020_Jan_10_1357,posner,3.1.5,59.951139821080574,
0.5,180,1,right,2,4,2,0,2,0,1,5,13,5,,,,,,,,,538.0503097000001,538.5508702000006,539.2686161000001,None,538.5675813000007,539.2518326000009,539.7691251000006,None,right,1,0.25331310000001395,539.7691251000006,None,None,538.5675813000007,539.7524106000001,0.5118225000005623,0.5950911999998425,1.7133405000004132,1.7967657999997755,,,,,,faizah_1,001,2020_Jan_10_1357,posner,3.1.5,59.951139821080574,
0.5,180,1,right,2,4,2,0,2,0,1,6,14,6,,,,,,,,,540.0531579000008,540.5534700000007,541.2712879000001,None,540.5704531000001,541.2544029000001,541.7719164,None,right,1,0.36251700000048004,541.7719164,None,None,540.5704531000001,541.7553141000008,0.5120641000003161,0.5955155000001469,1.7138944999996966,1.7973192999997991,,,,,,faizah_1,001,2020_Jan_10_1357,posner,3.1.5,59.951139821080574,
0.5,0,0,right,1,4,2,0,2,0,1,7,15,3,,,,,,,,,542.1567970000006,542.6564475000005,543.3740412000006,None,542.6730459,543.3575564000002,543.8747716000007,None,right,1,0.4596375999999509,543.8747716000007,None,None,542.6730459,543.8580395000008,0.511543999999958,0.5950385999994978,1.713124500000049,1.7966712999996162,,,,,,faizah_1,001,2020_Jan_10_1357,posner,3.1.5,59.951139821080574,
-0.5,0,1,left,1,3,2,0,2,0,2,0,16,2,,,,,,,,,544.3594345000001,544.8596458000002,545.5772551,None,544.8762806000004,545.5604101000008,546.0778071000004,544.3594345000001,left,1,0.2568100000007689,546.0778071000004,None,None,544.8762806000004,546.0611143000006,0.5117318000002342,0.5949117999998634,1.7131779999999708,1.7965811000003669,,,,,,faizah_1,001,2020_Jan_10_1357,posner,3.1.5,59.951139821080574,
0.5,180,1,right,2,4,2,0,2,0,2,1,17,7,,,,,,,,,546.3766815000008,546.8621514000006,547.5800282,None,546.8789444000004,547.5631341000008,548.0805509000002,None,right,1,0.24584570000024542,548.0805509000002,None,None,546.8789444000004,548.0637465,0.5096917000000758,0.5931110000001354,1.7112723000000187,1.7948592000002463,,,,,,faizah_1,001,2020_Jan_10_1357,posner,3.1.5,59.951139821080574,
0.5,0,0,right,1,4,2,0,2,0,2,2,18,3,,,,,,,,,548.3486344000003,548.8483874000003,549.5660982000009,None,548.8650116000008,549.5492666,550.0668169,None,left,0,0.23566770000070392,550.0668169,None,None,548.8650116000008,550.0501813000001,0.5116394000006039,0.5949930000006134,1.713417500000105,1.7965122000005067,,,,,,faizah_1,001,2020_Jan_10_1357,posner,3.1.5,59.951139821080574,
-0.5,180,0,left,2,3,2,0,2,0,2,3,19,4,,,,,,,,,550.3182598000003,550.8177289000005,551.5354085000008,None,550.8344572000005,551.5187372,552.0360606000004,None,left,1,0.402322599999934,552.0360606000004,None,None,550.8344572000005,552.0194893000007,0.5110646000002816,0.5944607999999789,1.7128084000005401,1.7959983000000648,,,,,,faizah_1,001,2020_Jan_10_1357,posner,3.1.5,59.951139821080574,
-0.5,0,1,left,1,3,2,0,2,0,2,4,20,0,,,,,,,,,552.4541688000008,552.9538916000001,553.6716132000001,None,552.9706839,553.6548224000007,554.1723168000008,None,left,1,0.33809389999987616,554.1723168000008,None,None,552.9706839,554.1556011000002,0.5117165999999997,0.5952827999999499,1.7134305999998105,1.7968871000002764,,,,,,faizah_1,001,2020_Jan_10_1357,posner,3.1.5,59.951139821080574,
-0.5,0,1,left,1,3,2,0,2,0,2,5,21,1,,,,,,,,,554.5401899000008,555.0402801,555.7578362000004,None,555.0571218000005,555.7412712000005,556.2585706,None,left,1,0.3398923000004288,556.2585706,None,None,555.0571218000005,556.241677,0.5118263000003935,0.5949753000004421,1.713209800000186,1.7966435999996975,,,,,,faizah_1,001,2020_Jan_10_1357,posner,3.1.5,59.951139821080574,
0.5,180,1,right,2,4,2,0,2,0,2,6,22,5,,,,,,,,,556.6265388000002,557.1264585000008,557.8439803000001,None,557.1430026000007,557.8273121000002,558.3445314,None,right,1,0.32590200000049663,558.3445314,None,None,557.1430026000007,558.3278916000008,0.5115564999996423,0.5949009999994814,1.7129770999999892,1.7965073999994274,,,,,,faizah_1,001,2020_Jan_10_1357,posner,3.1.5,59.951139821080574,
0.5,180,1,right,2,4,2,0,2,0,2,7,23,6,,,,,,,,,558.6961396000006,559.1957990000001,559.9134611,None,559.2124495000007,559.8969222000005,560.4140824000006,None,right,1,0.3122377999998207,560.4140824000006,None,None,559.2124495000007,560.3975902000002,0.5115174000002298,0.5950629999997545,1.7132824999998775,1.796761499999775,,,,,,faizah_1,001,2020_Jan_10_1357,posner,3.1.5,59.951139821080574,
-0.5,0,1,left,1,3,2,0,2,0,3,0,24,0,,,,,,,,,560.7490983000007,561.2487089000006,561.9662963000001,None,561.2653822000002,561.9499888,562.4673723000005,None,left,1,0.259027099999912,562.4673723000005,None,None,561.2653822000002,562.4503738000003,0.5115255000000616,0.5951696000001903,1.713177500000711,1.7964905000008002,,,,,,faizah_1,001,2020_Jan_10_1357,posner,3.1.5,59.951139821080574,
0.5,180,1,right,2,4,2,0,2,0,3,1,25,5,,,,,,,,,562.751448,563.2514455,563.9691962000006,None,563.2683710000001,563.9522982000008,564.4697579000003,None,right,1,0.22460489999957645,564.4697579000003,None,None,563.2683710000001,564.4530865000006,0.5117575000003853,0.595243599999776,1.7133794999999736,1.7967288999998345,,,,,,faizah_1,001,2020_Jan_10_1357,posner,3.1.5,59.951139821080574,
-0.5,0,1,left,1,3,2,0,2,0,3,2,26,2,,,,,,,,,564.7209583000003,565.2210173000003,565.9387036000007,None,565.2375561000008,565.9219030000004,566.4392565000007,None,left,1,0.24721090000002732,566.4392565000007,None,None,565.2375561000008,566.4223760000004,0.5118232000004355,0.5950617999997121,1.7131743999998434,1.7969260999998369,,,,,,faizah_1,001,2020_Jan_10_1357,posner,3.1.5,59.951139821080574,
0.5,180,1,right,2,4,2,0,2,0,3,3,27,6,,,,,,,,,566.7074378000007,567.2066518000001,567.9244086000008,None,567.2234882000002,567.9077051000004,568.4252849000004,None,right,1,0.3411781000004339,568.4252849000004,None,None,567.2234882000002,568.4085505000003,0.5111499000004187,0.5949891999998727,1.713024900000164,1.796351300000424,,,,,,faizah_1,001,2020_Jan_10_1357,posner,3.1.5,59.951139821080574,
-0.5,180,0,left,2,3,2,0,2,0,3,4,28,4,,,,,,,,,568.7933090000006,569.2931453000001,570.0107959000006,None,569.3100204000002,569.9938811000002,570.5114071000007,570.9955111000008,left,1,0.4790203000002293,570.5114071000007,None,None,569.3100204000002,570.4948911000001,0.5116590999996333,0.5951233999994656,1.7134157000000414,1.796690899999703,,,,,,faizah_1,001,2020_Jan_10_1357,posner,3.1.5,59.951139821080574,
-0.5,0,1,left,1,3,2,0,2,0,3,5,29,1,,,,,,,,,571.0122904,571.5127011000004,572.2303455000001,None,571.5294894000008,572.2136357000009,572.7312335000006,None,left,1,0.2511310999998386,572.7312335000006,None,None,571.5294894000008,572.7145360000004,0.5115839000000051,0.5955946999993103,1.7133988999994472,1.7967515999998795,,,,,,faizah_1,001,2020_Jan_10_1357,posner,3.1.5,59.951139821080574,
0.5,180,1,right,2,4,2,0,2,0,3,6,30,7,,,,,,,,,572.9991097000002,573.4989945000007,574.2163549000006,None,573.5155083,574.1999736000007,574.7173112,None,right,1,0.3050579000000653,574.7173112,None,None,573.5155083,574.7006821000004,0.5114556999997149,0.5947326999994402,1.7131318000001556,1.796317100000124,,,,,,faizah_1,001,2020_Jan_10_1357,posner,3.1.5,59.951139821080574,
0.5,0,0,right,1,4,2,0,2,0,3,7,31,3,,,,,,,,,575.0520303000003,575.5518774000002,576.2694257000003,None,575.5683412000008,576.2524937000007,576.7700833000008,None,right,1,0.4283060999996451,576.7700833000008,None,None,575.5683412000008,576.7532419000008,0.5118346999997812,0.5949655999993411,1.71318489999976,1.7969146999994337,,,,,,faizah_1,001,2020_Jan_10_1357,posner,3.1.5,59.951139821080574,
-0.5,0,1,left,1,3,2,0,2,0,4,0,32,0,,,,,,,,,577.2214182000007,577.7212937000004,578.4391224000001,None,577.738147,578.4221940000007,578.9397661000003,None,left,1,0.3306493000000046,578.9397661000003,None,None,577.738147,578.9229319000005,0.5115406999993866,0.594936599999528,1.7131607000001168,1.796713899999304,,,,,,faizah_1,001,2020_Jan_10_1357,posner,3.1.5,59.951139821080574,
0.5,180,1,right,2,4,2,0,2,0,4,1,33,6,,,,,,,,,579.2911557000007,579.7910312000004,580.5086876000005,None,579.8076011000003,580.4916825,581.0092189000006,None,right,1,0.3491772999996101,581.0092189000006,None,None,579.8076011000003,580.9923954000005,0.5117206000004444,0.5949638000001869,1.713067100000444,1.796269299999949,,,,,,faizah_1,001,2020_Jan_10_1357,posner,3.1.5,59.951139821080574,
-0.5,0,1,left,1,3,2,0,2,0,4,2,34,2,,,,,,,,,581.3776380000008,581.8772667000003,582.5946311000007,None,581.8937002000002,582.5780881000001,583.0954076000007,None,left,1,0.28683120000005147,583.0954076000007,None,None,581.8937002000002,583.0788118,0.5115329999998721,0.5948710000002393,1.7130605000002106,1.7964167000000089,,,,,,faizah_1,001,2020_Jan_10_1357,posner,3.1.5,59.951139821080574,
-0.5,0,1,left,1,3,2,0,2,0,4,3,35,1,,,,,,,,,583.4127296000006,583.9132060000002,584.6309533000003,None,583.9299415000005,584.6141464000002,585.1316177000008,None,left,1,0.3227625999998054,585.1316177000008,None,None,583.9299415000005,585.1149196000006,0.5124110000006112,0.5957699999999022,1.7141295999999784,1.7977010000004157,,,,,,faizah_1,001,2020_Jan_10_1357,posner,3.1.5,59.951139821080574,
-0.5,180,0,left,2,3,2,0,2,0,4,4,36,4,,,,,,,,,585.4827877000007,585.9825571000001,586.7005979000005,None,585.9995572000007,586.6836335000007,587.2013323000001,None,left,1,0.4129858999995122,587.2013323000001,None,None,585.9995572000007,587.1843946000008,0.511583999999857,0.5952830999995058,1.713405700000294,1.7969223999998576,,,,,,faizah_1,001,2020_Jan_10_1357,posner,3.1.5,59.951139821080574,
0.5,180,1,right,2,4,2,0,2,0,4,5,37,5,,,,,,,,,587.6362942000005,588.1357339000006,588.8533219000001,None,588.1521648000007,588.8366510000005,589.3540215000003,None,right,1,0.3564334000002418,589.3540215000003,None,None,588.1521648000007,589.3374186000001,0.5113846000003832,0.5947533999997177,1.7130452999999761,1.7964676000001418,,,,,,faizah_1,001,2020_Jan_10_1357,posner,3.1.5,59.951139821080574,
0.5,180,1,right,2,4,2,0,2,0,4,6,38,7,,,,,,,,,589.7388627,590.2386145,590.9563026000005,None,590.2552019000004,590.9394754000004,591.4569368000002,None,right,1,0.36547780000000785,591.4569368000002,None,None,590.2552019000004,591.4403958000003,0.5115595999996003,0.5949064999995244,1.7133146999995006,1.7966486999994231,,,,,,faizah_1,001,2020_Jan_10_1357,posner,3.1.5,59.951139821080574,
0.5,0,0,right,1,4,2,0,2,0,4,7,39,3,,,,,,,,,591.8409750000001,592.3416483000001,593.0591065000008,None,592.3581882000008,593.0423423000002,593.5598164000003,None,right,1,0.45448339999984455,593.5598164000003,None,None,592.3581882000008,593.5429761000005,0.5124812000003658,0.595689300000231,1.71379750000051,1.7974750000003041,,,,,,faizah_1,001,2020_Jan_10_1357,posner,3.1.5,59.951139821080574,
-0.5,0,1,left,1,3,2,0,2,0,5,0,40,1,,,,,,,,,594.0445758000005,594.5444244,595.2620278000004,None,594.5611825000005,595.2455140000002,595.7627420000008,594.0445758000005,left,1,0.29158579999966605,595.7627420000008,None,None,594.5611825000005,595.7462908000007,0.5115968999998586,0.5951343999995515,1.7134393999995154,1.796835199999805,,,,,,faizah_1,001,2020_Jan_10_1357,posner,3.1.5,59.951139821080574,
0.5,180,1,right,2,4,2,0,2,0,5,1,41,5,,,,,,,,,596.0806947000001,596.5806984000001,597.2984426000003,None,596.5977470000007,597.2815505000008,597.7990031000008,None,right,1,0.35114189999967493,597.7990031000008,None,None,596.5977470000007,597.7822197000005,0.5117276000000857,0.5949952000000849,1.7132329999994909,1.796886699999959,,,,,,faizah_1,001,2020_Jan_10_1357,posner,3.1.5,59.951139821080574,
0.5,0,0,right,1,4,2,0,2,0,5,2,42,3,,,,,,,,,598.1672098000008,598.6668614,599.3844847,None,598.6834674000002,599.3677644000009,599.8850431000001,None,right,1,0.41721440000037546,599.8850431000001,None,None,598.6834674000002,599.8686351000006,0.5113568000006126,0.5950265000001309,1.7131142000007458,1.796513700000105,,,,,,faizah_1,001,2020_Jan_10_1357,posner,3.1.5,59.951139821080574,
-0.5,180,0,left,2,3,2,0,2,0,5,3,43,4,,,,,,,,,600.3202540000002,600.8198183000004,601.5376912000002,None,600.8364822000003,601.5206503000009,602.0383169000006,None,left,1,0.3840630000004239,602.0383169000006,None,None,600.8364822000003,602.0214398000007,0.5114062000002377,0.5946670000002996,1.7130069000004369,1.7963554999996632,,,,,,faizah_1,001,2020_Jan_10_1357,posner,3.1.5,59.951139821080574,
-0.5,0,1,left,1,3,2,0,2,0,5,4,44,0,,,,,,,,,602.4393380000001,602.9395089,603.6571652000002,None,602.9561049000004,603.6402912000003,604.1577677000005,None,left,1,0.3447606999998243,604.1577677000005,None,None,602.9561049000004,604.1411574000003,0.5116146999998819,0.5949100000007093,1.713241299999936,1.7966980000001058,,,,,,faizah_1,001,2020_Jan_10_1357,posner,3.1.5,59.951139821080574,
-0.5,0,1,left,1,3,2,0,2,0,5,5,45,2,,,,,,,,,604.5255317000001,605.0255284000004,605.7432803000002,None,605.0421458000001,605.7266220000001,606.2442112000008,None,left,1,0.3540242999997645,606.2442112000008,None,None,605.0421458000001,606.2275921,0.5121523999996498,0.5957201999999597,1.714211699999396,1.7971465000000535,,,,,,faizah_1,001,2020_Jan_10_1357,posner,3.1.5,59.951139821080574,
0.5,180,1,right,2,4,2,0,2,0,5,6,46,6,,,,,,,,,606.6278877000004,607.1287420000008,607.8462178,None,607.145278,607.8293997000001,608.3469341,None,right,1,0.33130119999987073,608.3469341,None,None,607.145278,608.3301936000007,0.5125207999999475,0.5957109999999375,1.7139577999996618,1.797400700000253,,,,,,faizah_1,001,2020_Jan_10_1357,posner,3.1.5,59.951139821080574,
0.5,180,1,right,2,4,2,0,2,0,5,7,47,7,,,,,,,,,608.6984745,609.1980259000002,609.9155989000001,None,609.2146776,609.8990346,610.4164468000008,None,right,1,0.2619970000005196,610.4164468000008,None,None,609.2146776,610.3998059000005,0.5114010999996026,0.5948158999999578,1.7131686000002446,1.7963030999999319,,,,,,faizah_1,001,2020_Jan_10_1357,posner,3.1.5,59.951139821080574,
-0.5,180,0,left,2,3,2,0,2,0,6,0,48,4,,,,,,,,,610.7010753000004,611.2007888000007,611.9185216000005,None,611.2174612000008,611.9016889000004,612.4190155000006,None,left,1,0.3632867000005717,612.4190155000006,None,None,611.2174612000008,612.402454,0.5116639999996551,0.5948638999998366,1.7133086999992884,1.7968975999992836,,,,,,faizah_1,001,2020_Jan_10_1357,posner,3.1.5,59.951139821080574,
-0.5,0,1,left,1,3,2,0,2,0,6,1,49,2,,,,,,,,,612.8044014000006,613.3038238000008,614.0213570000005,None,613.3204660000001,614.0045224000005,614.5219821000001,None,left,1,0.268210000000181,614.5219821000001,None,None,613.3204660000001,614.5056036000005,0.5114784000006694,0.5947640000003958,1.7132541999999376,1.7965015999998286,,,,,,faizah_1,001,2020_Jan_10_1357,posner,3.1.5,59.951139821080574,
-0.5,0,1,left,1,3,2,0,2,0,6,2,50,0,,,,,,,,,614.8068545000006,615.3065077000001,616.0240777000008,None,615.3230061000004,616.0073323000006,616.5246691000002,None,left,1,0.30559959999936837,616.5246691000002,None,None,615.3230061000004,616.5080397000002,0.5115384999999151,0.5949156000006042,1.7130598000003374,1.7964720999998463,,,,,,faizah_1,001,2020_Jan_10_1357,posner,3.1.5,59.951139821080574,
-0.5,0,1,left,1,3,2,0,2,0,6,3,51,1,,,,,,,,,616.8592987000002,617.3593761000002,618.0768708000005,None,617.3759058000005,618.0603125000007,618.5775446000007,None,left,1,0.3247066999992967,618.5775446000007,None,None,617.3759058000005,618.5608982000003,0.5118149999998423,0.5949833000004219,1.7133223000000726,1.7968676000000414,,,,,,faizah_1,001,2020_Jan_10_1357,posner,3.1.5,59.951139821080574,
0.5,180,1,right,2,4,2,0,2,0,6,4,52,5,,,,,,,,,618.9288517000005,619.4288580000002,620.1464666000002,None,619.4454153000006,620.1298862000003,620.6472427000008,None,right,1,0.23901220000061585,620.6472427000008,None,None,619.4454153000006,620.6304645,0.5118624999995518,0.5951365000000806,1.7134532999998555,1.7968579999997019,,,,,,faizah_1,001,2020_Jan_10_1357,posner,3.1.5,59.951139821080574,
0.5,0,0,right,1,4,2,0,2,0,6,5,53,3,,,,,,,,,620.9150959000008,621.4146278000007,622.1323995000002,None,621.4314443000003,622.1159231000001,622.6331038000008,None,right,1,0.45302189999983966,622.6331038000008,None,None,621.4314443000003,622.6166580000008,0.5114061999993282,0.5949849999997241,1.713417599999957,1.7969597000001158,,,,,,faizah_1,001,2020_Jan_10_1357,posner,3.1.5,59.951139821080574,
0.5,180,1,right,2,4,2,0,2,0,6,6,54,7,,,,,,,,,623.1183030000002,623.6177729000001,624.3355883000004,None,623.6346535000002,624.3188526000004,624.8362075000005,623.1183030000002,right,1,0.2500590999998167,624.8362075000005,None,None,623.6346535000002,624.8196619,0.5112637000001996,0.5950168999997913,1.7131290999996054,1.7964840000004187,,,,,,faizah_1,001,2020_Jan_10_1357,posner,3.1.5,59.951139821080574,
0.5,180,1,right,2,4,2,0,2,0,6,7,55,6,,,,,,,,,625.1045935000002,625.6038984000006,626.3216405000003,None,625.6205900000004,626.3050501000007,626.8220963000003,None,right,1,0.2959467999999106,626.8220963000003,None,None,625.6205900000004,626.8057566000007,0.5113110000002052,0.5947998999999982,1.7131356999998388,1.7964388000000326,,,,,,faizah_1,001,2020_Jan_10_1357,posner,3.1.5,59.951139821080574,
-0.5,180,0,left,2,3,2,0,2,0,7,0,56,4,,,,,,,,,627.1403533000002,627.6400921000004,628.3576719000002,None,627.6567410000007,628.3409007,628.8583817000008,None,left,1,0.30781090000073164,628.8583817000008,None,None,627.6567410000007,628.8416291000003,0.5116303000004336,0.5949729000003572,1.7131451000004745,1.7966459999997824,,,,,,faizah_1,001,2020_Jan_10_1357,posner,3.1.5,59.951139821080574,
0.5,180,1,right,2,4,2,0,2,0,7,1,57,5,,,,,,,,,629.1931078000007,629.6928463000004,630.4106493000008,None,629.7096883000004,630.3938472,630.9112572000004,None,right,1,0.21487290000004577,630.9112572000004,None,None,629.7096883000004,630.8946810000007,0.5115641000002142,0.5950388999999632,1.7134000000005472,1.796786400000201,,,,,,faizah_1,001,2020_Jan_10_1357,posner,3.1.5,59.951139821080574,
0.5,180,1,right,2,4,2,0,2,0,7,2,58,6,,,,,,,,,631.1462269000003,631.6456614000008,632.3632268000001,None,631.6622474000005,632.3466903000008,632.8642595000001,None,right,1,0.3258723999997528,632.8642595000001,None,None,631.6622474000005,632.8473885000003,0.5114178999992873,0.5947347999999693,1.7131327999995847,1.7963222999997015,,,,,,faizah_1,001,2020_Jan_10_1357,posner,3.1.5,59.951139821080574,
-0.5,0,1,left,1,3,2,0,2,0,7,3,59,2,,,,,,,,,633.2154778000004,633.7151786000004,634.4326176000004,None,633.7319110000008,634.4159958,634.9332899000001,None,left,1,0.34486159999960364,634.9332899000001,None,None,633.7319110000008,634.9166934000004,0.5118136999999479,0.5950047000005725,1.7132775999998557,1.7967312999999194,,,,,,faizah_1,001,2020_Jan_10_1357,posner,3.1.5,59.951139821080574,
0.5,0,0,right,1,4,2,0,2,0,7,4,60,3,,,,,,,,,635.3014684,635.8011743000006,636.5191471000007,None,635.8181376000002,636.5021932,637.0197424000007,None,right,1,0.24237389999962033,637.0197424000007,None,None,635.8181376000002,637.0028769,0.5116097000000082,0.594926900000246,1.7132996000000276,1.7966767000007167,,,,,,faizah_1,001,2020_Jan_10_1357,posner,3.1.5,59.951139821080574,
0.5,180,1,right,2,4,2,0,2,0,7,5,61,7,,,,,,,,,637.2879419000001,637.7875074000003,638.5049555000005,None,637.8039342000002,638.4883569000003,639.0058249000003,None,right,1,0.3122140000004947,639.0058249000003,None,None,637.8039342000002,638.9891512000004,0.5116593999991892,0.5949555999995937,1.7132924999996249,1.7966139000000112,,,,,,faizah_1,001,2020_Jan_10_1357,posner,3.1.5,59.951139821080574,
-0.5,0,1,left,1,3,2,0,2,0,7,6,62,1,,,,,,,,,639.3400204,639.8402218000001,640.5577985,None,639.8567888000007,640.5412125000003,641.0585621,None,left,1,0.3954044000001886,641.0585621,None,None,639.8567888000007,641.0418301,0.512111800000639,0.5953409000003376,1.713705199999822,1.7972145000003366,,,,,,faizah_1,001,2020_Jan_10_1357,posner,3.1.5,59.951139821080574,
-0.5,0,1,left,1,3,2,0,2,0,7,7,63,0,,,,,,,,,641.4757584000008,641.9764166000004,642.6941541000006,None,641.9930338000004,642.6774427,643.1947055,None,left,1,0.4114866999998412,643.1947055,None,None,641.9930338000004,643.1783288000006,0.5121257000000696,0.5956450000003315,1.7140151000003243,1.7971999000001233,,,,,,faizah_1,001,2020_Jan_10_1357,posner,3.1.5,59.951139821080574,
-0.5,0,1,left,1,3,2,0,2,0,8,0,64,1,,,,,,,,,643.6294626000008,644.1294063000005,644.8471723000002,None,644.1460870000001,644.8304272000005,645.3479000000007,None,left,1,0.38622550000036426,645.3479000000007,None,None,644.1460870000001,645.3310578,0.5116760000000795,0.5949677000007796,1.7133152000005794,1.7966700000006313,,,,,,faizah_1,001,2020_Jan_10_1357,posner,3.1.5,59.951139821080574,
0.5,180,1,right,2,4,2,0,2,0,8,1,65,5,,,,,,,,,645.7660302000004,646.2657126000004,646.9831350000004,None,646.2822344000006,646.9667376000007,647.4838917000006,None,right,1,0.25036159999945085,647.4838917000006,None,None,646.2822344000006,647.4673972,0.5115710999998555,0.595035999999709,1.7132407999997668,1.796775699999671,,,,,,faizah_1,001,2020_Jan_10_1357,posner,3.1.5,59.951139821080574,
-0.5,0,1,left,1,3,2,0,2,0,8,2,66,0,,,,,,,,,647.7521447000008,648.2516330000008,648.9695071000006,None,648.2685118000009,648.9527098000008,649.4700647,None,left,1,0.336006699999416,649.4700647,None,None,648.2685118000009,649.4533192000008,0.5112680000002001,0.5948456000005535,1.7129346000001533,1.7963463000005504,,,,,,faizah_1,001,2020_Jan_10_1357,posner,3.1.5,59.951139821080574,
0.5,0,0,right,1,4,2,0,2,0,8,3,67,3,,,,,,,,,649.8380705,650.3379334000001,651.0559570000005,None,650.3544638000003,651.0389780000005,651.55645,None,right,1,0.3216041999994559,651.55645,None,None,650.3544638000003,651.5396633,0.5115249999998923,0.5950236999997287,1.713232899999639,1.7965811999993093,,,,,,faizah_1,001,2020_Jan_10_1357,posner,3.1.5,59.951139821080574,
-0.5,0,1,left,1,3,2,0,2,0,8,4,68,2,,,,,,,,,651.9074414000006,652.4075019000002,653.1251427000007,None,652.4241532000005,653.1083707000007,653.6258326000006,None,left,1,0.28412980000030075,653.6258326000006,None,None,652.4241532000005,653.6092135000008,0.511609999999564,0.5951531999999133,1.7133057000000917,1.796539799999664,,,,,,faizah_1,001,2020_Jan_10_1357,posner,3.1.5,59.951139821080574,
0.5,180,1,right,2,4,2,0,2,0,8,5,69,6,,,,,,,,,653.9271928000007,654.4268008000008,655.1446765000001,None,654.4435543,655.1279411000005,655.6454063000001,None,right,1,0.2887112000007619,655.6454063000001,None,None,654.4435543,655.6286335000004,0.5114205999998376,0.5951647000001685,1.7132287000003998,1.7965548000001945,,,,,,faizah_1,001,2020_Jan_10_1357,posner,3.1.5,59.951139821080574,
-0.5,180,0,left,2,3,2,0,2,0,8,6,70,4,,,,,,,,,655.9626653000005,656.4630041,657.1806643,None,656.4798098000001,657.1638893000008,657.6815646000005,None,left,1,0.4365301999996518,657.6815646000005,None,None,656.4798098000001,657.6645095000003,0.512101000000257,0.5955541000002995,1.713616699999875,1.797411600000487,,,,,,faizah_1,001,2020_Jan_10_1357,posner,3.1.5,59.951139821080574,
0.5,180,1,right,2,4,2,0,2,0,8,7,71,7,,,,,,,,,658.1495172000004,658.6496767000008,659.3672105000005,None,658.6661256000007,659.3503563000004,659.8678436,None,right,1,0.33023730000059004,659.8678436,None,None,658.6661256000007,659.8511468000006,0.5119217000001299,0.5949032999997144,1.7133760999995502,1.796770099999776,,,,,,faizah_1,001,2020_Jan_10_1357,posner,3.1.5,59.951139821080574,
