targetX,cueOri,congr,corrAns,pin_cue,pin_target,block.thisRepN,block.thisTrialN,block.thisN,block.thisIndex,posner_task.thisRepN,posner_task.thisTrialN,posner_task.thisN,posner_task.thisIndex,port_start_block.started,port_start_block.stopped,text_2.started,text_2.stopped,p_port.started,p_port.stopped,text.started,text.stopped,fixation_1.started,fixation_1.stopped,fixation_2.started,fixation_2.stopped,cue.started,cue.stopped,target.started,target.stopped,correct_key_resp.keys,correct_key_resp.corr,correct_key_resp.started,correct_key_resp.stopped,early_resp.keys,early_resp.started,early_resp.stopped,trigger_cue.started,trigger_cue.stopped,trigger_target.started,trigger_target.stopped,correct_key_resp.rt,break_text.started,break_text.stopped,end_port.started,end_port.stopped,early_resp.rt,participant,session,date,expName,psychopyVersion,frameRate,
-0.5,0,1,left,1,3,0,0,0,0,0,0,0,1,1.7600000319362152e-05,0.09563810000054218,30.37299990000065,None,1.3199999557400588e-05,0.0993888999992123,32.2564768000002,None,32.5889044000005,33.090246200000365,33.806994000000486,None,33.10686870000063,33.7905553999999,34.30725680000069,34.79085050000049,None,0,34.30725680000069,None,None,33.10686870000063,34.29074420000052,0.5114311000006637,0.5946570000005522,1.7119112000000314,1.7951388999999836,,,,,,,ashley_2,001,2020_Feb_12_1028,posner,3.1.5,59.98210134094505,
0.5,180,1,right,2,4,0,0,0,0,0,1,1,5,,,,,,,,,35.040835900000275,35.54112179999993,36.25772710000001,None,35.55752040000061,36.24125110000023,36.75780500000019,None,right,1,36.75780500000019,None,None,35.55752040000061,36.74125559999993,0.5145894999996017,0.5977027999997517,1.7147224999998798,1.7981580999994549,0.44236350000028324,,,,,,ashley_2,001,2020_Feb_12_1028,posner,3.1.5,59.98210134094505,
0.5,180,1,right,2,4,0,0,0,0,0,2,2,6,,,,,,,,,37.22544950000065,37.7250597000002,38.44207259999985,None,37.74158729999999,38.42538719999993,38.942058700000416,None,right,1,38.942058700000416,None,None,37.74158729999999,38.92565680000007,0.5111614999996164,0.5944368000000395,1.7117426000004343,1.7947619999995368,0.37013500000011845,,,,,,ashley_2,001,2020_Feb_12_1028,posner,3.1.5,59.98210134094505,
0.5,180,1,right,2,4,0,0,0,0,0,3,3,7,,,,,,,,,39.3427843999998,39.842299700000694,40.559102400000484,None,39.85881849999987,40.54236200000014,41.05926460000046,None,left,0,41.05926460000046,None,None,39.85881849999987,41.04285590000018,0.5111385000000155,0.5944903999998132,1.711676400000215,1.794829600000412,0.324823899999501,,,,,,ashley_2,001,2020_Feb_12_1028,posner,3.1.5,59.98210134094505,
0.5,0,0,right,1,4,0,0,0,0,0,4,4,3,,,,,,,,,41.4107324000006,41.90946640000038,42.62647840000045,None,41.926264400000036,42.60990500000025,43.12661329999992,None,right,1,43.12661329999992,None,None,41.926264400000036,43.1099662000006,0.5111439000002065,0.5943591000004744,1.7113389000005554,1.7948354000000108,0.4014545999998518,,,,,,ashley_2,001,2020_Feb_12_1028,posner,3.1.5,59.98210134094505,
-0.5,180,0,left,2,3,0,0,0,0,0,5,5,4,,,,,,,,,43.544141899999886,44.04368669999985,44.76064700000006,None,44.060348400000294,44.743833300000006,45.2607109999999,None,left,1,45.2607109999999,None,None,44.060348400000294,45.244033599999966,0.511316899999656,0.5944661999992604,1.7116560999993453,1.794852600000013,0.3953664000000572,,,,,,ashley_2,001,2020_Feb_12_1028,posner,3.1.5,59.98210134094505,
-0.5,0,1,left,1,3,0,0,0,0,0,6,6,2,,,,,,,,,45.679084299999886,46.17749869999989,46.89471020000019,None,46.19450289999986,46.87772490000043,47.394819900000584,None,left,1,47.394819900000584,None,None,46.19450289999986,47.37782960000004,0.5106329999998707,0.594011799999862,1.7109424999998737,1.7943461999993815,0.4133519000006345,,,,,,ashley_2,001,2020_Feb_12_1028,posner,3.1.5,59.98210134094505,
-0.5,0,1,left,1,3,0,0,0,0,0,7,7,0,,,,,,,,,47.82910870000069,48.3282334000005,49.04539470000054,None,48.345080600000074,49.02839540000059,49.54535820000001,None,left,1,49.54535820000001,None,None,48.345080600000074,49.52862450000066,0.5109757999998692,0.5944376999996166,1.7113458000003448,1.7945247999996354,0.35884379999970406,,,,,,ashley_2,001,2020_Feb_12_1028,posner,3.1.5,59.98210134094505,
0.5,180,1,right,2,4,0,0,0,0,1,0,8,6,,,,,,,,,49.92987660000017,50.428795900000296,51.145981600000596,None,50.4457209000002,51.129134499999964,51.64622750000035,None,right,1,51.64622750000035,None,None,50.4457209000002,51.629261699999915,0.511017400000128,0.5946155999999974,1.711494700000003,1.7948630999999295,0.3219076000004861,,,,,,ashley_2,001,2020_Feb_12_1028,posner,3.1.5,59.98210134094505,
-0.5,0,1,left,1,3,0,0,0,0,1,1,9,1,,,,,,,,,51.997188400000596,52.49611210000057,53.21301660000063,None,52.51307750000069,53.19641279999996,53.71331530000043,None,left,1,53.71331530000043,None,None,52.51307750000069,53.69645390000005,0.5109453000004578,0.5944244000002072,1.711271900000611,1.79488610000044,0.3347613999994792,,,,,,ashley_2,001,2020_Feb_12_1028,posner,3.1.5,59.98210134094505,
-0.5,0,1,left,1,3,0,0,0,0,1,2,10,2,,,,,,,,,54.08026980000068,54.58030670000062,55.29691140000068,None,54.5968641999998,55.280326800000694,55.797226100000444,None,left,1,55.797226100000444,None,None,54.5968641999998,55.7804799000005,0.5117756999998164,0.5949829000001046,1.7119342999994842,1.795447100000274,0.3628292999992482,,,,,,ashley_2,001,2020_Feb_12_1028,posner,3.1.5,59.98210134094505,
-0.5,0,1,left,1,3,0,0,0,0,1,3,11,0,,,,,,,,,56.18171280000024,56.6806873000005,57.39756750000015,None,56.697434200000316,57.38111990000016,57.89782689999993,58.38157080000019,left,1,57.89782689999993,None,None,56.697434200000316,57.881236199999876,0.5107326999996076,0.5943856999992931,1.7112549999992552,1.7946666999996523,0.47841389999939565,,,,,,ashley_2,001,2020_Feb_12_1028,posner,3.1.5,59.98210134094505,
0.5,180,1,right,2,4,0,0,0,0,1,4,12,5,,,,,,,,,58.39894960000038,58.89809789999981,59.61501930000031,None,58.9148337000006,59.59841289999986,60.115264500000194,None,right,1,60.115264500000194,None,None,58.9148337000006,60.09853420000036,0.5108025999998063,0.5943623000002844,1.7112177999997584,1.794556100000591,0.4287784999996802,,,,,,ashley_2,001,2020_Feb_12_1028,posner,3.1.5,59.98210134094505,
0.5,180,1,right,2,4,0,0,0,0,1,5,13,7,,,,,,,,,60.56646760000058,61.06552280000051,61.78253649999988,None,61.08219640000061,61.7656764000003,62.28259919999982,None,right,1,62.28259919999982,None,None,61.08219640000061,62.26592740000069,0.5110267000000022,0.5942861000003177,1.7114082999996754,1.7947440999996616,0.3335392999997566,,,,,,ashley_2,001,2020_Feb_12_1028,posner,3.1.5,59.98210134094505,
-0.5,180,0,left,2,3,0,0,0,0,1,6,14,4,,,,,,,,,62.63300630000049,63.13287330000003,63.849846300000536,None,63.14942500000052,63.833241799999996,64.34990460000063,64.83330240000032,left,1,64.34990460000063,None,None,63.14942500000052,64.33331439999984,0.5115585000003193,0.5947289000005185,1.71198110000023,1.7951613000004727,0.4982227000000421,,,,,,ashley_2,001,2020_Feb_12_1028,posner,3.1.5,59.98210134094505,
0.5,0,0,right,1,4,0,0,0,0,1,7,15,3,,,,,,,,,64.86771130000034,65.36669640000036,66.083756,None,65.3835810999999,66.06700600000022,66.58403869999984,None,right,1,66.58403869999984,None,None,65.3835810999999,66.56721410000046,0.5108367000002545,0.5944435000001249,1.7113424999997733,1.7947361000005913,0.42400910000014846,,,,,,ashley_2,001,2020_Feb_12_1028,posner,3.1.5,59.98210134094505,
0.5,0,0,right,1,4,0,0,0,0,2,0,16,3,,,,,,,,,67.03507679999984,67.53432440000051,68.25114550000035,None,67.5508346000006,68.23440810000011,68.75143019999996,69.23468980000052,right,1,68.75143019999996,None,None,67.5508346000006,68.73468460000004,0.5112049000008483,0.5942572000003565,1.711547700000665,1.7948366000000533,0.5045074000008754,,,,,,ashley_2,001,2020_Feb_12_1028,posner,3.1.5,59.98210134094505,
0.5,180,1,right,2,4,0,0,0,0,2,1,17,7,,,,,,,,,69.28535310000007,69.78502840000056,70.50185959999999,None,69.80160530000012,70.48519360000046,71.0019170000005,None,right,1,71.0019170000005,None,None,69.80160530000012,70.9850890000007,0.5113233000001856,0.594415200000185,1.711358200000177,1.7941068999998606,0.35800250000011147,,,,,,ashley_2,001,2020_Feb_12_1028,posner,3.1.5,59.98210134094505,
-0.5,0,1,left,1,3,0,0,0,0,2,2,18,2,,,,,,,,,71.38613710000027,71.88563520000025,72.60242370000014,None,71.9022187999999,72.58587420000003,73.1026380000003,None,left,1,73.1026380000003,None,None,71.9022187999999,73.08575030000065,0.5112018999998327,0.594443400000273,1.7113030999998955,1.7948108000000502,0.37771759999941423,,,,,,ashley_2,001,2020_Feb_12_1028,posner,3.1.5,59.98210134094505,
-0.5,0,1,left,1,3,0,0,0,0,2,3,19,1,,,,,,,,,73.50404310000067,74.00292070000069,74.71966789999988,None,74.01954530000057,74.7032294999999,75.21996610000042,None,left,1,75.21996610000042,None,None,74.01954530000057,75.20359150000058,0.5107444000004762,0.593991100000494,1.7114160000000993,1.7942855999999665,0.3879924000002575,,,,,,ashley_2,001,2020_Feb_12_1028,posner,3.1.5,59.98210134094505,
-0.5,180,0,left,2,3,0,0,0,0,2,4,20,4,,,,,,,,,75.63717320000069,76.13675000000057,76.85373600000003,None,76.15376640000068,76.83697410000059,77.35399920000054,77.83730000000014,left,1,77.35399920000054,None,None,76.15376640000068,77.33712730000025,0.5110952000004545,0.594574300000204,1.71145130000059,1.7948573000003307,0.5339390999997704,,,,,,ashley_2,001,2020_Feb_12_1028,posner,3.1.5,59.98210134094505,
-0.5,0,1,left,1,3,0,0,0,0,2,5,21,0,,,,,,,,,77.90488600000026,78.40436810000028,79.1211702999999,None,78.4207148000005,79.10435620000044,79.62131769999996,None,left,1,79.62131769999996,None,None,78.4207148000005,79.60464800000045,0.5114307999992889,0.5946985999999015,1.7116884999995818,1.794967999999244,0.4186296999996557,,,,,,ashley_2,001,2020_Feb_12_1028,posner,3.1.5,59.98210134094505,
0.5,180,1,right,2,4,0,0,0,0,2,6,22,6,,,,,,,,,80.05565980000029,80.5549374000002,81.2719517000005,None,80.5716325000003,81.2552295000005,81.77188449999994,None,right,1,81.77188449999994,None,None,80.5716325000003,81.75543780000044,0.511148300000059,0.5944500000005064,1.7116240000004836,1.7947760000006383,0.4201199999997698,,,,,,ashley_2,001,2020_Feb_12_1028,posner,3.1.5,59.98210134094505,
0.5,180,1,right,2,4,0,0,0,0,2,7,23,5,,,,,,,,,82.22278510000069,82.72236440000052,83.43904670000029,None,82.73891790000016,83.42246680000062,83.93950140000015,84.42278119999992,right,1,83.93950140000015,None,None,82.73891790000016,83.92252710000048,0.5111540000007153,0.594281100000444,1.7113027000004877,1.7947119000000384,0.4765136000005441,,,,,,ashley_2,001,2020_Feb_12_1028,posner,3.1.5,59.98210134094505,
0.5,180,1,right,2,4,0,0,0,0,3,0,24,7,,,,,,,,,84.44056730000011,84.93965380000009,85.65638200000012,None,84.95628450000004,85.64004850000038,86.15650929999993,86.6401205000002,right,1,86.15650929999993,None,None,84.95628450000004,86.14001230000031,0.5111343999997189,0.5943388999994568,1.71147849999943,1.7947660999998334,0.4754942999998093,,,,,,ashley_2,001,2020_Feb_12_1028,posner,3.1.5,59.98210134094505,
0.5,180,1,right,2,4,0,0,0,0,3,1,25,5,,,,,,,,,86.65777020000041,87.15711920000012,87.87387820000004,None,87.17377590000069,87.85700900000029,88.37412180000047,88.85748590000003,right,1,88.37412180000047,None,None,87.17377590000069,88.35725570000068,0.5111292999999932,0.594278800000211,1.7112452000001213,1.794626099999732,0.47379580000051646,,,,,,ashley_2,001,2020_Feb_12_1028,posner,3.1.5,59.98210134094505,
-0.5,180,0,left,2,3,0,0,0,0,3,2,26,4,,,,,,,,,88.87519190000057,89.37427160000061,90.09119950000058,None,89.39098670000021,90.07447670000056,90.59147060000032,None,left,1,90.59147060000032,None,None,89.39098670000021,90.57485900000029,0.5110197999993034,0.5944135999998252,1.7115872999993371,1.7946758999996746,0.44044880000001285,,,,,,ashley_2,001,2020_Feb_12_1028,posner,3.1.5,59.98210134094505,
0.5,180,1,right,2,4,0,0,0,0,3,3,27,6,,,,,,,,,91.05926880000061,91.55830520000018,92.27518340000006,None,91.5750480000006,92.25842379999995,92.77526490000037,None,right,1,92.77526490000037,None,None,91.5750480000006,92.75856149999981,0.5111267999991469,0.5946005999994668,1.7113631999991412,1.7950141999999687,0.45674570000028325,,,,,,ashley_2,001,2020_Feb_12_1028,posner,3.1.5,59.98210134094505,
-0.5,0,1,left,1,3,0,0,0,0,3,4,28,1,,,,,,,,,93.25977750000038,93.75896170000033,94.47583600000053,None,93.77575870000055,94.45929539999997,94.97611039999992,93.25977750000038,left,1,94.97611039999992,None,None,93.77575870000055,94.95922950000022,0.5111759999999776,0.5944100999995499,1.7113854999997784,1.79491599999983,0.37591430000065884,,,,,,ashley_2,001,2020_Feb_12_1028,posner,3.1.5,59.98210134094505,
-0.5,0,1,left,1,3,0,0,0,0,3,5,29,2,,,,,,,,,95.37706310000067,95.8764211000007,96.59324710000055,None,95.8929506000004,96.57660990000022,97.09340229999998,None,left,1,97.09340229999998,None,None,95.8929506000004,97.07662090000031,0.5111066999998002,0.5947870999998486,1.7112906000002113,1.7948108000000502,0.3946316999999908,,,,,,ashley_2,001,2020_Feb_12_1028,posner,3.1.5,59.98210134094505,
-0.5,0,1,left,1,3,0,0,0,0,3,6,30,0,,,,,,,,,97.51124820000041,98.01028870000027,98.72712050000064,None,98.02685590000056,98.71055070000057,99.22723219999989,None,left,1,99.22723219999989,None,None,98.02685590000056,99.21071690000008,0.5108855999997104,0.5943185999994967,1.711293299999852,1.794711899999129,0.3967071000006399,,,,,,ashley_2,001,2020_Feb_12_1028,posner,3.1.5,59.98210134094505,
0.5,0,0,right,1,4,0,0,0,0,3,7,31,3,,,,,,,,,99.64515579999988,100.14432920000036,100.8611877000003,None,100.16095450000012,100.84441500000048,101.36135019999983,101.84484100000009,right,1,101.36135019999983,None,None,100.16095450000012,101.34476799999993,0.5111273000002257,0.5942538000008426,1.7115436000003683,1.7948276000006445,0.48650519999955577,,,,,,ashley_2,001,2020_Feb_12_1028,posner,3.1.5,59.98210134094505,
0.5,180,1,right,2,4,0,0,0,0,4,0,32,6,,,,,,,,,101.87842290000026,102.37828979999995,103.09531849999985,None,102.39503229999991,103.07845890000044,103.59547960000054,None,right,1,103.59547960000054,None,None,102.39503229999991,103.57865790000051,0.5112862999994832,0.5947084999997969,1.7116327000003366,1.7950679999994463,0.3084630000003017,,,,,,ashley_2,001,2020_Feb_12_1028,posner,3.1.5,59.98210134094505,
-0.5,180,0,left,2,3,0,0,0,0,4,1,33,4,,,,,,,,,103.92960760000005,104.42894299999989,105.14598340000066,None,104.44559650000065,105.12908599999992,105.64614040000015,None,left,1,105.64614040000015,None,None,104.44559650000065,105.62932900000033,0.5112178999997923,0.5944610000005923,1.711583100000098,1.7950041000003694,0.43392149999999674,,,,,,ashley_2,001,2020_Feb_12_1028,posner,3.1.5,59.98210134094505,
-0.5,0,1,left,1,3,0,0,0,0,4,2,34,0,,,,,,,,,106.09708779999983,106.59624919999987,107.31319650000023,None,106.61313430000064,107.29642289999992,107.81345659999988,None,left,1,107.81345659999988,None,None,106.61313430000064,107.79668450000008,0.5111123000006046,0.5945032999998148,1.7115278999999646,1.794810200000029,0.3864632000004349,,,,,,ashley_2,001,2020_Feb_12_1028,posner,3.1.5,59.98210134094505,
0.5,180,1,right,2,4,0,0,0,0,4,3,35,7,,,,,,,,,108.23101560000032,108.73037120000026,109.44706720000067,None,108.74690410000039,109.43055710000044,109.94722420000016,None,right,1,109.94722420000016,None,None,108.74690410000039,109.93072519999987,0.5111419000004389,0.5945811000001413,1.711478100000022,1.7947414999998728,0.4286499999998341,,,,,,ashley_2,001,2020_Feb_12_1028,posner,3.1.5,59.98210134094505,
0.5,180,1,right,2,4,0,0,0,0,4,4,36,5,,,,,,,,,110.39845680000053,110.89752339999995,111.61450060000061,None,110.91430620000028,111.5979871999998,112.11460940000052,None,right,1,112.11460940000052,None,None,110.91430620000028,112.0980454999999,0.5107599000002665,0.5942557999997007,1.7112624999999753,1.7946389999997336,0.437354000000596,,,,,,ashley_2,001,2020_Feb_12_1028,posner,3.1.5,59.98210134094505,
0.5,0,0,right,1,4,0,0,0,0,4,5,37,3,,,,,,,,,112.58213310000065,113.08163680000052,113.7983850999999,None,113.0982353999998,113.78196639999987,114.2984978000004,114.78229640000063,right,1,114.2984978000004,None,None,113.0982353999998,114.28195940000023,0.5110427999998137,0.5942928999993455,1.7113513999993302,1.7948616999992737,0.5655413000004046,,,,,,ashley_2,001,2020_Feb_12_1028,posner,3.1.5,59.98210134094505,
-0.5,0,1,left,1,3,0,0,0,0,4,6,38,2,,,,,,,,,114.88327200000003,115.38227180000013,116.09927940000034,None,115.39894749999985,116.08247290000054,116.59936050000033,None,left,1,116.59936050000033,None,None,115.39894749999985,116.58278340000015,0.5110026000002108,0.594463899999937,1.7114897999999812,1.7947667999997066,0.41662319999977626,,,,,,ashley_2,001,2020_Feb_12_1028,posner,3.1.5,59.98210134094505,
-0.5,0,1,left,1,3,0,0,0,0,4,7,39,1,,,,,,,,,117.03342310000062,117.53303039999992,118.25002089999998,None,117.54953000000023,118.23331860000053,118.75009360000058,None,left,1,118.75009360000058,None,None,117.54953000000023,118.73335680000037,0.5113208000002487,0.5946843000001536,1.7116228000004412,1.795025300000816,0.44989520000035554,,,,,,ashley_2,001,2020_Feb_12_1028,posner,3.1.5,59.98210134094505,
-0.5,180,0,left,2,3,0,0,0,0,5,0,40,4,,,,,,,,,119.21789450000051,119.71706180000001,120.43390670000008,None,119.73362890000044,120.41717810000046,120.93407630000002,None,left,1,120.93407630000002,None,None,119.73362890000044,120.91732730000058,0.5108995999999024,0.5942305999997188,1.7111438000001726,1.7946373999993739,0.44181010000011156,,,,,,ashley_2,001,2020_Feb_12_1028,posner,3.1.5,59.98210134094505,
-0.5,0,1,left,1,3,0,0,0,0,5,1,41,1,,,,,,,,,121.4016843999998,121.90091670000038,122.61787960000038,None,121.91760200000044,122.60126880000007,123.11792690000038,None,left,1,123.11792690000038,None,None,121.91760200000044,123.10129010000037,0.5109519999996337,0.5943518000003678,1.7113014999995357,1.7947966000001543,0.3459138999996867,,,,,,ashley_2,001,2020_Feb_12_1028,posner,3.1.5,59.98210134094505,
-0.5,0,1,left,1,3,0,0,0,0,5,2,42,0,,,,,,,,,123.48575530000016,123.98508459999994,124.70181990000037,None,124.00183000000015,124.68511120000039,125.20210190000034,None,left,1,125.20210190000034,None,None,124.00183000000015,125.18529050000052,0.511199999999917,0.5944840000001932,1.7113914999999906,1.794785099999899,0.35768740000003163,,,,,,ashley_2,001,2020_Feb_12_1028,posner,3.1.5,59.98210134094505,
0.5,0,0,right,1,4,0,0,0,0,5,3,43,3,,,,,,,,,125.58635270000013,126.08569729999999,126.80266870000014,None,126.10241700000006,126.7858498000005,127.3026903,None,right,1,127.3026903,None,None,126.10241700000006,127.28593300000011,0.5111716999999771,0.5944547999997667,1.7113924999994197,1.794734299999618,0.4252268999998705,,,,,,ashley_2,001,2020_Feb_12_1028,posner,3.1.5,59.98210134094505,
0.5,180,1,right,2,4,0,0,0,0,5,4,44,6,,,,,,,,,127.75401959999999,128.25300479999987,128.97008230000029,None,128.2697766000001,128.95329270000002,129.47015890000057,None,right,1,129.47015890000057,None,None,128.2697766000001,129.45342680000067,0.5108871000002182,0.5941929000000528,1.7112974000001486,1.7945298000004186,0.3777655000003506,,,,,,ashley_2,001,2020_Feb_12_1028,posner,3.1.5,59.98210134094505,
-0.5,0,1,left,1,3,0,0,0,0,5,5,45,2,,,,,,,,,129.87041320000026,130.37057319999985,131.08706919999986,None,130.38685260000057,131.07044450000012,131.58720369999992,None,left,1,131.58720369999992,None,None,130.38685260000057,131.57076640000014,0.5121103000001312,0.5954238000003897,1.7122817999998006,1.7952684000001682,0.38070190000053117,,,,,,ashley_2,001,2020_Feb_12_1028,posner,3.1.5,59.98210134094505,
0.5,180,1,right,2,4,0,0,0,0,5,6,46,5,,,,,,,,,131.9877387000006,132.48746280000069,133.2046435000002,None,132.50456769999982,133.18781080000008,133.70472539999992,None,right,1,133.70472539999992,None,None,132.50456769999982,133.68795080000018,0.5113436999999976,0.5949184999999488,1.7118086000000403,1.7951603999999861,0.3270494999997027,,,,,,ashley_2,001,2020_Feb_12_1028,posner,3.1.5,59.98210134094505,
0.5,180,1,right,2,4,0,0,0,0,5,7,47,7,,,,,,,,,134.0557945999999,134.55503880000015,135.2718863,None,134.57166289999986,135.2551779000005,135.7719657000007,136.25544249999984,right,1,135.7719657000007,None,None,134.57166289999986,135.75530870000057,0.5109586999997191,0.5941963999994186,1.7112190999996528,1.7945719999997891,0.5560203000004549,,,,,,ashley_2,001,2020_Feb_12_1028,posner,3.1.5,59.98210134094505,
0.5,0,0,right,1,4,0,0,0,0,6,0,48,3,,,,,,,,,136.35570540000026,136.85560580000038,137.5725395999998,None,136.8724100999998,137.5557491999998,138.07291270000042,None,right,1,138.07291270000042,None,None,136.8724100999998,138.0559678999998,0.5115561000002344,0.5947782000002917,1.7119039000008343,1.7953776000003927,0.45496540000021923,,,,,,ashley_2,001,2020_Feb_12_1028,posner,3.1.5,59.98210134094505,
-0.5,0,1,left,1,3,0,0,0,0,6,1,49,2,,,,,,,,,138.55674069999986,139.05619250000018,139.77336250000008,None,139.0731205000002,139.75659330000053,140.2733844000004,138.55674069999986,left,1,140.2733844000004,None,None,139.0731205000002,140.25662720000037,0.5111464999999953,0.5946708999999828,1.711557300000095,1.7951398999994126,0.3744562000001679,,,,,,ashley_2,001,2020_Feb_12_1028,posner,3.1.5,59.98210134094505,
0.5,180,1,right,2,4,0,0,0,0,6,2,50,5,,,,,,,,,140.67447429999993,141.17368030000034,141.89062259999992,None,141.19041930000003,141.87398810000013,142.39071760000024,None,right,1,142.39071760000024,None,None,141.19041930000003,142.37409130000015,0.5111587999999756,0.5944196000000375,1.7115439999997761,1.7947813000000679,0.28923609999947075,,,,,,ashley_2,001,2020_Feb_12_1028,posner,3.1.5,59.98210134094505,
0.5,180,1,right,2,4,0,0,0,0,6,3,51,7,,,,,,,,,142.70845989999998,143.20748120000007,143.92461340000045,None,143.22447610000017,143.9080100000001,144.42463899999984,None,right,1,144.42463899999984,None,None,143.22447610000017,144.4080524000001,0.5109393000002456,0.5943558000008125,1.7114885000000868,1.794741000000613,0.31912560000000667,,,,,,ashley_2,001,2020_Feb_12_1028,posner,3.1.5,59.98210134094505,
-0.5,180,0,left,2,3,0,0,0,0,6,4,52,4,,,,,,,,,144.77508339999986,145.27498170000035,145.99191470000005,None,145.29157060000034,145.9752625000001,146.4919471000003,146.97553570000036,left,1,146.4919471000003,None,None,145.29157060000034,146.47544329999982,0.511404500000026,0.594813200000317,1.7118547000000035,1.7949422000001505,0.5558956999993825,,,,,,ashley_2,001,2020_Feb_12_1028,posner,3.1.5,59.98210134094505,
-0.5,0,1,left,1,3,0,0,0,0,6,5,53,0,,,,,,,,,147.07648550000067,147.5757407000001,148.2926281,None,147.5922513000005,148.27580519999992,148.79271150000022,None,left,1,148.79271150000022,None,None,147.5922513000005,148.77597160000005,0.5109120999995866,0.5942219999997178,1.7111153999994713,1.7944698999999673,0.4471800000001167,,,,,,ashley_2,001,2020_Feb_12_1028,posner,3.1.5,59.98210134094505,
-0.5,0,1,left,1,3,0,0,0,0,6,6,54,1,,,,,,,,,149.2607063000005,149.7597237,150.4764511000003,None,149.7762389999998,150.45989420000024,150.97663270000066,None,left,1,150.97663270000066,None,None,149.7762389999998,150.96008100000017,0.5110501999997723,0.5944193999994241,1.7113713999997344,1.7947091999994882,0.3431498999998439,,,,,,ashley_2,001,2020_Feb_12_1028,posner,3.1.5,59.98210134094505,
0.5,180,1,right,2,4,0,0,0,0,6,7,55,6,,,,,,,,,151.3436867999999,151.84365870000056,152.56071969999994,None,151.8604234000004,152.54398279999987,153.06076120000034,None,right,1,153.06076120000034,None,None,151.8604234000004,153.0440477000002,0.511280199999419,0.5945996000000378,1.7116571999995358,1.7949576000000889,0.3071066000002247,,,,,,ashley_2,001,2020_Feb_12_1028,posner,3.1.5,59.98210134094505,
-0.5,0,1,left,1,3,0,0,0,0,7,0,56,1,,,,,,,,,153.3949051999998,153.8943973000005,154.61109279999982,None,153.9109029000001,154.59473400000024,155.11151320000045,155.59494180000002,left,1,155.11151320000045,None,None,153.9109029000001,155.0946085000005,0.5112177999999403,0.5943225999999413,1.7114181999995708,1.7947354999996605,0.7362824000001638,,,,,,ashley_2,001,2020_Feb_12_1028,posner,3.1.5,59.98210134094505,
0.5,180,1,right,2,4,0,0,0,0,7,1,57,5,,,,,,,,,155.87866530000065,156.37837279999985,157.09532500000023,None,156.3952334000005,157.0786637000001,157.5955788000001,None,right,1,157.5955788000001,None,None,156.3952334000005,157.5787463000006,0.5111194000000978,0.5943750000005821,1.7114727000007406,1.794803600000705,0.33228650000000926,,,,,,ashley_2,001,2020_Feb_12_1028,posner,3.1.5,59.98210134094505,
0.5,180,1,right,2,4,0,0,0,0,7,2,58,7,,,,,,,,,157.9465168000006,158.44562870000027,159.1626710999999,None,158.46242320000056,159.14602490000016,159.6626008000003,None,right,1,159.6626008000003,None,None,158.46242320000056,159.64618090000022,0.5109594999994442,0.5943901000000551,1.711489299999812,1.7945675999999366,0.3531439999997019,,,,,,ashley_2,001,2020_Feb_12_1028,posner,3.1.5,59.98210134094505,
-0.5,0,1,left,1,3,0,0,0,0,7,3,59,2,,,,,,,,,160.04671300000064,160.54618910000045,161.26346410000042,None,160.56295219999993,161.24641520000023,161.76388690000022,None,left,1,161.76388690000022,None,None,160.56295219999993,161.7466097000006,0.5110022999997454,0.5946083999997427,1.7114055000001827,1.7949072000001252,0.42809850000048755,,,,,,ashley_2,001,2020_Feb_12_1028,posner,3.1.5,59.98210134094505,
-0.5,0,1,left,1,3,0,0,0,0,7,4,60,0,,,,,,,,,162.21446990000004,162.71373219999987,163.43052570000054,None,162.73043030000008,163.41401889999997,163.93068680000033,None,left,1,163.93068680000033,None,None,162.73043030000008,163.91401140000016,0.5110026000002108,0.5942801999999574,1.7112667999999758,1.7945981000002575,0.36520500000005995,,,,,,ashley_2,001,2020_Feb_12_1028,posner,3.1.5,59.98210134094505,
-0.5,180,0,left,2,3,0,0,0,0,7,5,61,4,,,,,,,,,164.31522889999997,164.8143025999998,165.53104859999985,None,164.83096750000004,165.51454560000002,166.03132770000047,None,left,1,166.03132770000047,None,None,164.83096750000004,166.0146292999998,0.5109645000002274,0.594267100000252,1.711268700000801,1.7945902999999817,0.36840570000003936,,,,,,ashley_2,001,2020_Feb_12_1028,posner,3.1.5,59.98210134094505,
0.5,180,1,right,2,4,0,0,0,0,7,6,62,6,,,,,,,,,166.41535209999984,166.9148937,167.63181040000018,None,166.9316518000005,167.6150905000004,168.1320212999999,None,right,1,168.1320212999999,None,None,166.9316518000005,168.11552970000048,0.511251999999331,0.5946516999993037,1.7118669999999838,1.7949347999992824,0.37163820000023406,,,,,,ashley_2,001,2020_Feb_12_1028,posner,3.1.5,59.98210134094505,
0.5,0,0,right,1,4,0,0,0,0,7,7,63,3,,,,,,,,,168.5330756000003,169.03229190000002,169.74925940000048,None,169.0488602000005,169.7324462000006,170.24936630000047,None,right,1,170.24936630000047,None,None,169.0488602000005,170.23268139999982,0.5110431999992215,0.5943977999995695,1.7113629999994373,1.7945782999995572,0.4225266000003103,,,,,,ashley_2,001,2020_Feb_12_1028,posner,3.1.5,59.98210134094505,
0.5,180,1,right,2,4,0,0,0,0,8,0,64,6,,,,,,,,,170.70025090000036,171.1995649999999,171.9163526000002,None,171.21610130000045,171.8998044,172.41661139999997,None,right,1,172.41661139999997,None,None,171.21610130000045,172.39998600000035,0.511049799999455,0.5944018000000142,1.7114593999995122,1.7949822999999014,0.38325279999935447,,,,,,ashley_2,001,2020_Feb_12_1028,posner,3.1.5,59.98210134094505,
-0.5,0,1,left,1,3,0,0,0,0,8,1,65,2,,,,,,,,,172.81803219999983,173.31688440000016,174.03388059999997,None,173.33347240000057,174.01705660000061,174.5341266000005,None,left,1,174.5341266000005,None,None,173.33347240000057,174.51718270000038,0.5106725000005099,0.5941751000000295,1.7109544000004462,1.7946093000000474,0.305791799999497,,,,,,ashley_2,001,2020_Feb_12_1028,posner,3.1.5,59.98210134094505,
-0.5,0,1,left,1,3,0,0,0,0,8,2,66,0,,,,,,,,,174.86841650000042,175.36770049999996,176.08453460000055,None,175.38426770000024,176.0677000000005,176.58458980000069,None,left,1,176.58458980000069,None,None,175.38426770000024,176.5679055999999,0.5110939000005601,0.5942213000007541,1.7112802999999985,1.7946397000005163,0.19925770000008924,,,,,,ashley_2,001,2020_Feb_12_1028,posner,3.1.5,59.98210134094505,
0.5,180,1,right,2,4,0,0,0,0,8,3,67,7,,,,,,,,,176.8023094,177.3015443000004,178.01828440000008,None,177.3181682000004,178.0018928999998,178.51846430000023,None,right,1,178.51846430000023,None,None,177.3181682000004,178.50188179999986,0.5108866000000489,0.5941661000006206,1.7112049000006664,1.794764700000087,0.3052520999999615,,,,,,ashley_2,001,2020_Feb_12_1028,posner,3.1.5,59.98210134094505,
-0.5,0,1,left,1,3,0,0,0,0,8,4,68,1,,,,,,,,,178.85303230000045,179.35213680000015,180.0690222000003,None,179.3687213000003,180.05222219999996,180.5691839000001,None,left,1,180.5691839000001,None,None,179.3687213000003,180.55238290000034,0.5110828000006222,0.5944625000001906,1.711306500000319,1.794804699999986,0.27050599999984115,,,,,,ashley_2,001,2020_Feb_12_1028,posner,3.1.5,59.98210134094505,
-0.5,180,0,left,2,3,0,0,0,0,8,5,69,4,,,,,,,,,180.87007280000034,181.36945530000048,182.0864177000003,None,181.38606190000064,182.06974080000055,182.58628070000032,None,left,1,182.58628070000032,None,None,181.38606190000064,182.5699224,0.5110826000000088,0.5943839999999909,1.7115268000006836,1.7947745000001305,0.36551300000064657,,,,,,ashley_2,001,2020_Feb_12_1028,posner,3.1.5,59.98210134094505,
0.5,180,1,right,2,4,0,0,0,0,8,6,70,5,,,,,,,,,182.97037830000045,183.4702180000004,184.18687520000003,None,183.48663699999997,184.17023190000054,184.68704350000007,None,right,1,184.68704350000007,None,None,183.48663699999997,184.6706162999999,0.5119264000004478,0.5952336000000287,1.7123246999999537,1.795581299999867,0.36062130000027537,,,,,,ashley_2,001,2020_Feb_12_1028,posner,3.1.5,59.98210134094505,
0.5,0,0,right,1,4,0,0,0,0,8,7,71,3,,,,,,,,,185.07188660000065,185.57080190000033,186.2876425000004,None,185.58733690000008,186.27094269999998,186.78782560000036,187.27142090000052,right,1,186.78782560000036,None,None,185.58733690000008,186.7710748999998,0.51069280000047,0.5939335000002757,1.7109521000002132,1.7944950000000972,0.48391409999931057,,,,,,ashley_2,001,2020_Feb_12_1028,posner,3.1.5,59.98210134094505,
-0.5,0,1,left,1,3,0,0,0,0,9,0,72,2,,,,,,,,,187.28816730000017,187.78807320000033,188.50500869999996,None,187.80473390000043,188.48835080000026,189.00529040000038,None,left,1,189.00529040000038,None,None,187.80473390000043,188.98844869999994,0.51111469999978,0.5943912000002456,1.7114701999998942,1.7948744000004808,0.3384990000004109,,,,,,ashley_2,001,2020_Feb_12_1028,posner,3.1.5,59.98210134094505,
0.5,180,1,right,2,4,0,0,0,0,9,1,73,6,,,,,,,,,189.3727789000004,189.8722598000004,190.58883330000026,None,189.88861350000025,190.5722624,191.08906260000003,None,right,1,191.08906260000003,None,None,189.88861350000025,191.07250830000066,0.5110444000001735,0.5942289000004166,1.7112756000005902,1.794477299999926,0.3426375000008193,,,,,,ashley_2,001,2020_Feb_12_1028,posner,3.1.5,59.98210134094505,
0.5,0,0,right,1,4,0,0,0,0,9,2,74,3,,,,,,,,,191.4568489000003,191.9557523000003,192.67304680000052,None,191.97262320000027,192.65610490000017,193.17313869999998,None,right,1,193.17313869999998,None,None,191.97262320000027,193.15630430000056,0.5107525999992504,0.5943575999999666,1.7112924999992174,1.7946958999991693,0.41048769999997603,,,,,,ashley_2,001,2020_Feb_12_1028,posner,3.1.5,59.98210134094505,
-0.5,0,1,left,1,3,0,0,0,0,9,3,75,1,,,,,,,,,193.60673860000043,194.10665419999987,194.82365420000042,None,194.12340680000034,194.8067912000006,195.32392590000018,None,left,1,195.32392590000018,None,None,194.12340680000034,195.30696540000008,0.5116710000002058,0.59508040000037,1.711967299999742,1.7954602999998315,0.35585579999951733,,,,,,ashley_2,001,2020_Feb_12_1028,posner,3.1.5,59.98210134094505,
-0.5,0,1,left,1,3,0,0,0,0,9,4,76,0,,,,,,,,,195.70813660000022,196.20742599999994,196.92430479999985,None,196.22420740000052,196.90752580000026,197.42436679999992,None,left,1,197.42436679999992,None,None,196.22420740000052,197.40772770000058,0.5111041000000114,0.5943690000003699,1.7113868000005823,1.7946864000005007,0.31129479999981413,,,,,,ashley_2,001,2020_Feb_12_1028,posner,3.1.5,59.98210134094505,
0.5,180,1,right,2,4,0,0,0,0,9,5,77,7,,,,,,,,,197.7589509999998,198.25807820000045,198.9750769000002,None,198.2746304000002,198.95805990000008,199.47513720000006,None,right,1,199.47513720000006,None,None,198.2746304000002,199.45830650000062,0.5111565999995946,0.5945219999994151,1.711367999999311,1.7948266999992484,0.26851449999958277,,,,,,ashley_2,001,2020_Feb_12_1028,posner,3.1.5,59.98210134094505,
-0.5,180,0,left,2,3,0,0,0,0,9,6,78,4,,,,,,,,,199.75963390000015,200.25850140000057,200.97572020000007,None,200.27527929999997,200.9588690999999,201.47554860000037,None,left,1,201.47554860000037,None,None,200.27527929999997,201.4589076000002,0.5109796999995524,0.5945013999998991,1.7113816999999472,1.7949791999999434,0.31623430000036024,,,,,,ashley_2,001,2020_Feb_12_1028,posner,3.1.5,59.98210134094505,
0.5,180,1,right,2,4,0,0,0,0,9,7,79,5,,,,,,,,,201.81011940000008,202.30919960000028,203.02602019999995,None,202.3259465000001,203.00945870000032,203.52614320000066,None,right,1,203.52614320000066,None,None,202.3259465000001,203.50973460000023,0.5111139999999068,0.5945833999994647,1.7116300999996383,1.794776499999898,0.3294748999996955,,,,,,ashley_2,001,2020_Feb_12_1028,posner,3.1.5,59.98210134094505,
0.5,0,0,right,1,4,0,0,0,0,10,0,80,3,,,,,,,,,203.87666750000062,204.37645860000066,205.09366260000024,None,204.39328260000002,205.07668150000063,205.59358969999994,206.0769962000004,right,1,205.59358969999994,None,None,204.39328260000002,205.57687729999998,0.5107613000000129,0.5942548000002716,1.7111596000004283,1.7945507000004,0.5180321999996522,,,,,,ashley_2,001,2020_Feb_12_1028,posner,3.1.5,59.98210134094505,
-0.5,0,1,left,1,3,0,0,0,0,10,1,81,0,,,,,,,,,206.1279869,206.62730530000044,207.34431940000013,None,206.64411990000008,207.32741270000042,207.84430150000026,None,left,1,207.84430150000026,None,None,206.64411990000008,207.82753779999985,0.5110334000000876,0.5942750999993223,1.711305199999515,1.7946342999994158,0.34740510000028735,,,,,,ashley_2,001,2020_Feb_12_1028,posner,3.1.5,59.98210134094505,
-0.5,0,1,left,1,3,0,0,0,0,10,2,82,2,,,,,,,,,208.21205830000054,208.71113140000034,209.42807650000032,None,208.72773659999984,209.41133640000044,209.92822140000044,None,left,1,209.92822140000044,None,None,208.72773659999984,209.9115971000001,0.5108688000000257,0.5942928000004031,1.7113107000004675,1.7947113000000172,0.3995328000000882,,,,,,ashley_2,001,2020_Feb_12_1028,posner,3.1.5,59.98210134094505,
0.5,180,1,right,2,4,0,0,0,0,10,3,83,6,,,,,,,,,210.3463926000004,210.84531789999983,211.56211040000017,None,210.86178280000058,211.5454467999998,212.06234930000028,None,right,1,212.06234930000028,None,None,210.86178280000058,212.04553850000048,0.5108270999999149,0.5940671999996994,1.7110302000000956,1.794664300000477,0.3133765000002313,,,,,,ashley_2,001,2020_Feb_12_1028,posner,3.1.5,59.98210134094505,
-0.5,0,1,left,1,3,0,0,0,0,10,4,84,1,,,,,,,,,212.39687260000028,212.89577410000038,213.61282970000047,None,212.91255830000046,213.59604110000055,214.11285339999995,None,left,1,214.11285339999995,None,None,212.91255830000046,214.09629180000047,0.5109895999994478,0.5943072999998549,1.711486999999579,1.7948840999997628,0.34279940000033093,,,,,,ashley_2,001,2020_Feb_12_1028,posner,3.1.5,59.98210134094505,
0.5,180,1,right,2,4,0,0,0,0,10,5,85,5,,,,,,,,,214.4800138999999,214.97971959999995,215.69660430000022,None,214.99635829999988,215.68014459999995,216.19677760000013,None,right,1,216.19677760000013,None,None,214.99635829999988,216.18032110000058,0.5116913000001659,0.5951879000003828,1.7122667000003275,1.7958967000004122,0.29886979999992036,,,,,,ashley_2,001,2020_Feb_12_1028,posner,3.1.5,59.98210134094505,
0.5,180,1,right,2,4,0,0,0,0,10,6,86,7,,,,,,,,,216.51465590000043,217.0137832999999,217.73070330000064,None,217.03047659999993,217.71397700000034,218.23067249999986,None,right,1,218.23067249999986,None,None,217.03047659999993,218.21428680000008,0.5109985000008237,0.5944130000007135,1.7114753000005294,1.794755100000657,0.3289657999994233,,,,,,ashley_2,001,2020_Feb_12_1028,posner,3.1.5,59.98210134094505,
-0.5,180,0,left,2,3,0,0,0,0,10,7,87,4,,,,,,,,,218.58243529999982,219.08107930000006,219.7979578000004,None,219.09779140000046,219.78134959999988,220.29805100000067,220.78173760000027,left,1,220.29805100000067,None,None,219.09779140000046,220.28149759999997,0.510645199999999,0.5939355000000432,1.7110491999992519,1.794346399999995,0.9095246999995652,,,,,,ashley_2,001,2020_Feb_12_1028,posner,3.1.5,59.98210134094505,
,,,,,,0,0,0,0,,,,,,,,,,,,,,,,,,,,,,,,,,,,,,,,,221.23289160000058,None,1.7699999261822086e-05,0.9947830999999496,,ashley_2,001,2020_Feb_12_1028,posner,3.1.5,59.98210134094505,
-0.5,0,1,left,1,3,1,0,1,0,0,0,0,0,1.2200000128359534e-05,0.09729409999999916,282.2507802,None,1.4399999599845614e-05,0.09759539999959088,284.35130480000043,None,284.6267985000004,285.1347872000006,285.8352829000005,None,285.1347872000006,285.8352829000005,286.33525700000064,286.8352758000001,left,1,286.33525700000064,None,left,285.1347872000006,286.33525700000064,0.5009227999998984,0.6010143999992579,1.7011818999999377,1.801628599999276,0.6242638999992778,,,,,0.6967426999999589,ashley_2,001,2020_Feb_12_1028,posner,3.1.5,59.98210134094505,
-0.5,0,1,left,1,3,1,0,1,0,0,1,1,2,,,,,,,,,286.9871979999998,287.48585100000037,288.20247180000024,None,287.50235239999984,288.18576550000034,288.7027041000001,None,left,1,288.7027041000001,None,left,287.50235239999984,288.6859529000003,0.5106841999995595,0.5937488999998095,1.7107804999996006,1.7942518999998356,0.3846670000002632,,,,,0.5851056999999855,ashley_2,001,2020_Feb_12_1028,posner,3.1.5,59.98210134094505,
0.5,180,1,right,2,4,1,0,1,0,0,2,2,7,,,,,,,,,289.1037879000005,289.6029755999998,290.31995280000046,None,289.61953020000055,290.3030918000004,290.82013330000063,None,right,1,290.82013330000063,None,None,289.61953020000055,290.8033228000004,0.5109459999994215,0.5941957999993974,1.7112515999997413,1.794509699999253,0.235205699999824,,,,,,ashley_2,001,2020_Feb_12_1028,posner,3.1.5,59.98210134094505,
-0.5,0,1,left,1,3,1,0,1,0,0,3,3,1,,,,,,,,,291.0709777000002,291.5701073,292.28705679999985,None,291.58677220000027,292.27050580000014,292.7872004000001,None,left,1,292.7872004000001,None,None,291.58677220000027,292.77046210000026,0.5108169999994061,0.5943049999996219,1.711146199999348,1.79470289999972,0.3643253000000186,,,,,,ashley_2,001,2020_Feb_12_1028,posner,3.1.5,59.98210134094505,
-0.5,180,0,left,2,3,1,0,1,0,0,4,4,4,,,,,,,,,293.1718695999998,293.67095270000027,294.3876540000001,None,293.6875260000006,294.3711219000006,294.8878531999999,None,right,0,294.8878531999999,None,None,293.6875260000006,294.87110399999983,0.5108794999996462,0.5943305000000692,1.7110165999993114,1.7945904999996856,0.10350440000001981,,,,,,ashley_2,001,2020_Feb_12_1028,posner,3.1.5,59.98210134094505,
0.5,0,0,right,1,4,1,0,1,0,0,5,5,3,,,,,,,,,295.0214509000007,295.52157590000024,296.2383110999999,None,295.5379759000007,296.22157140000036,296.73852500000066,None,right,1,296.73852500000066,None,None,295.5379759000007,296.72172090000004,0.5117681000001539,0.5949929999997039,1.7119003999996494,1.795223299999634,0.4448997000008603,,,,,,ashley_2,001,2020_Feb_12_1028,posner,3.1.5,59.98210134094505,
0.5,180,1,right,2,4,1,0,1,0,0,6,6,6,,,,,,,,,297.20606810000027,297.70543290000023,298.4223619000004,None,297.72210780000023,298.4054629000002,298.9223578000001,None,right,1,298.9223578000001,None,None,297.72210780000023,298.9056821000004,0.511290899999949,0.5945267999995849,1.711518199999773,1.795049399999698,0.24527740000030462,,,,,,ashley_2,001,2020_Feb_12_1028,posner,3.1.5,59.98210134094505,
0.5,180,1,right,2,4,1,0,1,0,0,7,7,5,,,,,,,,,299.19066290000046,299.68949650000013,300.40622500000063,None,299.70590340000035,300.38965220000046,300.90631829999984,None,right,1,300.90631829999984,None,None,299.70590340000035,300.88995520000026,0.5107545000000755,0.5941287000005104,1.7111917000001995,1.7945328000005247,0.4130211000001509,,,,,,ashley_2,001,2020_Feb_12_1028,posner,3.1.5,59.98210134094505,
-0.5,180,0,left,2,3,1,0,1,0,1,0,8,4,,,,,,,,,301.34002430000055,301.8400578999999,302.5570010000001,None,301.8567665999999,302.54035100000056,303.0570600000001,None,left,1,303.0570600000001,None,None,301.8567665999999,303.0403618,0.5110654000000068,0.5944407999995747,1.7113454999998794,1.7947834999995393,0.3742428999994445,,,,,,ashley_2,001,2020_Feb_12_1028,posner,3.1.5,59.98210134094505,
-0.5,0,1,left,1,3,1,0,1,0,1,1,9,2,,,,,,,,,303.4580507999999,303.95724299999983,304.6743488000002,None,303.9739948000006,304.65759250000065,305.1743323999999,None,left,1,305.1743323999999,None,None,303.9739948000006,305.1575722000007,0.5109453999994003,0.5943644999997559,1.7112612999999328,1.7947150999998485,0.36126599999988684,,,,,,ashley_2,001,2020_Feb_12_1028,posner,3.1.5,59.98210134094505,
-0.5,0,1,left,1,3,1,0,1,0,1,2,10,0,,,,,,,,,305.55909299999985,306.0582666,306.7749014000001,None,306.07457780000004,306.75829130000056,307.27510690000054,None,left,1,307.27510690000054,None,None,306.07457780000004,307.2583328999999,0.511006599999746,0.5941165999993245,1.7110506999997597,1.7945750999997472,0.35637799999949493,,,,,,ashley_2,001,2020_Feb_12_1028,posner,3.1.5,59.98210134094505,
-0.5,0,1,left,1,3,1,0,1,0,1,3,11,1,,,,,,,,,307.6598818000002,308.1587048000001,308.8755940000001,None,308.1754922,308.85884260000057,309.3757591000003,None,left,1,309.3757591000003,None,None,308.1754922,309.35916929999985,0.5109658000001218,0.5942624999997861,1.7113901000002443,1.7945563000002949,0.39159419999941747,,,,,,ashley_2,001,2020_Feb_12_1028,posner,3.1.5,59.98210134094505,
0.5,180,1,right,2,4,1,0,1,0,1,4,12,7,,,,,,,,,309.7933555999998,310.2927199000005,311.0094876000003,None,310.3094092000001,310.9929110000003,311.50988289999987,None,right,1,311.50988289999987,None,None,310.3094092000001,311.4929667000006,0.5112388999996256,0.5944276000000173,1.7114758999996411,1.7948145999998815,0.4655654999996841,,,,,,ashley_2,001,2020_Feb_12_1028,posner,3.1.5,59.98210134094505,
0.5,0,0,right,1,4,1,0,1,0,1,5,13,3,,,,,,,,,311.99421600000005,312.4926886000003,313.21023650000006,None,312.50979180000013,313.1936730000007,313.7105154000001,311.99421600000005,right,1,313.7105154000001,None,None,312.50979180000013,313.6938817999999,0.510368400000516,0.594074599999658,1.7115460000004532,1.7946973999996771,0.41674239999974816,,,,,,ashley_2,001,2020_Feb_12_1028,posner,3.1.5,59.98210134094505,
0.5,180,1,right,2,4,1,0,1,0,1,6,14,5,,,,,,,,,314.1438794000005,314.64400509999996,315.3608420999999,None,314.6607090000007,315.3442808,315.86091080000006,None,right,1,315.86091080000006,None,None,314.6607090000007,315.84455830000024,0.5113711000003605,0.594670500000575,1.7118974000004528,1.7951038999999582,0.3464147000004232,,,,,,ashley_2,001,2020_Feb_12_1028,posner,3.1.5,59.98210134094505,
0.5,180,1,right,2,4,1,0,1,0,1,7,15,6,,,,,,,,,316.22894480000014,316.7279091999999,317.44492230000014,None,316.7447818999999,317.42815080000037,317.94518590000007,None,right,1,317.94518590000007,None,None,316.7447818999999,317.9282965000002,0.5108288000001266,0.5943651999996291,1.7112019999995027,1.7946614000002228,0.3740324000000328,,,,,,ashley_2,001,2020_Feb_12_1028,posner,3.1.5,59.98210134094505,
-0.5,0,1,left,1,3,1,0,1,0,2,0,16,2,,,,,,,,,318.3458236000006,318.84547380000004,319.56212460000006,None,318.8619024999998,319.54561079999985,320.0624402000003,None,left,1,320.0624402000003,None,None,318.8619024999998,320.04580260000057,0.5113289999999324,0.5948357000006581,1.7116391999998086,1.7950789000005898,0.36893070000041917,,,,,,ashley_2,001,2020_Feb_12_1028,posner,3.1.5,59.98210134094505,
-0.5,0,1,left,1,3,1,0,1,0,2,1,17,0,,,,,,,,,320.4631184,320.9627338999999,321.67961410000044,None,320.9791793000004,321.6627728000003,322.1797317999999,None,left,1,322.1797317999999,None,None,320.9791793000004,322.1630638000006,0.5112258000008296,0.5943919000001188,1.7115339000001768,1.7947288000004846,0.3477874999998676,,,,,,ashley_2,001,2020_Feb_12_1028,posner,3.1.5,59.98210134094505,
-0.5,0,1,left,1,3,1,0,1,0,2,2,18,1,,,,,,,,,322.54807620000065,323.04650589999983,323.7637327000002,None,323.0634147999999,323.74673090000033,324.26405350000005,None,left,1,324.26405350000005,None,None,323.0634147999999,324.2469564000003,0.5106738000004043,0.5943078000000241,1.7111040999998295,1.7945982000001095,0.39125460000013845,,,,,,ashley_2,001,2020_Feb_12_1028,posner,3.1.5,59.98210134094505,
0.5,180,1,right,2,4,1,0,1,0,2,3,19,7,,,,,,,,,324.6812307,325.18057690000023,325.8974318999999,None,325.1971854000003,325.8807612999999,326.3975784000004,326.8812585000005,right,1,326.3975784000004,None,None,325.1971854000003,326.38079319999997,0.5108930999995209,0.5945425999998406,1.7110949999996592,1.7946008999997503,0.5457108000000517,,,,,,ashley_2,001,2020_Feb_12_1028,posner,3.1.5,59.98210134094505,
0.5,180,1,right,2,4,1,0,1,0,2,4,20,6,,,,,,,,,326.96527330000026,327.46463270000004,328.1814460000005,None,327.48132090000036,328.1649158,328.6817552000002,None,right,1,328.6817552000002,None,None,327.48132090000036,328.66504560000067,0.5109707000001436,0.5943291000003228,1.7113673000003473,1.7947104000004401,0.27778660000058153,,,,,,ashley_2,001,2020_Feb_12_1028,posner,3.1.5,59.98210134094505,
0.5,180,1,right,2,4,1,0,1,0,2,5,21,5,,,,,,,,,328.9830923999998,329.4819750000006,330.19899840000016,None,329.4985977000006,330.1820379999999,330.6989183000005,None,right,1,330.6989183000005,None,None,329.4985977000006,330.6824351000005,0.5104757999997673,0.5938655999998446,1.7109191999998075,1.794106099999226,0.3883791999996902,,,,,,ashley_2,001,2020_Feb_12_1028,posner,3.1.5,59.98210134094505,
-0.5,180,0,left,2,3,1,0,1,0,2,6,22,4,,,,,,,,,331.1164619000001,331.6157753000007,332.3328532000005,None,331.6325864999999,332.3160931000002,332.8330292999999,333.3164123000006,left,1,332.8330292999999,None,None,331.6325864999999,332.8163676000004,0.5111183999997593,0.5948037999996814,1.7116909999995187,1.7949884999998176,0.47022999999990134,,,,,,ashley_2,001,2020_Feb_12_1028,posner,3.1.5,59.98210134094505,
0.5,0,0,right,1,4,1,0,1,0,2,7,23,3,,,,,,,,,333.33361630000036,333.83339950000027,334.5501989000004,None,333.8499105000001,334.5335580000001,335.0502311,None,right,1,335.0502311,None,None,333.8499105000001,335.0335847000006,0.5112353000004077,0.5943981000000349,1.711406700000225,1.7947487000001274,0.41316149999966,,,,,,ashley_2,001,2020_Feb_12_1028,posner,3.1.5,59.98210134094505,
-0.5,0,1,left,1,3,1,0,1,0,3,0,24,1,,,,,,,,,335.4846395000004,335.9840199999999,336.7008904000004,None,336.00056510000013,336.6843013000007,337.20109500000035,None,left,1,337.20109500000035,None,None,336.00056510000013,337.18432550000034,0.511088600000221,0.5944061000000147,1.71137329999965,1.7946429000003263,0.3741475000006176,,,,,,ashley_2,001,2020_Feb_12_1028,posner,3.1.5,59.98210134094505,
-0.5,180,0,left,2,3,1,0,1,0,3,1,25,4,,,,,,,,,337.6019425000004,338.1013743000003,338.8181376000002,None,338.1178531000005,338.80144740000014,339.3182615000005,339.8018725000002,left,1,339.3182615000005,None,None,338.1178531000005,339.30175320000035,0.5110677000002397,0.5943268999999418,1.7114298000005874,1.7946499999998196,0.4890147000005527,,,,,,ashley_2,001,2020_Feb_12_1028,posner,3.1.5,59.98210134094505,
0.5,180,1,right,2,4,1,0,1,0,3,2,26,6,,,,,,,,,339.83572280000044,340.3353248000003,341.05209340000056,None,340.35206840000046,341.03556350000053,341.5524602000005,None,right,1,341.5524602000005,None,None,340.35206840000046,341.5355647000006,0.5111575000000812,0.5946225999996386,1.7113815000002432,1.7948961000001873,0.39074989999971876,,,,,,ashley_2,001,2020_Feb_12_1028,posner,3.1.5,59.98210134094505,
-0.5,0,1,left,1,3,1,0,1,0,3,3,27,2,,,,,,,,,341.9701504000004,342.46955609999986,343.1862079000002,None,342.4859406000005,343.16951530000006,343.6863798000004,344.16980909999984,left,1,343.6863798000004,None,None,342.4859406000005,343.6697380000005,0.511509500000102,0.5946887000000061,1.7116749000006166,1.7949440000002141,0.5452455000004193,,,,,,ashley_2,001,2020_Feb_12_1028,posner,3.1.5,59.98210134094505,
0.5,0,0,right,1,4,1,0,1,0,3,4,28,3,,,,,,,,,344.2535142000006,344.7534091000007,345.47023160000026,None,344.77010940000036,345.4535755000006,345.9703057000006,None,right,1,345.9703057000006,None,None,344.77010940000036,345.9538511999999,0.5116950999999972,0.5948293000001286,1.712113400000817,1.7952218000000357,0.29293779999989056,,,,,,ashley_2,001,2020_Feb_12_1028,posner,3.1.5,59.98210134094505,
0.5,180,1,right,2,4,1,0,1,0,3,5,29,7,,,,,,,,,346.28810729999987,346.7872348000001,347.5042914000005,None,346.8038741999999,347.4873808000002,348.0044843000005,None,right,1,348.0044843000005,None,None,346.8038741999999,347.98755530000017,0.511089699999502,0.5943855999994412,1.7113887999994404,1.7948866999995516,0.3546416999997746,,,,,,ashley_2,001,2020_Feb_12_1028,posner,3.1.5,59.98210134094505,
-0.5,0,1,left,1,3,1,0,1,0,3,6,30,0,,,,,,,,,348.3883046000001,348.8878881999999,349.60468390000005,None,348.9045169000001,349.58816449999995,350.10505379999995,None,left,1,350.10505379999995,None,None,348.9045169000001,350.0882252000001,0.5110232999995787,0.594507099999646,1.711345099999562,1.7948237999999037,0.3580837999998039,,,,,,ashley_2,001,2020_Feb_12_1028,posner,3.1.5,59.98210134094505,
0.5,180,1,right,2,4,1,0,1,0,3,7,31,5,,,,,,,,,350.4892491999999,350.9884606000005,351.7053603000004,None,351.0054221999999,351.6888284000006,352.2055807000006,352.6892611000003,right,1,352.2055807000006,None,None,351.0054221999999,352.1890030000004,0.5113404999992781,0.5948897999996916,1.7118540999999823,1.7951513999996678,0.6817946999999549,,,,,,ashley_2,001,2020_Feb_12_1028,posner,3.1.5,59.98210134094505,
0.5,180,1,right,2,4,1,0,1,0,4,0,32,7,,,,,,,,,352.9058703999999,353.40594539999984,354.12299900000016,None,353.4227690000007,354.10612279999987,354.62307000000055,None,right,1,354.62307000000055,None,None,353.4227690000007,354.60634630000004,0.5111552999997002,0.5945997999997417,1.7115362000004097,1.7949602999997296,0.3680921000004673,,,,,,ashley_2,001,2020_Feb_12_1028,posner,3.1.5,59.98210134094505,
-0.5,0,1,left,1,3,1,0,1,0,4,1,33,2,,,,,,,,,355.0064626000003,355.50667669999984,356.2237289000004,None,355.5233925000002,356.2069282000002,356.7237367000007,357.20706100000007,left,1,356.7237367000007,None,None,355.5233925000002,356.70700230000057,0.511168799999723,0.5946071999997002,1.7114658999998937,1.7948950999998488,0.563540500000272,,,,,,ashley_2,001,2020_Feb_12_1028,posner,3.1.5,59.98210134094505,
-0.5,0,1,left,1,3,1,0,1,0,4,2,34,1,,,,,,,,,357.30846350000047,357.80729210000027,358.5243691000005,None,357.82414400000016,358.50748100000055,359.0244567999998,None,left,1,359.0244567999998,None,None,357.82414400000016,359.0077071000005,0.510688399999708,0.5940989999999147,1.7110775000001013,1.7945750999997472,0.46264439999958995,,,,,,ashley_2,001,2020_Feb_12_1028,posner,3.1.5,59.98210134094505,
0.5,180,1,right,2,4,1,0,1,0,4,3,35,5,,,,,,,,,359.5090178999999,360.0080334000004,360.7249404000004,None,360.0247995,360.7082612000004,361.22512520000055,359.5090178999999,right,1,361.22512520000055,None,None,360.0247995,361.20836340000005,0.5104115999993155,0.59378789999937,1.7107230000001437,1.7942230999997264,0.326094799999737,,,,,,ashley_2,001,2020_Feb_12_1028,posner,3.1.5,59.98210134094505,
0.5,0,0,right,1,4,1,0,1,0,4,4,36,3,,,,,,,,,361.57616400000006,362.07548980000047,362.7922484999999,None,362.0920726000004,362.77555290000055,363.2923802000005,None,right,1,363.2923802000005,None,None,362.0920726000004,363.2756214000001,0.5112169000003632,0.5944448000000193,1.7113326999997298,1.7947531999998318,0.37876280000000406,,,,,,ashley_2,001,2020_Feb_12_1028,posner,3.1.5,59.98210134094505,
-0.5,180,0,left,2,3,1,0,1,0,4,5,37,4,,,,,,,,,363.69382550000046,364.1928195999999,364.90950040000007,None,364.2094923000004,364.89303370000016,365.4098297999999,None,left,1,365.4098297999999,None,None,364.2094923000004,365.3930227000001,0.5109480000000985,0.5941325999992841,1.7111384999998336,1.794449899999563,0.4452144999995653,,,,,,ashley_2,001,2020_Feb_12_1028,posner,3.1.5,59.98210134094505,
-0.5,0,1,left,1,3,1,0,1,0,4,6,38,0,,,,,,,,,365.8765524999999,366.3766550999999,367.0937859000005,None,366.3934538000003,367.0769307999999,367.5938947000004,None,left,1,367.5938947000004,None,None,366.3934538000003,367.5771056000003,0.5110969999996087,0.5943803000000116,1.7115279999998165,1.7948886999993192,0.4452305000004344,,,,,,ashley_2,001,2020_Feb_12_1028,posner,3.1.5,59.98210134094505,
0.5,180,1,right,2,4,1,0,1,0,4,7,39,6,,,,,,,,,368.06157729999995,368.5607779000002,369.2775287000004,None,368.57734530000016,369.26119910000034,369.77783850000014,370.26141030000053,right,1,369.77783850000014,None,None,368.57734530000016,369.7611274000001,0.5108135000000402,0.5942282999994859,1.7111445999998978,1.7945503999999346,0.485373299999992,,,,,,ashley_2,001,2020_Feb_12_1028,posner,3.1.5,59.98210134094505,
-0.5,180,0,left,2,3,1,0,1,0,5,0,40,4,,,,,,,,,370.2791041999999,370.7782735999999,371.49497880000035,None,370.7949054999999,371.4782386000006,371.99503989999994,372.4786621000003,left,1,371.99503989999994,None,None,370.7949054999999,371.9787223000003,0.5111224000002039,0.5940743000001021,1.7115534000004118,1.794593700000405,0.4760952000006,,,,,,ashley_2,001,2020_Feb_12_1028,posner,3.1.5,59.98210134094505,
0.5,0,0,right,1,4,1,0,1,0,5,1,41,3,,,,,,,,,372.4958198000004,372.9953923000003,373.71233200000006,None,373.0121650000001,373.69566470000063,374.2123833000005,None,right,1,374.2123833000005,None,None,373.0121650000001,374.19583370000055,0.5114386000004743,0.5946923000001334,1.7118630000004487,1.7953177999997934,0.4347631000000547,,,,,,ashley_2,001,2020_Feb_12_1028,posner,3.1.5,59.98210134094505,
-0.5,0,1,left,1,3,1,0,1,0,5,2,42,2,,,,,,,,,374.6632457000005,375.1628664,375.87956060000033,None,375.1796506999999,375.86314180000045,376.37979690000066,376.8634522000002,left,1,376.37979690000066,None,None,375.1796506999999,376.3632569000001,0.5112333000006402,0.5943876999999702,1.7116100000002916,1.7947422000006554,0.6913739000001442,,,,,,ashley_2,001,2020_Feb_12_1028,posner,3.1.5,59.98210134094505,
0.5,180,1,right,2,4,1,0,1,0,5,3,43,7,,,,,,,,,377.0977971000002,377.5968827000006,378.31389690000015,None,377.6136148000005,378.29712160000054,378.8138592000005,None,right,1,378.8138592000005,None,None,377.6136148000005,378.79721229999996,0.5111132000001817,0.5943311000000904,1.7114218000006076,1.7948200000000725,0.2333718999998382,,,,,,ashley_2,001,2020_Feb_12_1028,posner,3.1.5,59.98210134094505,
0.5,180,1,right,2,4,1,0,1,0,5,4,44,5,,,,,,,,,379.0651013000006,379.5642056000006,380.2809924000003,None,379.58071629999995,380.26443460000064,380.7811308999999,None,right,1,380.7811308999999,None,None,379.58071629999995,380.76492250000047,0.5109753000006094,0.5942780000004859,1.7116727000002356,1.7945467999998073,0.45791169999938575,,,,,,ashley_2,001,2020_Feb_12_1028,posner,3.1.5,59.98210134094505,
-0.5,0,1,left,1,3,1,0,1,0,5,5,45,1,,,,,,,,,381.26576040000054,381.7648052000004,382.48171940000066,None,381.7816511000001,382.46502490000057,382.98188800000025,383.4654119000006,left,1,382.98188800000025,None,None,381.7816511000001,382.96529439999995,0.5110869999998613,0.5942409999997835,1.711549699999523,1.7947830000002796,0.6252409999997326,,,,,,ashley_2,001,2020_Feb_12_1028,posner,3.1.5,59.98210134094505,
0.5,180,1,right,2,4,1,0,1,0,5,6,46,6,,,,,,,,,383.6329003000001,384.13229150000006,384.8491291,None,384.1490996000002,384.8324685000007,385.3492874000003,None,right,1,385.3492874000003,None,None,384.1490996000002,385.3324803000005,0.5111421000001428,0.5942456000002494,1.711319099999855,1.7946807999996963,0.44186119999994844,,,,,,ashley_2,001,2020_Feb_12_1028,posner,3.1.5,59.98210134094505,
-0.5,0,1,left,1,3,1,0,1,0,5,7,47,0,,,,,,,,,385.8168943999999,386.3161675000001,387.0331987999998,None,386.3328548999998,387.01631369999996,387.5333056999998,388.01671160000024,left,1,387.5333056999998,None,None,386.3328548999998,387.51649439999983,0.5109579999998459,0.5944385000002512,1.7112668999998277,1.7947168999999121,0.49781050000001414,,,,,,ashley_2,001,2020_Feb_12_1028,posner,3.1.5,59.98210134094505,
0.5,180,1,right,2,4,1,0,1,0,6,0,48,7,,,,,,,,,388.0505696,388.5502587000001,389.2670646000006,None,388.56679200000053,389.2504852000002,389.7672756000002,390.25074680000034,right,1,389.7672756000002,None,None,388.56679200000053,389.7507237,0.5113063999997394,0.5947562000001199,1.711746399999356,1.7950487999996767,0.5518382999998721,,,,,,ashley_2,001,2020_Feb_12_1028,posner,3.1.5,59.98210134094505,
0.5,0,0,right,1,4,1,0,1,0,6,1,49,3,,,,,,,,,390.33474770000066,390.8342584000002,391.5512845000003,None,390.8509703,391.53460730000006,392.0514099000002,392.5349747,right,1,392.0514099000002,None,None,390.8509703,392.0346462000007,0.5112308000007033,0.594417400000566,1.7115989000003538,1.7948165000007066,0.48387319999983447,,,,,,ashley_2,001,2020_Feb_12_1028,posner,3.1.5,59.98210134094505,
-0.5,0,1,left,1,3,1,0,1,0,6,2,50,1,,,,,,,,,392.5522307000001,393.05160740000065,393.7684431000007,None,393.0681875999999,393.75187950000054,394.26858230000016,None,left,1,394.26858230000016,None,None,393.0681875999999,394.25198590000036,0.5111041999998633,0.594541699999354,1.7114590999999564,1.7947383000000627,0.38651389999995445,,,,,,ashley_2,001,2020_Feb_12_1028,posner,3.1.5,59.98210134094505,
0.5,180,1,right,2,4,1,0,1,0,6,3,51,5,,,,,,,,,394.6859752999999,395.1856760999999,395.90246449999995,None,395.2022885000006,395.8857103999999,396.4026487000001,None,right,1,396.4026487000001,None,None,395.2022885000006,396.3858839000004,0.511229299999286,0.5944142999996984,1.711416599999211,1.7948552999996537,0.4044517000002088,,,,,,ashley_2,001,2020_Feb_12_1028,posner,3.1.5,59.98210134094505,
0.5,180,1,right,2,4,1,0,1,0,6,4,52,6,,,,,,,,,396.8367973000004,397.33617830000003,398.05317360000026,None,397.3529408000004,398.03642410000066,398.55331170000045,399.03677659999994,right,1,398.55331170000045,None,None,397.3529408000004,398.5364619000002,0.5109775999999329,0.5943367999998372,1.711236199999803,1.7946594999993977,0.5737619999999879,,,,,,ashley_2,001,2020_Feb_12_1028,posner,3.1.5,59.98210134094505,
-0.5,180,0,left,2,3,1,0,1,0,6,5,53,4,,,,,,,,,399.1541526000001,399.6536365000002,400.3706560999999,None,399.6706113,400.3537759000001,400.8707884000005,401.3540503000004,left,1,400.8707884000005,None,None,399.6706113,400.8541243999998,0.5114480000002004,0.5946498000002975,1.7119124999999258,1.7950639999999112,0.5202419999995982,,,,,,ashley_2,001,2020_Feb_12_1028,posner,3.1.5,59.98210134094505,
-0.5,0,1,left,1,3,1,0,1,0,6,6,54,2,,,,,,,,,401.4216415000001,401.92108820000067,402.63785689999986,None,401.9376392000004,402.6212922000004,403.1380213000002,403.6215892,left,1,403.1380213000002,None,None,401.9376392000004,403.1213631999999,0.5109039999997549,0.594367699999566,1.7111644999995406,1.7946552000003066,0.6530407999998715,,,,,,ashley_2,001,2020_Feb_12_1028,posner,3.1.5,59.98210134094505,
-0.5,0,1,left,1,3,1,0,1,0,6,7,55,0,,,,,,,,,403.8219445000004,404.32184980000056,405.0385428999998,None,404.33838860000014,405.02196080000067,405.53872690000026,406.02228710000054,left,1,405.53872690000026,None,None,404.33838860000014,405.5222388000002,0.5115122999995947,0.5949297999995906,1.7118855999997322,1.7951680999995006,0.6044984000000113,,,,,,ashley_2,001,2020_Feb_12_1028,posner,3.1.5,59.98210134094505,
0.5,180,1,right,2,4,1,0,1,0,7,0,56,6,,,,,,,,,406.17309660000046,406.67256950000046,407.38941330000034,None,406.6892979000004,407.3728565000001,407.8896644000006,408.3731206000002,right,1,407.8896644000006,None,None,406.6892979000004,407.87290960000064,0.5111471000000165,0.5943457999992461,1.711466599999767,1.7947434999996403,0.46939930000007735,,,,,,ashley_2,001,2020_Feb_12_1028,posner,3.1.5,59.98210134094505,
0.5,180,1,right,2,4,1,0,1,0,7,1,57,5,,,,,,,,,408.3906811000006,408.8900222000002,409.60660970000026,None,408.9064515,409.5901184000004,410.1068387000005,410.5904304000005,right,1,410.1068387000005,None,None,408.9064515,410.0903235000005,0.511094200000116,0.5942557999997007,1.711378699999841,1.794753799999853,0.5162876999993387,,,,,,ashley_2,001,2020_Feb_12_1028,posner,3.1.5,59.98210134094505,
0.5,180,1,right,2,4,1,0,1,0,7,2,58,7,,,,,,,,,410.6417491000002,411.1406953000005,411.8574679000003,None,411.15724540000065,411.84096000000045,412.3576606000006,None,right,1,412.3576606000006,None,None,411.15724540000065,412.3409812,0.5107772999999725,0.5940019999998185,1.7110467000002245,1.7943678999999975,0.3374232000005577,,,,,,ashley_2,001,2020_Feb_12_1028,posner,3.1.5,59.98210134094505,
-0.5,0,1,left,1,3,1,0,1,0,7,3,59,0,,,,,,,,,412.7251789000002,413.22457829999985,413.94159709999985,None,413.2411802000006,413.92470050000065,414.4417207000006,None,left,1,414.4417207000006,None,None,413.2411802000006,414.42491620000055,0.5110715999999229,0.5942848999993657,1.7113801999994394,1.7946594999993977,0.2933654000007664,,,,,,ashley_2,001,2020_Feb_12_1028,posner,3.1.5,59.98210134094505,
-0.5,0,1,left,1,3,1,0,1,0,7,4,60,1,,,,,,,,,414.7594804999999,415.2585917000006,415.9752593000003,None,415.27522670000053,415.95870319999995,416.47562890000063,416.95917139999983,left,1,416.47562890000063,None,None,415.27522670000053,416.4588878000004,0.5111139000000549,0.5942909000004875,1.711326700000427,1.794887000000017,0.6673544999994192,,,,,,ashley_2,001,2020_Feb_12_1028,posner,3.1.5,59.98210134094505,
-0.5,180,0,left,2,3,1,0,1,0,7,5,61,4,,,,,,,,,417.16017830000055,417.6593432999998,418.37609239999983,None,417.6758094000006,418.35945640000045,418.87620419999985,None,left,1,418.87620419999985,None,None,417.6758094000006,418.85963450000054,0.5110988000005818,0.5944265000007363,1.7113764000005176,1.7947891000003438,0.40278440000020055,,,,,,ashley_2,001,2020_Feb_12_1028,posner,3.1.5,59.98210134094505,
0.5,0,0,right,1,4,1,0,1,0,7,6,62,3,,,,,,,,,419.3104527000005,419.8098028000004,420.5268794000003,None,419.82666470000004,420.51012360000004,421.0268603000004,None,right,1,421.0268603000004,None,None,419.82666470000004,421.0102289000006,0.5109004999994795,0.594543899999735,1.7113017000001491,1.7948610999992525,0.4681276000001162,,,,,,ashley_2,001,2020_Feb_12_1028,posner,3.1.5,59.98210134094505,
-0.5,0,1,left,1,3,1,0,1,0,7,7,63,2,,,,,,,,,421.5116530000005,422.0104812999998,422.7274846999999,None,422.0271293000005,422.7109390000005,423.2275410000002,421.5116530000005,left,1,423.2275410000002,None,None,422.0271293000005,423.21097980000013,0.5107473999996728,0.5941605999996682,1.7112280999999712,1.7946781999999075,0.4117562999999791,,,,,,ashley_2,001,2020_Feb_12_1028,posner,3.1.5,59.98210134094505,
-0.5,0,1,left,1,3,1,0,1,0,8,0,64,1,,,,,,,,,423.6622309000004,424.1613434000001,424.8780682000006,None,424.17782200000056,424.86145940000006,425.3782488000006,None,left,1,425.3782488000006,None,None,424.17782200000056,425.3616539000004,0.5109656000004179,0.594397800000479,1.7112566000005245,1.7945858000002772,0.41273850000015955,,,,,,ashley_2,001,2020_Feb_12_1028,posner,3.1.5,59.98210134094505,
0.5,0,0,right,1,4,1,0,1,0,8,1,65,3,,,,,,,,,425.81299780000063,426.3118806000002,427.0291283000006,None,426.32857610000065,427.01212420000047,427.52907760000016,428.01233030000003,right,1,427.52907760000016,None,None,426.32857610000065,427.51240880000023,0.5106145999998262,0.5939546999998129,1.711119300000064,1.79433009999957,0.5179686999999831,,,,,,ashley_2,001,2020_Feb_12_1028,posner,3.1.5,59.98210134094505,
-0.5,180,0,left,2,3,1,0,1,0,8,2,66,4,,,,,,,,,428.0633093000006,428.5625282000001,429.27959009999995,None,428.5793349000005,429.26350550000006,429.7796238000001,None,left,1,429.7796238000001,None,None,428.5793349000005,429.7632018000004,0.5109671999998682,0.5943419000004724,1.7116156000001865,1.794662100000096,0.3554110999994009,,,,,,ashley_2,001,2020_Feb_12_1028,posner,3.1.5,59.98210134094505,
-0.5,0,1,left,1,3,1,0,1,0,8,3,67,2,,,,,,,,,430.1640735000001,430.6634109000006,431.3802529000004,None,430.67979749999995,431.36341300000004,431.88023090000024,432.36395900000025,left,1,431.88023090000024,None,None,430.67979749999995,431.8637620999998,0.5112145999992208,0.5942510999993829,1.711544099999628,1.7946712999992087,0.6228328999995938,,,,,,ashley_2,001,2020_Feb_12_1028,posner,3.1.5,59.98210134094505,
0.5,180,1,right,2,4,1,0,1,0,8,4,68,5,,,,,,,,,432.5315776000007,433.0301754000002,433.7474331000003,None,433.04685620000055,433.7309363000004,434.2476735,None,right,1,434.2476735,None,None,433.04685620000055,434.2310625,0.5105075999999826,0.5944543999994494,1.7113739999995232,1.7948631999997815,0.2554270999999062,,,,,,ashley_2,001,2020_Feb_12_1028,posner,3.1.5,59.98210134094505,
-0.5,0,1,left,1,3,1,0,1,0,8,5,69,0,,,,,,,,,434.53192339999987,435.03128840000045,435.7481634000005,None,435.04790159999993,435.73149120000016,436.24838270000055,None,left,1,436.24838270000055,None,None,435.04790159999993,436.23163980000027,0.5111905000003389,0.5945854999999938,1.7115198999999848,1.7948341000001165,0.3905406000003495,,,,,,ashley_2,001,2020_Feb_12_1028,posner,3.1.5,59.98210134094505,
0.5,180,1,right,2,4,1,0,1,0,8,6,70,7,,,,,,,,,436.66547400000036,437.1652795,437.8821702000005,None,437.1818509000004,437.8655763000006,438.3824160000004,438.8658567000002,right,1,438.3824160000004,None,None,437.1818509000004,438.36555339999995,0.5114084999995612,0.5948812999995425,1.7116800999992847,1.795401800000036,0.4805616999992708,,,,,,ashley_2,001,2020_Feb_12_1028,posner,3.1.5,59.98210134094505,
0.5,180,1,right,2,4,1,0,1,0,8,7,71,6,,,,,,,,,438.8834287999998,439.38272510000024,440.0994515000002,None,439.39928000000054,440.08281200000056,440.5996984000003,441.0833216000001,right,1,440.5996984000003,None,None,439.39928000000054,440.58314299999984,0.5110799999993105,0.5942173999992519,1.7114850999996634,1.7945448000000397,0.7032177000000956,,,,,,ashley_2,001,2020_Feb_12_1028,posner,3.1.5,59.98210134094505,
-0.5,0,1,left,1,3,1,0,1,0,9,0,72,1,,,,,,,,,441.3339166000005,441.8335786000007,442.55041299999993,None,441.85020600000007,442.53368880000016,443.0505312000005,443.53391310000006,left,1,443.0505312000005,None,None,441.85020600000007,443.0336788000004,0.5112024000000019,0.5943549999992683,1.7112898999994286,1.7946076999996876,0.732457400000385,,,,,,ashley_2,001,2020_Feb_12_1028,posner,3.1.5,59.98210134094505,
0.5,180,1,right,2,4,1,0,1,0,9,1,73,5,,,,,,,,,443.8009010000005,444.3009181000007,445.0176532000005,None,444.31743410000036,445.0009579000007,445.5178046000001,None,right,1,445.5178046000001,None,None,444.31743410000036,445.50110740000036,0.5116342999999688,0.5948572999996031,1.7118047999992996,1.7952441999996154,0.4251868999999715,,,,,,ashley_2,001,2020_Feb_12_1028,posner,3.1.5,59.98210134094505,
0.5,180,1,right,2,4,1,0,1,0,9,2,74,7,,,,,,,,,445.9688827,446.4680102000002,447.18494680000003,None,446.48488910000015,447.1683849000001,447.6851821,448.16888199999994,right,1,447.6851821,None,None,446.48488910000015,447.6687794999998,0.510980500000187,0.5944462999996176,1.7117255000002842,1.7949047000001883,0.48199859999931505,,,,,,ashley_2,001,2020_Feb_12_1028,posner,3.1.5,59.98210134094505,
0.5,180,1,right,2,4,1,0,1,0,9,3,75,6,,,,,,,,,448.1856346000004,448.68537520000064,449.40236920000007,None,448.7022209000006,449.3856409,449.90258150000045,None,right,1,449.90258150000045,None,None,448.7022209000006,449.88582210000004,0.5114264000003459,0.595043700000133,1.7118582000002789,1.7952165000006062,0.424349699999766,,,,,,ashley_2,001,2020_Feb_12_1028,posner,3.1.5,59.98210134094505,
-0.5,0,1,left,1,3,1,0,1,0,9,4,76,2,,,,,,,,,450.3534576000002,450.8528623000002,451.5698407,None,450.8696952,451.55315060000066,452.06982160000007,None,left,1,452.06982160000007,None,None,450.8696952,452.05328550000013,0.5112699000001157,0.5946291000000201,1.7116688000005524,1.7948667000000569,0.4251574999998411,,,,,,ashley_2,001,2020_Feb_12_1028,posner,3.1.5,59.98210134094505,
0.5,0,0,right,1,4,1,0,1,0,9,5,77,3,,,,,,,,,452.5211429000001,453.02022750000015,453.73692630000005,None,453.0368959000007,453.7205917000001,454.23717300000044,454.72087939999983,right,1,454.23717300000044,None,None,453.0368959000007,454.2203860999998,0.5107348000001366,0.5940783999994892,1.7109172000000399,1.7945771999993667,0.609762099999898,,,,,,ashley_2,001,2020_Feb_12_1028,posner,3.1.5,59.98210134094505,
-0.5,0,1,left,1,3,1,0,1,0,9,6,78,0,,,,,,,,,454.8713808000002,455.3708752000002,456.08769459999985,None,455.3874255999999,456.0711944000004,456.58788770000046,457.0715239000001,left,1,456.58788770000046,None,None,455.3874255999999,456.5711646999998,0.5110272000001714,0.5943840999998429,1.711304299999938,1.7948715000002267,0.4750508999995873,,,,,,ashley_2,001,2020_Feb_12_1028,posner,3.1.5,59.98210134094505,
-0.5,180,0,left,2,3,1,0,1,0,9,7,79,4,,,,,,,,,457.08920320000016,457.5881610000006,458.3050100999999,None,457.6047926000001,458.2885790999999,458.80516480000006,459.28883290000067,left,1,458.80516480000006,None,None,457.6047926000001,458.7885874000003,0.5109566000000996,0.5943810999997368,1.7113120000003619,1.7947708000001512,0.49773589999949763,,,,,,ashley_2,001,2020_Feb_12_1028,posner,3.1.5,59.98210134094505,
0.5,180,1,right,2,4,1,0,1,0,10,0,80,6,,,,,,,,,459.32312830000046,459.8222695000004,460.53938560000006,None,459.8389597000005,460.5225882000004,461.03937920000044,461.52277700000013,right,1,461.03937920000044,None,None,459.8389597000005,461.0227347,0.5110198000002129,0.5942262999997183,1.7114550999995117,1.7947033000000374,0.7594809000001987,,,,,,ashley_2,001,2020_Feb_12_1028,posner,3.1.5,59.98210134094505,
0.5,0,0,right,1,4,1,0,1,0,10,1,81,3,,,,,,,,,461.8236452000001,462.3232134,463.0398111000004,None,462.33981480000057,463.0234128000002,463.5402033999999,None,right,1,463.5402033999999,None,None,462.33981480000057,463.5234651999999,0.511430599999585,0.5946682999992845,1.7116738999993686,1.7949144999993223,0.4266515999997864,,,,,,ashley_2,001,2020_Feb_12_1028,posner,3.1.5,59.98210134094505,
-0.5,0,1,left,1,3,1,0,1,0,10,2,82,1,,,,,,,,,463.9911769,464.49044630000026,465.2073083000005,None,464.50703109999995,465.19051320000017,465.70749760000035,None,left,1,465.70749760000035,None,None,464.50703109999995,465.6910131000004,0.5110364000001937,0.5944220000001224,1.7115843999999925,1.7946141000002171,0.2912945000007312,,,,,,ashley_2,001,2020_Feb_12_1028,posner,3.1.5,59.98210134094505,
-0.5,180,0,left,2,3,1,0,1,0,10,3,83,4,,,,,,,,,466.02501089999987,466.5244190000003,467.2412497000005,None,466.541013,467.2244816000002,467.74144250000063,None,left,1,467.74144250000063,None,None,466.541013,467.7247309000004,0.5111586000002717,0.5944149000006291,1.7114526000004844,1.794911900000443,0.32135680000010325,,,,,,ashley_2,001,2020_Feb_12_1028,posner,3.1.5,59.98210134094505,
0.5,180,1,right,2,4,1,0,1,0,10,4,84,7,,,,,,,,,468.0922064000006,468.5917735000003,469.30850480000026,None,468.6084821000004,469.29199770000014,469.80885690000014,None,right,1,469.80885690000014,None,None,468.6084821000004,469.7920154000003,0.5111787000005279,0.5942866000004869,1.7114052000006268,1.7946290999998382,0.3739850000001752,,,,,,ashley_2,001,2020_Feb_12_1028,posner,3.1.5,59.98210134094505,
-0.5,0,1,left,1,3,1,0,1,0,10,5,85,2,,,,,,,,,470.2090691000003,470.70906210000066,471.42593510000006,None,470.725539,471.40920430000006,471.92597340000066,None,left,1,471.92597340000066,None,None,470.725539,471.90936670000065,0.511174100000062,0.5943153000007442,1.7114636000005703,1.7949490999999398,0.34515250000004016,,,,,,ashley_2,001,2020_Feb_12_1028,posner,3.1.5,59.98210134094505,
0.5,180,1,right,2,4,1,0,1,0,10,6,86,5,,,,,,,,,472.2937514000005,472.79306350000024,473.50990020000063,None,472.8096226000007,473.4932353000004,474.0100418000002,None,right,1,474.0100418000002,None,None,472.8096226000007,473.99352,0.5111280999999508,0.5942276000005222,1.7115662000005614,1.794758300000467,0.4368874000001597,,,,,,ashley_2,001,2020_Feb_12_1028,posner,3.1.5,59.98210134094505,
-0.5,0,1,left,1,3,1,0,1,0,10,7,87,0,,,,,,,,,474.4775688,474.9769081000004,475.6939884000003,None,474.99374309999985,475.67726589999984,476.19415449999997,None,left,1,476.19415449999997,None,None,474.99374309999985,476.17737560000023,0.5110322999998971,0.594339499999478,1.7114737000001696,1.7950194999993982,0.3488078999998834,,,,,,ashley_2,001,2020_Feb_12_1028,posner,3.1.5,59.98210134094505,
,,,,,,1,0,1,0,,,,,,,,,,,,,,,,,,,,,,,,,,,,,,,,,476.5614611000001,None,1.5300000086426735e-05,0.9945430999996461,,ashley_2,001,2020_Feb_12_1028,posner,3.1.5,59.98210134094505,
-0.5,180,0,left,2,3,2,0,2,0,0,0,0,4,1.2600000445672777e-05,0.09765799999968294,537.5795939,None,1.4600000213249587e-05,0.09771980000004987,539.6803534000001,None,539.9664855000001,540.4638836000004,541.1808686000004,None,540.480568,541.1641856000006,541.6810532,None,left,1,541.6810532,None,None,540.480568,541.6642216,0.5065007000002879,0.58979890000046,1.7068205000005037,1.790208000000348,0.3816555999992488,,,,,,ashley_2,001,2020_Feb_12_1028,posner,3.1.5,59.98210134094505,
0.5,180,1,right,2,4,2,0,2,0,0,1,1,7,,,,,,,,,542.0832762,542.581169,543.2980846,None,542.5978894999998,543.2814228000007,543.7982674000004,None,right,1,543.7982674000004,None,None,542.5978894999998,543.7816842000002,0.5097359000001234,0.5931040000004941,1.7102301000004445,1.7934767000006104,0.39236370000071474,,,,,,ashley_2,001,2020_Feb_12_1028,posner,3.1.5,59.98210134094505,
0.5,0,0,right,1,4,2,0,2,0,0,2,2,3,,,,,,,,,544.2157225000001,544.7152873000005,545.4320446000002,None,544.7320051000006,545.4154078000001,545.9322915000002,None,right,1,545.9322915000002,None,None,544.7320051000006,545.9155215999999,0.511331999999129,0.5946192999999766,1.7115450999999666,1.7950087999997777,0.38629559999935736,,,,,,ashley_2,001,2020_Feb_12_1028,posner,3.1.5,59.98210134094505,
0.5,180,1,right,2,4,2,0,2,0,0,3,3,5,,,,,,,,,546.3493963000001,546.8491703,547.5662321999998,None,546.8658998999999,547.5493712000007,548.0663137000001,None,right,1,548.0663137000001,None,None,546.8658998999999,548.0495473000001,0.511523600000146,0.5949286000004577,1.7118710000004285,1.7951490000004924,0.3643253000000186,,,,,,ashley_2,001,2020_Feb_12_1028,posner,3.1.5,59.98210134094505,
-0.5,0,1,left,1,3,2,0,2,0,0,4,4,2,,,,,,,,,548.4507713000003,548.9498715999998,549.6666441000007,None,548.9664873000002,549.6501416000001,550.1667864000001,None,left,1,550.1667864000001,None,None,548.9664873000002,550.1502909000001,0.5107594000000972,0.5941492000001745,1.7111521999995603,1.7945041000002675,0.34380590000000666,,,,,,ashley_2,001,2020_Feb_12_1028,posner,3.1.5,59.98210134094505,
-0.5,0,1,left,1,3,2,0,2,0,0,5,5,0,,,,,,,,,550.5350917000005,551.0337528999999,551.7508647000004,None,551.0505213000006,551.7339941,552.2508923000005,None,left,1,552.2508923000005,None,None,551.0505213000006,552.2342108000003,0.5105946000003314,0.5939376999995147,1.7110308999999688,1.794386100000338,0.3078347999999096,,,,,,ashley_2,001,2020_Feb_12_1028,posner,3.1.5,59.98210134094505,
-0.5,0,1,left,1,3,2,0,2,0,0,6,6,1,,,,,,,,,552.5851497000003,553.0843939000006,553.8013927000002,None,553.1013104000003,553.7844973000001,554.3017774,None,left,1,554.3017774,None,None,553.1013104000003,554.2848629999999,0.5111499999993612,0.5945667999994839,1.7115942999998879,1.7949085999998715,0.32076080000024376,,,,,,ashley_2,001,2020_Feb_12_1028,posner,3.1.5,59.98210134094505,
0.5,180,1,right,2,4,2,0,2,0,0,7,7,6,,,,,,,,,554.6522205000001,555.1517835000004,555.8687721000006,None,555.1686003000004,555.8520318999999,556.3688185000001,None,right,1,556.3688185000001,None,None,555.1686003000004,556.3522444999999,0.5111559999995734,0.5945965999999316,1.7115988999994443,1.79482839999946,0.3341178000000582,,,,,,ashley_2,001,2020_Feb_12_1028,posner,3.1.5,59.98210134094505,
-0.5,0,1,left,1,3,2,0,2,0,1,0,8,2,,,,,,,,,556.7197494000002,557.2191467000002,557.9358990000001,None,557.2357241,557.9192874999999,558.4361042,None,left,1,558.4361042,None,None,557.2357241,558.4192968000007,0.5108775999997306,0.5940942999995968,1.711015399999269,1.794654599999376,0.37056940000002214,,,,,,ashley_2,001,2020_Feb_12_1028,posner,3.1.5,59.98210134094505,
0.5,180,1,right,2,4,2,0,2,0,1,1,9,6,,,,,,,,,558.8370470999998,559.3362849000005,560.0533554000003,None,559.3532062000004,560.0365574000007,560.5534564999998,None,right,1,560.5534564999998,None,None,559.3532062000004,560.5366309999999,0.5110709000000497,0.5943901000000551,1.7113923999995677,1.7949298999992607,0.2532209999999395,,,,,,ashley_2,001,2020_Feb_12_1028,posner,3.1.5,59.98210134094505,
-0.5,180,0,left,2,3,2,0,2,0,1,2,10,4,,,,,,,,,560.8377237000004,561.3369960999999,562.0540234999999,None,561.3536473000004,562.0371843000003,562.5541965000002,None,left,1,562.5541965000002,None,None,561.3536473000004,562.5373218000004,0.5110005000005913,0.5944521999999779,1.7113071000003401,1.7946541999999681,0.40436639999916224,,,,,,ashley_2,001,2020_Feb_12_1028,posner,3.1.5,59.98210134094505,
0.5,180,1,right,2,4,2,0,2,0,1,3,11,5,,,,,,,,,562.9884771000006,563.4876002999999,564.2046681000002,None,563.5044179000006,564.1880674000004,564.7046629000006,None,right,1,564.7046629000006,None,None,563.5044179000006,564.6881785000005,0.5109098000002632,0.5942474000003131,1.7114670000000842,1.794784300000174,0.2538631000006717,,,,,,ashley_2,001,2020_Feb_12_1028,posner,3.1.5,59.98210134094505,
0.5,0,0,right,1,4,2,0,2,0,1,4,12,3,,,,,,,,,564.9887605000004,565.4882419000005,566.2052271000002,None,565.5048955000002,566.1887244,566.7052078000006,None,right,1,566.7052078000006,None,None,565.5048955000002,566.6886915000005,0.5109760000004826,0.5943528000007063,1.7113573000006,1.7947695000002568,0.44540839999990567,,,,,,ashley_2,001,2020_Feb_12_1028,posner,3.1.5,59.98210134094505,
-0.5,0,1,left,1,3,2,0,2,0,1,5,13,0,,,,,,,,,567.1732182000005,567.6723644000003,568.3892077,None,567.6891016999998,568.3727100000006,568.8893748,None,left,1,568.8893748,None,None,567.6891016999998,568.8729576000005,0.5109050000000934,0.594190300000264,1.711480300000403,1.7944981000000553,0.3812659999994139,,,,,,ashley_2,001,2020_Feb_12_1028,posner,3.1.5,59.98210134094505,
-0.5,0,1,left,1,3,2,0,2,0,1,6,14,1,,,,,,,,,569.2907893000001,569.7896193000006,570.5065482999998,None,569.8062387999998,570.4898297,571.0067935000006,571.4902926000004,left,1,571.0067935000006,None,None,569.8062387999998,570.9901728000004,0.5105394000001979,0.5940503000001627,1.7110753999995723,1.7945423999999548,0.4718288999993092,,,,,,ashley_2,001,2020_Feb_12_1028,posner,3.1.5,59.98210134094505,
0.5,180,1,right,2,4,2,0,2,0,1,7,15,7,,,,,,,,,571.5080054999999,572.0070962,572.7239943000004,None,572.0236512000001,572.7072515999998,573.2238757000005,None,right,1,573.2238757000005,None,None,572.0236512000001,573.2074849999999,0.5110907999996925,0.5944536999995762,1.7114598999996815,1.794827400000031,0.3427341999995406,,,,,,ashley_2,001,2020_Feb_12_1028,posner,3.1.5,59.98210134094505,
0.5,180,1,right,2,4,2,0,2,0,2,0,16,7,,,,,,,,,573.5917376000007,574.0909510000001,574.8078510000005,None,574.1077561000002,574.7911788000001,575.3078593999999,None,right,1,575.3078593999999,None,None,574.1077561000002,575.2917484,0.511109199999737,0.5944437999996808,1.711880800000472,1.794728099999702,0.4668015999995987,,,,,,ashley_2,001,2020_Feb_12_1028,posner,3.1.5,59.98210134094505,
-0.5,0,1,left,1,3,2,0,2,0,2,1,17,1,,,,,,,,,575.792539,576.2918421000004,577.0085876000003,None,576.3082537999999,576.9919972000007,577.5086660000006,575.792539,left,1,577.5086660000006,None,None,576.3082537999999,577.4921426000001,0.5111205000002883,0.5942892000002757,1.7114025999999285,1.7945985000005749,0.3938496999999188,,,,,,ashley_2,001,2020_Feb_12_1028,posner,3.1.5,59.98210134094505,
0.5,0,0,right,1,4,2,0,2,0,2,2,18,3,,,,,,,,,577.9256237999998,578.4255871000005,579.1426527000003,None,578.4425087,579.1257750000004,579.6428850000002,None,right,1,579.6428850000002,None,None,578.4425087,579.6261283000003,0.5111116999996739,0.5945874999997613,1.7116325999995752,1.7948012999995626,0.40369039999950473,,,,,,ashley_2,001,2020_Feb_12_1028,posner,3.1.5,59.98210134094505,
0.5,180,1,right,2,4,2,0,2,0,2,3,19,5,,,,,,,,,580.0767832000001,580.5763064000002,581.2933474000001,None,580.5931490000003,581.2763713000004,581.7935844000003,None,right,1,581.7935844000003,None,None,580.5931490000003,581.7766148000001,0.5110385999996652,0.5945909000001848,1.7113265999996656,1.7948888000000807,0.31702580000001035,,,,,,ashley_2,001,2020_Feb_12_1028,posner,3.1.5,59.98210134094505,
-0.5,0,1,left,1,3,2,0,2,0,2,4,20,0,,,,,,,,,582.1278931000006,582.6269453000004,583.3439722000003,None,582.6436141000004,583.3273137000006,583.8441774000003,None,left,1,583.8441774000003,None,None,582.6436141000004,583.8272397000001,0.5109499999998661,0.5943735999999262,1.7112255000001824,1.7947407000001476,0.28244749999976193,,,,,,ashley_2,001,2020_Feb_12_1028,posner,3.1.5,59.98210134094505,
-0.5,0,1,left,1,3,2,0,2,0,2,5,21,2,,,,,,,,,584.1450531999999,584.6443558000001,585.3611664999999,None,584.6610146000003,585.3444645,585.8613383000002,None,left,1,585.8613383000002,None,None,584.6610146000003,585.8449140000002,0.5109769000000597,0.5941235999998753,1.7115176999996038,1.7946259999998802,0.4333332000005612,,,,,,ashley_2,001,2020_Feb_12_1028,posner,3.1.5,59.98210134094505,
0.5,180,1,right,2,4,2,0,2,0,2,6,22,6,,,,,,,,,586.3129354000002,586.8116550000004,587.5284501000006,None,586.8282245999999,587.5118965000001,588.0286997000003,None,right,1,588.0286997000003,None,None,586.8282245999999,588.0118805000002,0.5106223999991926,0.5939496000000872,1.7108342999999877,1.794239999999263,0.2578905999998824,,,,,,ashley_2,001,2020_Feb_12_1028,posner,3.1.5,59.98210134094505,
-0.5,180,0,left,2,3,2,0,2,0,2,7,23,4,,,,,,,,,588.3129227,588.8121686000004,589.5291543000003,None,588.8290039000003,589.5124476999999,590.0296290000006,None,left,1,590.0296290000006,None,None,588.8290039000003,590.0125171999998,0.511131000000205,0.594463800000085,1.711461199999576,1.7949621999996452,0.4409341000000495,,,,,,ashley_2,001,2020_Feb_12_1028,posner,3.1.5,59.98210134094505,
-0.5,0,1,left,1,3,2,0,2,0,3,0,24,0,,,,,,,,,590.4969440000004,590.9961179000002,591.7131681999999,None,591.0130251999999,591.6963716999999,592.2132541999999,None,left,1,592.2132541999999,None,None,591.0130251999999,592.1964783000003,0.5108962000003885,0.5944577000000208,1.7112346000003527,1.7947125000000597,0.40921890000026906,,,,,,ashley_2,001,2020_Feb_12_1028,posner,3.1.5,59.98210134094505,
0.5,0,0,right,1,4,2,0,2,0,3,1,25,3,,,,,,,,,592.6474311000002,593.1468291000001,593.8639172000003,None,593.1635524000003,593.8470891000006,594.3640337000006,None,right,1,594.3640337000006,None,None,593.1635524000003,594.3472265,0.5111479999995936,0.594552499999736,1.711526000000049,1.795054799999889,0.3945284999999785,,,,,,ashley_2,001,2020_Feb_12_1028,posner,3.1.5,59.98210134094505,
0.5,180,1,right,2,4,2,0,2,0,3,2,26,5,,,,,,,,,594.7818606999999,595.2808002000002,595.9976800000004,None,595.2976036,595.9811120000004,596.4979768000003,None,right,1,596.4979768000003,None,None,595.2976036,596.4814378000001,0.5106243000000177,0.5940780000000814,1.7112376000004588,1.7943897000004654,0.36469020000004093,,,,,,ashley_2,001,2020_Feb_12_1028,posner,3.1.5,59.98210134094505,
-0.5,0,1,left,1,3,2,0,2,0,3,3,27,1,,,,,,,,,596.8818848999999,597.3816260000003,598.0984415000003,None,597.3980729000004,598.0816573000002,598.5985660000006,None,left,1,598.5985660000006,None,None,597.3980729000004,598.5819953999999,0.511459599999398,0.5946767999994336,1.7118123000000196,1.7950522000001001,0.30385239999941405,,,,,,ashley_2,001,2020_Feb_12_1028,posner,3.1.5,59.98210134094505,
0.5,180,1,right,2,4,2,0,2,0,3,4,28,7,,,,,,,,,598.9326922,599.4322437000001,600.1490339000002,None,599.4488453000004,600.1325195,600.6491870999998,None,right,1,600.6491870999998,None,None,599.4488453000004,600.6326405999998,0.5112527000001137,0.5944106999995711,1.7116273999999976,1.794796999999562,0.41330740000012156,,,,,,ashley_2,001,2020_Feb_12_1028,posner,3.1.5,59.98210134094505,
-0.5,180,0,left,2,3,2,0,2,0,3,5,29,4,,,,,,,,,601.0836224000004,601.5827865000001,602.2997925999998,None,601.5996166000004,602.2831847000007,602.7998752000003,None,left,1,602.7998752000003,None,None,601.5996166000004,602.7833694000001,0.510971800000334,0.5943607999997766,1.711532299999817,1.7945687000001271,0.3987011999997776,,,,,,ashley_2,001,2020_Feb_12_1028,posner,3.1.5,59.98210134094505,
0.5,180,1,right,2,4,2,0,2,0,3,6,30,6,,,,,,,,,603.2178143000001,603.7169770999999,604.4338171999998,None,603.7333888000003,604.4169330000004,604.9338040000002,None,right,1,604.9338040000002,None,None,603.7333888000003,604.9171554000004,0.5112896999999066,0.5945399000001999,1.711460800000168,1.7950284999997166,0.3526742000003651,,,,,,ashley_2,001,2020_Feb_12_1028,posner,3.1.5,59.98210134094505,
-0.5,0,1,left,1,3,2,0,2,0,3,7,31,2,,,,,,,,,605.3179220000002,605.8174745000006,606.5344149000002,None,605.834124,606.5176049000002,607.0346401000006,None,left,1,607.0346401000006,None,None,605.834124,607.0177572000002,0.5110758000000715,0.5944796000003407,1.7113251000000673,1.7948171000007278,0.4118456000005608,,,,,,ashley_2,001,2020_Feb_12_1028,posner,3.1.5,59.98210134094505,
-0.5,180,0,left,2,3,2,0,2,0,4,0,32,4,,,,,,,,,607.4682959000002,607.9681639,608.6849031000002,None,607.9848667000006,608.6683524999999,609.1851872000007,None,left,1,609.1851872000007,None,None,607.9848667000006,609.1684254000002,0.5109290999998848,0.5942732000003161,1.7111777000000075,1.7947674999995797,0.4212373000000298,,,,,,ashley_2,001,2020_Feb_12_1028,posner,3.1.5,59.98210134094505,
0.5,180,1,right,2,4,2,0,2,0,4,1,33,5,,,,,,,,,609.6359406000001,610.1353651,610.8523252000005,None,610.1521753000006,610.8356511000002,611.3525852000002,None,right,1,611.3525852000002,None,None,610.1521753000006,611.335736,0.5110353999998551,0.5945662999993147,1.7113861999996516,1.7947785999995176,0.4378059000000576,,,,,,ashley_2,001,2020_Feb_12_1028,posner,3.1.5,59.98210134094505,
-0.5,0,1,left,1,3,2,0,2,0,4,2,34,2,,,,,,,,,611.8201797000002,612.3195728000001,613.0363308000005,None,612.3361180000002,613.0197183,613.5366283000003,None,left,1,613.5366283000003,None,None,612.3361180000002,613.5198528999999,0.5109737000002497,0.5944485999998506,1.711238400000184,1.7946845999995276,0.34165480000046955,,,,,,ashley_2,001,2020_Feb_12_1028,posner,3.1.5,59.98210134094505,
0.5,180,1,right,2,4,2,0,2,0,4,3,35,6,,,,,,,,,613.9049267999999,614.4036929000004,615.1203507,None,614.4201893999998,615.1037953000005,615.6204968000002,None,right,1,615.6204968000002,None,None,614.4201893999998,615.6038349,0.5107920999998896,0.5937766999995802,1.7109222999997655,1.7942959000001792,0.3061053000001266,,,,,,ashley_2,001,2020_Feb_12_1028,posner,3.1.5,59.98210134094505,
0.5,0,0,right,1,4,2,0,2,0,4,4,36,3,,,,,,,,,615.9547098000003,616.4541294999999,617.1710884000004,None,616.4707066000001,617.1543509000003,617.6711697999999,618.1546546999998,right,1,617.6711697999999,None,None,616.4707066000001,617.6545925999999,0.5112319999998363,0.5944757999996,1.7116788999992423,1.7949200999992172,0.4792766999999003,,,,,,ashley_2,001,2020_Feb_12_1028,posner,3.1.5,59.98210134094505,
0.5,180,1,right,2,4,2,0,2,0,4,5,37,7,,,,,,,,,618.1722470000004,618.6716741,619.3883543000002,None,618.6881239000004,619.3716085000005,619.8887129000004,None,right,1,619.8887129000004,None,None,618.6881239000004,619.8718429999999,0.5113463000006959,0.5945844000007128,1.7115014000000883,1.7948710999999093,0.39771899999959714,,,,,,ashley_2,001,2020_Feb_12_1028,posner,3.1.5,59.98210134094505,
-0.5,0,1,left,1,3,2,0,2,0,4,6,38,0,,,,,,,,,620.3053451000005,620.8053096000003,621.5223062000005,None,620.8221511000002,621.5055949000007,622.0225817999999,None,left,1,622.0225817999999,None,None,620.8221511000002,622.0057010999999,0.5108176000003368,0.594497500000216,1.7111918999999034,1.7947684000000663,0.39997179999954824,,,,,,ashley_2,001,2020_Feb_12_1028,posner,3.1.5,59.98210134094505,
-0.5,0,1,left,1,3,2,0,2,0,4,7,39,1,,,,,,,,,622.4405993999999,622.9396106000004,623.6561921000002,None,622.9560015000006,623.6397992000002,624.1563443000005,None,left,1,624.1563443000005,None,None,622.9560015000006,624.1398288,0.5108869999994567,0.5941041999994923,1.711080299999594,1.7944569999999658,0.38604099999975006,,,,,,ashley_2,001,2020_Feb_12_1028,posner,3.1.5,59.98210134094505,
0.5,0,0,right,1,4,2,0,2,0,5,0,40,3,,,,,,,,,624.5742187000005,625.0737463000005,625.7904583,None,625.0901540000004,625.7737087000005,626.2905883000003,None,right,1,626.2905883000003,None,None,625.0901540000004,626.273811,0.5114333999999872,0.5943489000001136,1.7114801000006992,1.7947883000006186,0.45175710000057734,,,,,,ashley_2,001,2020_Feb_12_1028,posner,3.1.5,59.98210134094505,
-0.5,0,1,left,1,3,2,0,2,0,5,1,41,2,,,,,,,,,626.7571839000002,627.2574443000003,627.9742706000006,None,627.2742494000004,627.9576461000006,628.4744107000006,None,left,1,628.4744107000006,None,None,627.2742494000004,628.4577962000003,0.5112809000002017,0.5946694000003845,1.7116013000004386,1.795100999999704,0.3080093000007764,,,,,,ashley_2,001,2020_Feb_12_1028,posner,3.1.5,59.98210134094505,
-0.5,0,1,left,1,3,2,0,2,0,5,2,42,1,,,,,,,,,628.8087075000003,629.3080831000007,630.0249305000007,None,629.3246307,630.0082175000007,630.5250583000006,None,left,1,630.5250583000006,None,None,629.3246307,630.5084498000006,0.5112584999997125,0.5948637999999846,1.7115998999997828,1.7950430999999298,0.4653924000003826,,,,,,ashley_2,001,2020_Feb_12_1028,posner,3.1.5,59.98210134094505,
-0.5,180,0,left,2,3,2,0,2,0,5,3,43,4,,,,,,,,,631.0096027999998,631.5088532999998,632.2257439000005,None,631.5252688,632.2090778000002,632.7257731,631.0096027999998,right,0,632.7257731,None,None,631.5252688,632.7090214,0.5111423999996987,0.5945357000000513,1.7112942000003386,1.7949295999997048,0.13669759999993403,,,,,,ashley_2,001,2020_Feb_12_1028,posner,3.1.5,59.98210134094505,
0.5,180,1,right,2,4,2,0,2,0,5,4,44,7,,,,,,,,,632.8931081999999,633.3927872000004,634.1096536000005,None,633.4094021000001,634.0930336000001,634.6097224000005,None,right,1,634.6097224000005,None,None,633.4094021000001,634.5931654000005,0.5112878999998429,0.594372000000476,1.7116421000000628,1.7947911999999633,0.3887795000000551,,,,,,ashley_2,001,2020_Feb_12_1028,posner,3.1.5,59.98210134094505,
0.5,180,1,right,2,4,2,0,2,0,5,5,45,5,,,,,,,,,635.0273231000001,635.5265894000004,636.2436821000001,None,635.5435120000002,636.2268153000005,636.7438876000006,None,right,1,636.7438876000006,None,None,635.5435120000002,636.7268643000007,0.5112542000006215,0.5946867000002385,1.7115137000000686,1.7951159000003827,0.3985794000000169,,,,,,ashley_2,001,2020_Feb_12_1028,posner,3.1.5,59.98210134094505,
-0.5,0,1,left,1,3,2,0,2,0,5,6,46,0,,,,,,,,,637.1614479999998,637.6607749000004,638.3773924000006,None,637.6772560999998,638.3608498000003,638.8776317000002,None,left,1,638.8776317000002,None,None,637.6772560999998,638.8609739000003,0.5110836999992898,0.5944523999996818,1.711284699999851,1.7948190999995859,0.41684669999995094,,,,,,ashley_2,001,2020_Feb_12_1028,posner,3.1.5,59.98210134094505,
0.5,180,1,right,2,4,2,0,2,0,5,7,47,6,,,,,,,,,639.3122610999999,639.8114366999998,640.5281802,None,639.8281333000004,640.5116085,641.0284105000001,641.5119967999999,right,1,641.0284105000001,None,None,639.8281333000004,641.0116419000005,0.5110089999998308,0.5943002000003617,1.7111998999998832,1.7946572999999262,0.6019913000000088,,,,,,ashley_2,001,2020_Feb_12_1028,posner,3.1.5,59.98210134094505,
-0.5,0,1,left,1,3,2,0,2,0,6,0,48,2,,,,,,,,,641.6623022000003,642.1621015000001,642.8789719000006,None,642.1788999999999,642.8622104000005,643.3790757000006,643.8626715,left,1,643.3790757000006,None,None,642.1788999999999,643.3623917000004,0.511255300000812,0.5945112000008521,1.7115327000001344,1.7947884000004706,0.5712125999998534,,,,,,ashley_2,001,2020_Feb_12_1028,posner,3.1.5,59.98210134094505,
-0.5,180,0,left,2,3,2,0,2,0,6,1,49,4,,,,,,,,,643.9799601000004,644.4796043000006,645.1962813999999,None,644.4960288000002,645.1797627000005,645.6964353000003,None,left,1,645.6964353000003,None,None,644.4960288000002,645.6798195000001,0.5111728000001676,0.5944036000000779,1.711374600000454,1.7950478000002477,0.461874199999329,,,,,,ashley_2,001,2020_Feb_12_1028,posner,3.1.5,59.98210134094505,
-0.5,0,1,left,1,3,2,0,2,0,6,2,50,0,,,,,,,,,646.1811962000002,646.6801395000002,647.3969711999998,None,646.6966749000003,647.3802900999999,647.8971259,646.1811962000002,left,1,647.8971259,None,None,646.6966749000003,647.8804355000002,0.5108325999999579,0.5945245000002615,1.7111095999998724,1.7944754999998622,0.2372691999999006,,,,,,ashley_2,001,2020_Feb_12_1028,posner,3.1.5,59.98210134094505,
0.5,180,1,right,2,4,2,0,2,0,6,3,51,6,,,,,,,,,648.1645981000001,648.6640832000003,649.3810331000004,None,648.6807626,649.3642596,649.8813678000006,None,right,1,649.8813678000006,None,None,648.6807626,649.864415,0.5110977999993338,0.5942771999998513,1.7114153999991686,1.7947373999995762,0.3009879999999612,,,,,,ashley_2,001,2020_Feb_12_1028,posner,3.1.5,59.98210134094505,
0.5,180,1,right,2,4,2,0,2,0,6,4,52,5,,,,,,,,,650.1989059000007,650.6980527000005,651.4148451000001,None,650.7145773000002,651.3982587999999,651.9149914999998,652.3984470000005,right,1,651.9149914999998,None,None,650.7145773000002,651.8983708000005,0.5113854999999603,0.594521099999838,1.7114713999999367,1.7948333000003913,0.49938190000011673,,,,,,ashley_2,001,2020_Feb_12_1028,posner,3.1.5,59.98210134094505,
0.5,0,0,right,1,4,2,0,2,0,6,5,53,3,,,,,,,,,652.4328911000002,652.9321232000002,653.6489375000001,None,652.9487815000002,653.6322982000002,654.1492853999998,654.6326749,right,1,654.1492853999998,None,None,652.9487815000002,654.1324344000004,0.510278599999765,0.593602799999644,1.7105765999995128,1.793755400000009,0.47325710000041,,,,,,ashley_2,001,2020_Feb_12_1028,posner,3.1.5,59.98210134094505,
0.5,180,1,right,2,4,2,0,2,0,6,6,54,7,,,,,,,,,654.6502694999999,655.1494749000003,655.8662110000005,None,655.1660132000006,655.8496365000001,656.3663040000001,None,right,1,656.3663040000001,None,None,655.1660132000006,656.3497858000001,0.5109721999997419,0.59434390000024,1.7112698000000819,1.7947133999996367,0.416081899999881,,,,,,ashley_2,001,2020_Feb_12_1028,posner,3.1.5,59.98210134094505,
-0.5,0,1,left,1,3,2,0,2,0,6,7,55,1,,,,,,,,,656.8011637999998,657.3000789000007,658.0169350000006,None,657.3166176000004,658.0002872000005,658.5172102000006,None,left,1,658.5172102000006,None,None,657.3166176000004,658.5004663,0.5106510999994498,0.5939766999999847,1.7110178000002634,1.794312699999864,0.3850175000006857,,,,,,ashley_2,001,2020_Feb_12_1028,posner,3.1.5,59.98210134094505,
-0.5,180,0,left,2,3,2,0,2,0,7,0,56,4,,,,,,,,,658.9184169999999,659.4173963000003,660.1342880000002,None,659.4341252000004,660.1174753000005,660.6343280000001,None,left,1,660.6343280000001,None,None,659.4341252000004,660.6179794,0.511156800000208,0.5944933000000674,1.711719500000072,1.7949425000006158,0.38790359999984503,,,,,,ashley_2,001,2020_Feb_12_1028,posner,3.1.5,59.98210134094505,
0.5,0,0,right,1,4,2,0,2,0,7,1,57,3,,,,,,,,,661.0517834000002,661.5514909000003,662.2682220000006,None,661.5680896000003,662.2516896000006,662.7683912000002,None,right,1,662.7683912000002,None,None,661.5680896000003,662.7517596000007,0.5112157000003208,0.594343800000388,1.7114705000003596,1.7947272000001249,0.37385530000028666,,,,,,ashley_2,001,2020_Feb_12_1028,posner,3.1.5,59.98210134094505,
0.5,180,1,right,2,4,2,0,2,0,7,2,58,7,,,,,,,,,663.1695840000002,663.6687123000002,664.3854379000004,None,663.685324,664.3689970000005,664.8857566000006,None,right,1,664.8857566000006,None,None,663.685324,664.8691480000007,0.5109914999993634,0.5942819000001691,1.7114056000000346,1.7947354999996605,0.29664209999918967,,,,,,ashley_2,001,2020_Feb_12_1028,posner,3.1.5,59.98210134094505,
-0.5,0,1,left,1,3,2,0,2,0,7,3,59,2,,,,,,,,,665.2034573999999,665.7032360000003,666.4193758000001,None,665.7194549000005,666.4029712000001,666.9197908000006,None,left,1,666.9197908000006,None,None,665.7194549000005,666.9031537000001,0.5114525999997568,0.5943532999999661,1.711349600000176,1.794571299999916,0.38265060000048834,,,,,,ashley_2,001,2020_Feb_12_1028,posner,3.1.5,59.98210134094505,
-0.5,0,1,left,1,3,2,0,2,0,7,4,60,1,,,,,,,,,667.3210219000002,667.8200861000005,668.5368365000004,None,667.8366162000002,668.5201199000003,669.0370903000003,None,left,1,669.0370903000003,None,None,667.8366162000002,669.0204219000007,0.5106771999999182,0.5937942999998995,1.7110071999995853,1.7944783000002644,0.41717249999965134,,,,,,ashley_2,001,2020_Feb_12_1028,posner,3.1.5,59.98210134094505,
-0.5,0,1,left,1,3,2,0,2,0,7,5,61,0,,,,,,,,,669.4712153999999,669.9707432000005,670.6874089000003,None,669.9872076000001,670.6709486,671.1878852,None,left,1,671.1878852,None,None,669.9872076000001,671.1710741000006,0.5108666999994966,0.5940801999995529,1.7111793999993097,1.7946069999998144,0.38641830000051414,,,,,,ashley_2,001,2020_Feb_12_1028,posner,3.1.5,59.98210134094505,
0.5,180,1,right,2,4,2,0,2,0,7,6,62,6,,,,,,,,,671.6049128000004,672.1046221000006,672.8214176000001,None,672.1213083000002,672.8048669999998,673.3217589000005,None,right,1,673.3217589000005,None,None,672.1213083000002,673.3048996000007,0.5111956999999165,0.5948435000000245,1.7114587000005486,1.7949167000006128,0.4285371000005398,,,,,,ashley_2,001,2020_Feb_12_1028,posner,3.1.5,59.98210134094505,
0.5,180,1,right,2,4,2,0,2,0,7,7,63,5,,,,,,,,,673.7728553000006,674.2718936000001,674.9889094999999,None,674.2885718000007,674.9721593000004,675.4888907000004,None,right,1,675.4888907000004,None,None,674.2885718000007,675.4723855000002,0.5106995999994979,0.5937153999993825,1.7111692999997103,1.7948108000000502,0.45340010000018083,,,,,,ashley_2,001,2020_Feb_12_1028,posner,3.1.5,59.98210134094505,
-0.5,0,1,left,1,3,2,0,2,0,8,0,64,2,,,,,,,,,675.9730288000001,676.4728400000004,677.1896206000001,None,676.489184,677.1730580000003,677.6898022000005,675.9730288000001,left,1,677.6898022000005,None,None,676.489184,677.6730904000005,0.5112122999998974,0.5942694000004849,1.7114451000006738,1.7946546000002854,0.34869549999984883,,,,,,ashley_2,001,2020_Feb_12_1028,posner,3.1.5,59.98210134094505,
-0.5,0,1,left,1,3,2,0,2,0,8,1,65,0,,,,,,,,,678.0577222000002,678.5566018,679.2737440999999,None,678.5734201000005,679.2567960000006,679.7737019000006,None,left,1,679.7737019000006,None,None,678.5734201000005,679.7570001000004,0.510830299999725,0.5941560999999638,1.7112021000002642,1.794694299999719,0.4167170000000624,,,,,,ashley_2,001,2020_Feb_12_1028,posner,3.1.5,59.98210134094505,
0.5,0,0,right,1,4,2,0,2,0,8,2,66,3,,,,,,,,,680.2086042000001,680.7078894000006,681.4243526,None,680.7240092000002,681.4075158000005,681.9242952000004,None,right,1,681.9242952000004,None,None,680.7240092000002,681.9077230000003,0.5115428999997675,0.5944516999998086,1.7113605999993524,1.7948311999998623,0.3858764999995401,,,,,,ashley_2,001,2020_Feb_12_1028,posner,3.1.5,59.98210134094505,
-0.5,180,0,left,2,3,2,0,2,0,8,3,67,4,,,,,,,,,682.3416520000001,682.8414437000001,683.5581861000001,None,682.8579920000002,683.5416882,684.0584377000005,None,left,1,684.0584377000005,None,None,682.8579920000002,684.0416114,0.5111090999998851,0.5941362999992634,1.7112612999999328,1.7947395000001052,0.347931499999504,,,,,,ashley_2,001,2020_Feb_12_1028,posner,3.1.5,59.98210134094505,
-0.5,0,1,left,1,3,2,0,2,0,8,4,68,1,,,,,,,,,684.4263349000003,684.9252542000004,685.6423577000005,None,684.9419434000001,685.6254452000003,686.1424972000004,None,left,1,686.1424972000004,None,None,684.9419434000001,686.1256272999999,0.5107367999999042,0.5940496000002895,1.7110873000001448,1.7946038000000044,0.35980970000036905,,,,,,ashley_2,001,2020_Feb_12_1028,posner,3.1.5,59.98210134094505,
0.5,180,1,right,2,4,2,0,2,0,8,5,69,5,,,,,,,,,686.5266650000003,687.0258147000004,687.7428736000002,None,687.0428495000006,687.7260718000007,688.2431995000006,688.7263469999998,right,1,688.2431995000006,None,None,687.0428495000006,688.2263099000002,0.5109396999996534,0.5943749999996726,1.7114152999993166,1.7947838000000047,0.6269962000005762,,,,,,ashley_2,001,2020_Feb_12_1028,posner,3.1.5,59.98210134094505,
0.5,180,1,right,2,4,2,0,2,0,8,6,70,7,,,,,,,,,688.8944756999999,689.3935016000005,690.1103223999999,None,689.4101029000003,690.0935598000005,690.6105708000005,None,right,1,690.6105708000005,None,None,689.4101029000003,690.5938741999998,0.5109430000002249,0.5940705000002708,1.7112967000002755,1.7943452999998044,0.42760829999951966,,,,,,ashley_2,001,2020_Feb_12_1028,posner,3.1.5,59.98210134094505,
