targetX,cueOri,congr,corrAns,pin_cue,pin_target,block.thisRepN,block.thisTrialN,block.thisN,block.thisIndex,posner_task.thisRepN,posner_task.thisTrialN,posner_task.thisN,posner_task.thisIndex,port_start_block.started,port_start_block.stopped,text_2.started,text_2.stopped,p_port.started,p_port.stopped,text.started,text.stopped,fixation_1.started,fixation_1.stopped,fixation_2.started,fixation_2.stopped,cue.started,cue.stopped,target.started,target.stopped,correct_key_resp.keys,correct_key_resp.corr,correct_key_resp.started,correct_key_resp.stopped,early_resp.keys,early_resp.started,early_resp.stopped,trigger_cue.started,trigger_cue.stopped,trigger_target.started,trigger_target.stopped,correct_key_resp.rt,early_resp.rt,break_text.started,break_text.stopped,end_port.started,end_port.stopped,participant,session,date,expName,psychopyVersion,frameRate,
0.5,180,1,right,2,4,0,0,0,0,0,0,0,7,1.7800000023271423e-05,0.10141810000004625,27.400032499999725,None,1.4500000361294951e-05,0.09959739999976591,29.286001999999826,None,29.58900040000026,30.087144099999932,30.804624700000204,None,30.10357279999971,30.788128700000016,31.30516819999957,31.789545699999508,None,0,31.30516819999957,None,None,30.10357279999971,31.288537200000064,0.5078197000002547,0.5911518000002616,1.7091967000005752,1.7928292000005968,,,,,,,priya_2,001,2020_Feb_14_1220,posner,3.1.5,59.96027032480449,
0.5,180,1,right,2,4,0,0,0,0,0,1,1,5,,,,,,,,,32.07304860000022,32.57370059999994,33.29128729999957,None,32.590589600000385,33.274924600000304,33.79221510000025,None,right,1,33.79221510000025,None,None,32.590589600000385,33.77548360000037,0.5147471000000223,0.5984551000001375,1.7165177999995649,1.7999575999992885,0.43721220000043104,,,,,,priya_2,001,2020_Feb_14_1220,posner,3.1.5,59.96027032480449,
-0.5,0,1,left,1,3,0,0,0,0,0,2,2,2,,,,,,,,,34.259835799999564,34.76008829999955,35.47789780000039,None,34.7768659000003,35.46123220000027,35.97847920000004,None,left,1,35.97847920000004,None,None,34.7768659000003,35.96177819999957,0.5114710999996532,0.5949479000000792,1.7131517999996504,1.796514799999386,0.32303440000032424,,,,,,priya_2,001,2020_Feb_14_1220,posner,3.1.5,59.96027032480449,
-0.5,0,1,left,1,3,0,0,0,0,0,3,3,0,,,,,,,,,36.329833300000246,36.829816200000096,37.54729090000001,None,36.846282299999984,37.53051549999964,38.047851100000116,None,left,1,38.047851100000116,None,None,36.846282299999984,38.03151590000016,0.5116127999999662,0.594734199999948,1.7133011999994778,1.7966231999998854,0.4135846999997739,,,,,,priya_2,001,2020_Feb_14_1220,posner,3.1.5,59.96027032480449,
-0.5,0,1,left,1,3,0,0,0,0,0,4,4,1,,,,,,,,,38.48205010000038,38.9826522000003,39.700424399999974,None,38.9994772,39.6834686000002,40.20095760000004,None,left,1,40.20095760000004,None,None,38.9994772,40.18407139999999,0.5123935000001438,0.595755199999985,1.713784300000043,1.7974075000001903,0.3804780000000392,,,,,,priya_2,001,2020_Feb_14_1220,posner,3.1.5,59.96027032480449,
0.5,180,1,right,2,4,0,0,0,0,0,5,5,6,,,,,,,,,40.60221189999993,41.102138999999625,41.81994339999983,None,41.11879829999998,41.80304729999989,42.32045629999993,None,right,1,42.32045629999993,None,None,41.11879829999998,42.3038231999999,0.5114521999994395,0.5947868999992352,1.7131288999999015,1.7964138999996067,0.3490798000002542,,,,,,priya_2,001,2020_Feb_14_1220,posner,3.1.5,59.96027032480449,
-0.5,180,0,left,2,3,0,0,0,0,0,6,6,4,,,,,,,,,42.68852909999987,43.188226600000235,43.9061314999999,None,43.20493540000007,43.88947840000037,44.40659070000038,None,left,1,44.40659070000038,None,None,43.20493540000007,44.390285100000256,0.5112405999998373,0.5950659000000087,1.7132773000002999,1.7964648999995916,0.31886410000061005,,,,,,priya_2,001,2020_Feb_14_1220,posner,3.1.5,59.96027032480449,
0.5,0,0,right,1,4,0,0,0,0,0,7,7,3,,,,,,,,,44.757286199999726,45.2580183,45.975421899999674,None,45.27487209999981,45.95913139999993,46.476357599999574,None,right,1,46.476357599999574,None,None,45.27487209999981,46.4596418000001,0.5125069999994594,0.5958304999994652,1.714101099999425,1.7974715999998807,0.3530198999997083,,,,,,priya_2,001,2020_Feb_14_1220,posner,3.1.5,59.96027032480449,
0.5,180,1,right,2,4,0,0,0,0,1,0,8,5,,,,,,,,,46.86038279999957,47.36079710000013,48.07852019999973,None,47.37748879999981,48.06201489999967,48.579257000000325,None,right,1,48.579257000000325,None,None,47.37748879999981,48.56238370000028,0.5116347000002861,0.5949319999999716,1.713206899999932,1.7967097999999169,0.3861980000001495,,,,,,priya_2,001,2020_Feb_14_1220,posner,3.1.5,59.96027032480449,
-0.5,0,1,left,1,3,0,0,0,0,1,1,9,1,,,,,,,,,48.99684470000011,49.497271700000056,50.21448679999958,None,49.51357449999978,50.19811169999957,50.715355100000124,None,left,1,50.715355100000124,None,None,49.51357449999978,50.698664100000315,0.5117640999997093,0.5952798999996958,1.7131289999997534,1.7966559999995297,0.25810889999957,,,,,,priya_2,001,2020_Feb_14_1220,posner,3.1.5,59.96027032480449,
0.5,0,0,right,1,4,0,0,0,0,1,2,10,3,,,,,,,,,50.99969870000041,51.49996310000006,52.21747899999991,None,51.516610099999525,52.20080479999979,52.718251500000406,None,right,1,52.718251500000406,None,None,51.516610099999525,52.70174330000009,0.5118099000001166,0.5950480000001335,1.7135805999996592,1.796804699999484,0.32724710000002233,,,,,,priya_2,001,2020_Feb_14_1220,posner,3.1.5,59.96027032480449,
-0.5,0,1,left,1,3,0,0,0,0,1,3,11,2,,,,,,,,,53.069372300000396,53.56931150000037,54.28711990000011,None,53.585928200000126,54.27073829999972,54.78765289999956,None,left,1,54.78765289999956,None,None,53.585928200000126,54.77133179999964,0.5114274999996269,0.5947718999996141,1.71343700000034,1.7963986000004297,0.23379300000033254,,,,,,priya_2,001,2020_Feb_14_1220,posner,3.1.5,59.96027032480449,
-0.5,0,1,left,1,3,0,0,0,0,1,4,12,0,,,,,,,,,55.03895149999971,55.538763599999584,56.25644959999954,None,55.555509699999675,56.2396947999996,56.75698850000026,57.241012299999966,left,1,56.75698850000026,None,None,55.555509699999675,56.740253899999516,0.5113787999998749,0.5947931000000608,1.7128462000000582,1.7964068999999654,0.5604652000001806,,,,,,priya_2,001,2020_Feb_14_1220,posner,3.1.5,59.96027032480449,
0.5,180,1,right,2,4,0,0,0,0,1,5,13,6,,,,,,,,,57.3415358000002,57.84189869999955,58.55963210000027,None,57.858563400000094,58.542581300000165,59.06032359999972,None,right,1,59.06032359999972,None,None,57.858563400000094,59.04347289999987,0.511819800000012,0.5949813999995968,1.7133794999999736,1.7972454000000653,0.38507079999999405,,,,,,priya_2,001,2020_Feb_14_1220,posner,3.1.5,59.96027032480449,
-0.5,180,0,left,2,3,0,0,0,0,1,6,14,4,,,,,,,,,59.461294499999894,59.961713699999564,60.679319300000316,None,59.978159199999936,60.662531500000114,61.18000759999995,None,left,1,61.18000759999995,None,None,59.978159199999936,61.163200799999686,0.5119943000008789,0.5951228000003539,1.713467500000661,1.7968541000000187,0.353271400000267,,,,,,priya_2,001,2020_Feb_14_1220,posner,3.1.5,59.96027032480449,
0.5,180,1,right,2,4,0,0,0,0,1,7,15,7,,,,,,,,,61.56384849999995,62.06435659999988,62.782001700000365,None,62.0811491000004,62.7653035000003,63.28266359999998,None,right,1,63.28266359999998,None,None,62.0811491000004,63.26608589999978,0.5121182000002591,0.5956955999999991,1.713850099999945,1.7973083999995652,0.13871610000023793,,,,,,priya_2,001,2020_Feb_14_1220,posner,3.1.5,59.96027032480449,
-0.5,180,0,left,2,3,0,0,0,0,2,0,16,4,,,,,,,,,63.44982559999971,63.950407799999994,64.6680237999999,None,63.9671828999999,64.65141119999953,65.16868020000038,None,left,1,65.16868020000038,None,None,63.9671828999999,65.15201520000028,0.5118003000006865,0.5950147000003199,1.7133945000005042,1.7967642000003252,0.364646800000628,,,,,,priya_2,001,2020_Feb_14_1220,posner,3.1.5,59.96027032480449,
0.5,0,0,right,1,4,0,0,0,0,2,1,17,3,,,,,,,,,65.55334930000026,66.05308960000002,66.77119089999997,None,66.07009190000008,66.75406659999953,67.27199970000038,None,right,1,67.27199970000038,None,None,66.07009190000008,67.25499490000038,0.5113492999998925,0.5948442999997496,1.7132329999994909,1.796482200000355,0.39766659999986587,,,,,,priya_2,001,2020_Feb_14_1220,posner,3.1.5,59.96027032480449,
0.5,180,1,right,2,4,0,0,0,0,2,2,18,5,,,,,,,,,67.69000340000002,68.1895698999997,68.90725519999978,None,68.20626579999953,68.89055730000018,69.40796330000012,None,right,1,69.40796330000012,None,None,68.20626579999953,69.39134829999966,0.511130900000353,0.5947491000006266,1.7128953999999794,1.7960335000007035,0.45352619999994204,,,,,,priya_2,001,2020_Feb_14_1220,posner,3.1.5,59.96027032480449,
-0.5,0,1,left,1,3,0,0,0,0,2,3,19,1,,,,,,,,,69.89193410000007,70.39250579999953,71.1100720000004,None,70.40925570000036,71.09354400000029,71.61092139999982,72.09475769999972,left,1,71.61092139999982,None,None,70.40925570000036,71.5939128,0.5118111000001591,0.5954652999998871,1.7132054000003336,1.7970396999999139,0.5383725000001505,,,,,,priya_2,001,2020_Feb_14_1220,posner,3.1.5,59.96027032480449,
0.5,180,1,right,2,4,0,0,0,0,2,4,20,7,,,,,,,,,72.17887979999978,72.67908350000016,73.39691049999965,None,72.69563469999957,73.38012150000031,73.8972920999995,None,right,1,73.8972920999995,None,None,72.69563469999957,73.88069079999968,0.5115652000004047,0.5948001000006116,1.7131529000007504,1.7963371000005282,0.33217640000020765,,,,,,priya_2,001,2020_Feb_14_1220,posner,3.1.5,59.96027032480449,
-0.5,0,1,left,1,3,0,0,0,0,2,5,21,2,,,,,,,,,74.24874790000013,74.74842369999988,75.46651930000007,None,74.76515000000018,75.44941670000026,75.9671570999999,76.4508138000001,left,1,75.9671570999999,None,None,74.76515000000018,75.95014309999988,0.5112280000003011,0.5947335000000749,1.7129338000004282,1.7963527000001704,0.5341187000003629,,,,,,priya_2,001,2020_Feb_14_1220,posner,3.1.5,59.96027032480449,
0.5,180,1,right,2,4,0,0,0,0,2,6,22,6,,,,,,,,,76.51827429999958,77.01830940000036,77.73595039999964,None,77.03490239999974,77.7193201,78.23674279999977,78.72076800000013,right,1,78.23674279999977,None,None,77.03490239999974,78.22016110000004,0.5114385000006223,0.5949313000000984,1.7132635000007213,1.7962382000005164,0.520721500000036,,,,,,priya_2,001,2020_Feb_14_1220,posner,3.1.5,59.96027032480449,
-0.5,0,1,left,1,3,0,0,0,0,2,7,23,0,,,,,,,,,78.78765860000021,79.28818359999968,80.00562480000008,None,79.3045847000003,79.98928309999974,80.50677300000007,None,left,1,80.50677300000007,None,None,79.3045847000003,80.48991219999971,0.5117908000001989,0.5951137000001836,1.7134992999999668,1.7967898000006244,0.3306316999996852,,,,,,priya_2,001,2020_Feb_14_1220,posner,3.1.5,59.96027032480449,
-0.5,0,1,left,1,3,0,0,0,0,3,0,24,0,,,,,,,,,80.85772439999982,81.35759330000019,82.07515009999952,None,81.37413449999985,82.05866539999988,82.57574159999967,83.06003210000017,left,1,82.57574159999967,None,None,81.37413449999985,82.55907709999974,0.511298600000373,0.594745100000182,1.7127675000001545,1.7963587000003827,0.5578052000000753,,,,,,priya_2,001,2020_Feb_14_1220,posner,3.1.5,59.96027032480449,
-0.5,0,1,left,1,3,0,0,0,0,3,1,25,1,,,,,,,,,83.16086739999992,83.66085039999962,84.37837839999975,None,83.67743900000005,84.36172530000022,84.8793654000001,None,left,1,84.8793654000001,None,None,83.67743900000005,84.86252630000035,0.5116459000000759,0.5949055999999473,1.7133051999999225,1.7966485999995712,0.4458752000000459,,,,,,priya_2,001,2020_Feb_14_1220,posner,3.1.5,59.96027032480449,
0.5,180,1,right,2,4,0,0,0,0,3,2,26,5,,,,,,,,,85.34763910000038,85.84724300000016,86.56480099999953,None,85.86388530000022,86.54828799999996,87.06544740000027,None,right,1,87.06544740000027,None,None,85.86388530000022,87.0486761000002,0.5112980000003517,0.5946079000004829,1.712717700000212,1.7963896999999633,0.41990249999980733,,,,,,priya_2,001,2020_Feb_14_1220,posner,3.1.5,59.96027032480449,
0.5,180,1,right,2,4,0,0,0,0,3,3,27,6,,,,,,,,,87.51676820000012,88.01672010000038,88.73439589999998,None,88.03348180000012,88.71788930000002,89.2350279000002,89.71929689999979,right,1,89.2350279000002,None,None,88.03348180000012,89.21834959999978,0.5113327000008212,0.5948024000008445,1.7129306000006181,1.7965642000008302,0.47436589999961143,,,,,,priya_2,001,2020_Feb_14_1220,posner,3.1.5,59.96027032480449,
0.5,0,0,right,1,4,0,0,0,0,3,4,28,3,,,,,,,,,89.73607509999965,90.23656940000001,90.95412440000018,None,90.25320749999992,90.93755979999969,91.45487979999962,None,right,1,91.45487979999962,None,None,90.25320749999992,91.43828010000016,0.5122164000003977,0.5956710000000385,1.7139049000006708,1.7972198000006756,0.4065078000003268,,,,,,priya_2,001,2020_Feb_14_1220,posner,3.1.5,59.96027032480449,
-0.5,180,0,left,2,3,0,0,0,0,3,5,29,4,,,,,,,,,91.88957500000015,92.38946289999967,93.10712469999999,None,92.40620779999972,93.09047159999955,93.60795899999994,94.09204219999992,left,1,93.60795899999994,None,None,92.40620779999972,93.59101689999989,0.511586200000238,0.5949365000005855,1.7131344999997964,1.7965656000005765,0.4774108999999953,,,,,,priya_2,001,2020_Feb_14_1220,posner,3.1.5,59.96027032480449,
0.5,180,1,right,2,4,0,0,0,0,3,6,30,7,,,,,,,,,94.1093020999997,94.60924909999994,95.32700870000008,None,94.62601280000035,95.31027770000037,95.82775880000008,None,right,1,95.82775880000008,None,None,94.62601280000035,95.81087240000033,0.5114354000006642,0.5949088000006668,1.713046800000484,1.7963971999997739,0.35349329999917245,,,,,,priya_2,001,2020_Feb_14_1220,posner,3.1.5,59.96027032480449,
-0.5,0,1,left,1,3,0,0,0,0,3,7,31,2,,,,,,,,,96.2120144999999,96.71201229999951,97.42988940000032,None,96.72885529999985,97.41293239999959,97.93042080000032,None,left,1,97.93042080000032,None,None,96.72885529999985,97.91359949999969,0.5113340999996581,0.5947798999995939,1.7129052999998748,1.7966659000003347,0.41094520000024204,,,,,,priya_2,001,2020_Feb_14_1220,posner,3.1.5,59.96027032480449,
-0.5,0,1,left,1,3,0,0,0,0,4,0,32,0,,,,,,,,,98.36540520000017,98.86480380000012,99.58258310000019,None,98.88191050000023,99.56593220000013,100.08326959999977,100.56749169999966,left,1,100.08326959999977,None,None,98.88191050000023,100.06668590000027,0.511169799999152,0.5949055999999473,1.7130317999999534,1.796429499999249,0.5299779999995735,,,,,,priya_2,001,2020_Feb_14_1220,posner,3.1.5,59.96027032480449,
-0.5,0,1,left,1,3,0,0,0,0,4,1,33,1,,,,,,,,,100.63481640000009,101.1347581,101.85235310000007,None,101.15159969999968,101.83565770000041,102.35316299999977,102.83728580000025,left,1,102.35316299999977,None,None,101.15159969999968,102.33646700000008,0.5116141999997126,0.5950366999995822,1.7132943999995405,1.797125899999628,0.5400613000001613,,,,,,priya_2,001,2020_Feb_14_1220,posner,3.1.5,59.96027032480449,
-0.5,0,1,left,1,3,0,0,0,0,4,2,34,2,,,,,,,,,102.92114419999962,103.4215551999996,104.13889180000024,None,103.43792349999967,104.12216979999994,104.63966890000029,None,left,1,104.63966890000029,None,None,103.43792349999967,104.62281770000027,0.5119954000001599,0.5950336000005336,1.7132560000000012,1.7969369000002189,0.4215972000001784,,,,,,priya_2,001,2020_Feb_14_1220,posner,3.1.5,59.96027032480449,
0.5,180,1,right,2,4,0,0,0,0,4,3,35,5,,,,,,,,,105.09063760000026,105.59104969999953,106.3086975999995,None,105.60774299999957,106.29183199999989,106.8092458000001,None,right,1,106.8092458000001,None,None,105.60774299999957,106.79262629999994,0.5117098999999143,0.5949416000003112,1.7132702000008067,1.7967963000000964,0.31602590000056807,,,,,,priya_2,001,2020_Feb_14_1220,posner,3.1.5,59.96027032480449,
0.5,180,1,right,2,4,0,0,0,0,4,4,36,6,,,,,,,,,107.14405239999996,107.6437791999997,108.3615006,None,107.66053170000032,108.3445273999996,108.86224000000038,None,right,1,108.86224000000038,None,None,107.66053170000032,108.84562079999978,0.5116991999993843,0.5952919999999722,1.7135215999996944,1.7967825999994602,0.4471325999993496,,,,,,priya_2,001,2020_Feb_14_1220,posner,3.1.5,59.96027032480449,
-0.5,180,0,left,2,3,0,0,0,0,4,5,37,4,,,,,,,,,109.33033580000028,109.83036939999965,110.54788740000004,None,109.84694239999953,110.5312759999997,111.04844880000019,None,left,1,111.04844880000019,None,None,109.84694239999953,111.03194619999977,0.511751799999729,0.5948915999997553,1.7132971999999427,1.7965582999995604,0.4688151000000289,,,,,,priya_2,001,2020_Feb_14_1220,posner,3.1.5,59.96027032480449,
0.5,180,1,right,2,4,0,0,0,0,4,6,38,7,,,,,,,,,111.53282490000038,112.03325500000028,112.75100039999961,None,112.04990999999973,112.73417489999974,113.25145679999969,111.53282490000038,right,1,113.25145679999969,None,None,112.04990999999973,113.23468700000012,0.5118087000000742,0.5953042000001005,1.7132273000006535,1.7961393000005046,0.4418975999997201,,,,,,priya_2,001,2020_Feb_14_1220,posner,3.1.5,59.96027032480449,
0.5,0,0,right,1,4,0,0,0,0,4,7,39,3,,,,,,,,,113.71892200000002,114.2196358000001,114.93713670000034,None,114.23625939999965,114.92057899999963,115.43791119999969,115.92183380000006,right,1,115.43791119999969,None,None,114.23625939999965,115.42145660000006,0.5118814999996175,0.5953028000003542,1.713684999999714,1.796815499999866,0.4714527999994971,,,,,,priya_2,001,2020_Feb_14_1220,posner,3.1.5,59.96027032480449,
-0.5,180,0,left,2,3,0,0,0,0,5,0,40,4,,,,,,,,,115.93874679999954,116.4394983000002,117.15680189999966,None,116.4561991999999,117.14020540000001,117.65765199999987,118.14146869999968,left,1,117.65765199999987,None,None,116.4561991999999,117.64090120000037,0.5117245000001276,0.5948384000002989,1.7131168000005346,1.796416400000453,0.5396637000003466,,,,,,priya_2,001,2020_Feb_14_1220,posner,3.1.5,59.96027032480449,
-0.5,0,1,left,1,3,0,0,0,0,5,1,41,0,,,,,,,,,118.2253598999996,118.72564039999997,119.4432882000001,None,118.74229540000033,119.42699600000014,119.94395970000005,120.42805440000029,right,0,119.94395970000005,None,None,118.74229540000033,119.92737719999968,0.5113672000006773,0.5950167000000874,1.7131061000000045,1.7966660000001866,0.6371794000006048,,,,,,priya_2,001,2020_Feb_14_1220,posner,3.1.5,59.96027032480449,
-0.5,0,1,left,1,3,0,0,0,0,5,2,42,1,,,,,,,,,120.61242680000032,121.11253870000019,121.83031479999954,None,121.12924949999979,121.81336959999953,122.33074029999989,None,left,1,122.33074029999989,None,None,121.12924949999979,122.31392950000009,0.5113866000001508,0.594776400000228,1.7127699000002394,1.7962340000003678,0.3144806000000244,,,,,,priya_2,001,2020_Feb_14_1220,posner,3.1.5,59.96027032480449,
0.5,180,1,right,2,4,0,0,0,0,5,3,43,7,,,,,,,,,122.66464900000028,123.16509250000036,123.88276299999961,None,123.18177649999961,123.86627390000012,124.38332460000038,None,right,1,124.38332460000038,None,None,123.18177649999961,124.36689750000005,0.5117791000002399,0.5954090000004726,1.7135751000005257,1.7969297999998162,0.3740649999999732,,,,,,priya_2,001,2020_Feb_14_1220,posner,3.1.5,59.96027032480449,
0.5,180,1,right,2,4,0,0,0,0,5,4,44,5,,,,,,,,,124.78496499999983,125.28463240000019,126.00238619999982,None,125.30133620000015,125.98569479999969,126.50300330000027,None,right,1,126.50300330000027,None,None,125.30133620000015,126.48649490000025,0.5112538999992466,0.594763399999465,1.7130993000000672,1.7965130999991743,0.4142296999998507,,,,,,priya_2,001,2020_Feb_14_1220,posner,3.1.5,59.96027032480449,
0.5,0,0,right,1,4,0,0,0,0,5,5,45,3,,,,,,,,,126.93775339999956,127.43764170000031,128.15542800000003,None,127.45426310000039,128.1385446000004,128.65609119999954,None,right,1,128.65609119999954,None,None,127.45426310000039,128.63927799999965,0.5113305000004402,0.5947817000005671,1.7129562000000078,1.79644879999978,0.38924739999947633,,,,,,priya_2,001,2020_Feb_14_1220,posner,3.1.5,59.96027032480449,
-0.5,0,1,left,1,3,0,0,0,0,5,6,46,2,,,,,,,,,129.0738277999999,129.57382880000023,130.29169449999972,None,129.59084520000033,130.27514280000014,130.79240240000036,131.27640780000002,left,1,130.79240240000036,None,None,129.59084520000033,130.77574370000002,0.5114264999992884,0.5951146999996126,1.7133325999993758,1.7968007999998008,0.7009334999993371,,,,,,priya_2,001,2020_Feb_14_1220,posner,3.1.5,59.96027032480449,
0.5,180,1,right,2,4,0,0,0,0,5,7,47,6,,,,,,,,,131.5104898999998,132.0106354999998,132.72856990000037,None,132.02754920000007,132.71171779999986,133.2292238,None,right,1,133.2292238,None,None,132.02754920000007,133.21215940000002,0.5117473000000246,0.595057700000325,1.7132623999996213,1.796889999999621,0.37598330000037095,,,,,,priya_2,001,2020_Feb_14_1220,posner,3.1.5,59.96027032480449,
-0.5,0,1,left,1,3,0,0,0,0,6,0,48,0,,,,,,,,,133.62990720000016,134.13046419999955,134.84772199999952,None,134.14706709999973,134.83127160000004,135.34870169999976,None,left,1,135.34870169999976,None,None,134.14706709999973,135.33173979999992,0.5118933999992805,0.5950184999992416,1.7131436999998186,1.7966634999993403,0.3206075999996756,,,,,,priya_2,001,2020_Feb_14_1220,posner,3.1.5,59.96027032480449,
0.5,0,0,right,1,4,0,0,0,0,6,1,49,3,,,,,,,,,135.69946079999954,136.19962339999984,136.9175427,None,136.21664069999952,136.9009334000002,137.41816730000028,None,right,1,137.41816730000028,None,None,136.21664069999952,137.40164920000007,0.5114104000003863,0.5948407000005318,1.713419800000338,1.7965005000005476,0.3390135999998165,,,,,,priya_2,001,2020_Feb_14_1220,posner,3.1.5,59.96027032480449,
0.5,180,1,right,2,4,0,0,0,0,6,2,50,7,,,,,,,,,137.78577570000016,138.2859129999997,139.00357299999996,None,138.30265959999997,138.98708819999956,139.5043708000003,None,right,1,139.5043708000003,None,None,138.30265959999997,139.4876881,0.5114966999999524,0.5950268999995387,1.7132282000002306,1.7966119000002436,0.41278670000065176,,,,,,priya_2,001,2020_Feb_14_1220,posner,3.1.5,59.96027032480449,
-0.5,0,1,left,1,3,0,0,0,0,6,3,51,2,,,,,,,,,139.9390395999999,140.4392872999997,141.15667699999995,None,140.4557208999995,141.1400163999997,141.6573896,None,left,1,141.6573896,None,None,140.4557208999995,141.6406010999999,0.5117243000004237,0.5948453000000882,1.713030300000355,1.7965340000000651,0.33189949999996315,,,,,,priya_2,001,2020_Feb_14_1220,posner,3.1.5,59.96027032480449,
-0.5,0,1,left,1,3,0,0,0,0,6,4,52,1,,,,,,,,,142.00851280000006,142.50853860000007,143.22648329999993,None,142.5251704000002,143.20944239999972,143.7269481000003,144.21081369999956,left,1,143.7269481000003,None,None,142.5251704000002,143.71019689999957,0.5115590000004886,0.5949674000003142,1.7132029000003968,1.7965008000001035,0.47839829999975336,,,,,,priya_2,001,2020_Feb_14_1220,posner,3.1.5,59.96027032480449,
0.5,180,1,right,2,4,0,0,0,0,6,5,53,6,,,,,,,,,144.22846300000037,144.72850769999968,145.44590789999984,None,144.74462440000025,145.4292835999995,145.9465755000001,None,right,1,145.9465755000001,None,None,144.74462440000025,145.93001709999953,0.5117980999993961,0.5950575999995635,1.7132903000001534,1.796488999999383,0.2586164000003919,,,,,,priya_2,001,2020_Feb_14_1220,posner,3.1.5,59.96027032480449,
-0.5,180,0,left,2,3,0,0,0,0,6,6,54,4,,,,,,,,,146.23098159999972,146.7311049,147.44856770000024,None,146.74761810000018,147.43200969999998,147.94933020000008,None,left,1,147.94933020000008,None,None,146.74761810000018,147.93258570000035,0.5118668999994043,0.5951525000000402,1.7133217999999033,1.7967431999995824,0.44788840000001073,,,,,,priya_2,001,2020_Feb_14_1220,posner,3.1.5,59.96027032480449,
0.5,180,1,right,2,4,0,0,0,0,6,7,55,5,,,,,,,,,148.41759019999972,148.91751579999982,149.63493469999958,None,148.93370589999995,149.6181518000003,150.1355196000004,150.61966959999972,right,1,150.1355196000004,None,None,148.93370589999995,150.1189290000002,0.5115281999997023,0.5946353999997882,1.7129264000004696,1.7963935999996465,0.5017545000000609,,,,,,priya_2,001,2020_Feb_14_1220,posner,3.1.5,59.96027032480449,
-0.5,0,1,left,1,3,0,0,0,0,7,0,56,0,,,,,,,,,150.65337009999985,151.15379829999983,151.87144720000015,None,151.17067899999984,151.8544512999997,152.37205809999978,None,left,1,152.37205809999978,None,None,151.17067899999984,152.35550189999958,0.5117276000000857,0.5951630999998088,1.713420799999767,1.7968197000000146,0.32115349999912723,,,,,,priya_2,001,2020_Feb_14_1220,posner,3.1.5,59.96027032480449,
-0.5,0,1,left,1,3,0,0,0,0,7,1,57,1,,,,,,,,,152.72301049999987,153.22318329999962,153.94089840000015,None,153.24002259999997,153.9242938999996,154.44162039999992,154.9255438,left,1,154.44162039999992,None,None,153.24002259999997,154.42484690000038,0.5114232000005359,0.5948669999997946,1.7130590000006123,1.7966851999999562,0.5476384000003236,,,,,,priya_2,001,2020_Feb_14_1220,posner,3.1.5,59.96027032480449,
-0.5,0,1,left,1,3,0,0,0,0,7,2,58,2,,,,,,,,,155.00963479999973,155.50987150000037,156.22757530000035,None,155.5265158000002,156.21081839999988,156.7282280999998,157.2121047999999,left,1,156.7282280999998,None,None,155.5265158000002,156.7113516999998,0.5116154000006645,0.5949115000003076,1.7130699999997887,1.7964667000005647,0.5249291999998604,,,,,,priya_2,001,2020_Feb_14_1220,posner,3.1.5,59.96027032480449,
0.5,0,0,right,1,4,0,0,0,0,7,3,59,3,,,,,,,,,157.27964760000032,157.77970360000018,158.4974511999999,None,157.7963007999997,158.48057309999967,158.99789989999954,None,right,1,158.99789989999954,None,None,157.7963007999997,158.98134870000013,0.5119060999995781,0.594907400000011,1.7135210999995252,1.796866399999999,0.3673282999998264,,,,,,priya_2,001,2020_Feb_14_1220,posner,3.1.5,59.96027032480449,
0.5,180,1,right,2,4,0,0,0,0,7,4,60,5,,,,,,,,,159.3824636999998,159.8823868999998,160.60006040000007,None,159.89907649999986,160.58333219999986,161.10086169999977,None,right,1,161.10086169999977,None,None,159.89907649999986,161.0838249999997,0.5114942000000156,0.5948005999998713,1.7129211000001305,1.7965946000003896,0.33638410000003205,,,,,,priya_2,001,2020_Feb_14_1220,posner,3.1.5,59.96027032480449,
0.5,180,1,right,2,4,0,0,0,0,7,5,61,7,,,,,,,,,161.4681086999999,161.96854299999995,162.6863739999999,None,161.98517139999967,162.6694464000002,163.18711069999972,163.6710161000001,right,1,163.18711069999972,None,None,161.98517139999967,163.1702961000001,0.5114613000005193,0.5950431000001117,1.713198200000079,1.7966507999999521,0.5141373999995267,,,,,,priya_2,001,2020_Feb_14_1220,posner,3.1.5,59.96027032480449,
-0.5,180,0,left,2,3,0,0,0,0,7,6,62,4,,,,,,,,,163.72167329999957,164.22184199999992,164.9393573999996,None,164.2385489999997,164.92253789999995,165.44004330000007,165.92396929999995,left,1,165.44004330000007,None,None,164.2385489999997,165.42316759999994,0.5116774999996778,0.5948828000000503,1.712991299999885,1.7967180999994525,0.5091764999997395,,,,,,priya_2,001,2020_Feb_14_1220,posner,3.1.5,59.96027032480449,
0.5,180,1,right,2,4,0,0,0,0,7,7,63,6,,,,,,,,,165.97479480000038,166.47469850000016,167.19244230000004,None,166.49168709999958,167.1757749999997,167.6931728999998,168.17712719999963,right,1,167.6931728999998,None,None,166.49168709999958,167.67664510000031,0.5114886999999726,0.5948720000005778,1.713422100000571,1.7968796000004659,0.5039915000006658,,,,,,priya_2,001,2020_Feb_14_1220,posner,3.1.5,59.96027032480449,
-0.5,0,1,left,1,3,0,0,0,0,8,0,64,1,,,,,,,,,168.22747449999952,168.72803829999975,169.44553459999952,None,168.7445555000004,169.4289818999996,169.94648400000005,None,left,1,169.94648400000005,None,None,168.7445555000004,169.92981679999957,0.5120567000003575,0.5953868000005968,1.7138152000006812,1.7968525000005684,0.4345358999999007,,,,,,priya_2,001,2020_Feb_14_1220,posner,3.1.5,59.96027032480449,
-0.5,0,1,left,1,3,0,0,0,0,8,1,65,0,,,,,,,,,170.3977617999999,170.89752260000023,171.6151630000004,None,170.91410739999992,171.59854910000013,172.11598510000022,None,left,1,172.11598510000022,None,None,170.91410739999992,172.09949380000035,0.5114455000002636,0.5949528999999529,1.7133934000003137,1.796651099999508,0.4570512000000235,,,,,,priya_2,001,2020_Feb_14_1220,posner,3.1.5,59.96027032480449,
0.5,180,1,right,2,4,0,0,0,0,8,2,66,6,,,,,,,,,172.60047430000031,173.1006385999999,173.81833559999995,None,173.11724429999958,173.80179680000037,174.31891050000013,172.60047430000031,right,1,174.31891050000013,None,None,173.11724429999958,174.30224180000005,0.5117035000002943,0.59490950000054,1.7132927000002383,1.796684599999935,0.38218120000055933,,,,,,priya_2,001,2020_Feb_14_1220,posner,3.1.5,59.96027032480449,
0.5,0,0,right,1,4,0,0,0,0,8,3,67,3,,,,,,,,,174.72027079999953,175.2202787999995,175.93780510000033,None,175.23693860000003,175.92109960000016,176.43864269999995,176.92242879999958,right,1,176.43864269999995,None,None,175.23693860000003,176.42179920000035,0.5115418000004865,0.5949123999998847,1.713047700000061,1.7963682999998127,0.5184613000001264,,,,,,priya_2,001,2020_Feb_14_1220,posner,3.1.5,59.96027032480449,
0.5,180,1,right,2,4,0,0,0,0,8,4,68,7,,,,,,,,,176.97292920000018,177.47318499999983,178.19094029999997,None,177.49013620000005,178.1741302999999,178.69176160000006,179.17551790000016,right,1,178.69176160000006,None,None,177.49013620000005,178.67503510000006,0.5120931999999812,0.5956964999995762,1.7139309000003777,1.7973064999996495,0.6974900999994134,,,,,,priya_2,001,2020_Feb_14_1220,posner,3.1.5,59.96027032480449,
-0.5,0,1,left,1,3,0,0,0,0,8,5,69,2,,,,,,,,,179.40992209999968,179.9098267999998,180.62778509999953,None,179.92664119999972,180.61091359999955,181.12835879999966,181.61227320000035,left,1,181.12835879999966,None,None,179.92664119999972,181.11167190000015,0.5112734000003911,0.5947314000004553,1.7130859000008059,1.7964559000001827,0.5409718999999313,,,,,,priya_2,001,2020_Feb_14_1220,posner,3.1.5,59.96027032480449,
0.5,180,1,right,2,4,0,0,0,0,8,6,70,5,,,,,,,,,181.69659930000034,182.1965220000002,182.91403160000027,None,182.21300859999974,182.89728949999972,183.41476989999956,None,right,1,183.41476989999956,None,None,182.21300859999974,183.3983790000002,0.5116198999994594,0.5951661999997668,1.7134587000000465,1.7965985000000728,0.35044379999999364,,,,,,priya_2,001,2020_Feb_14_1220,posner,3.1.5,59.96027032480449,
-0.5,180,0,left,2,3,0,0,0,0,8,7,71,4,,,,,,,,,183.7828730000001,184.2826812000003,185.0003273000002,None,184.29934859999958,184.98358759999974,185.50097800000003,185.9848517999999,left,1,185.50097800000003,None,None,184.29934859999958,185.48431170000003,0.5112406999996892,0.5948201000001063,1.7128555999997843,1.7963214999999764,0.6480424999999741,,,,,,priya_2,001,2020_Feb_14_1220,posner,3.1.5,59.96027032480449,
0.5,180,1,right,2,4,0,0,0,0,9,0,72,5,,,,,,,,,186.1690411999998,186.66932670000006,187.3869526999997,None,186.68606290000025,187.37028230000033,187.88764730000003,None,right,1,187.88764730000003,None,None,186.68606290000025,187.87090220000027,0.5116990999995323,0.5952238999998372,1.7132584000000861,1.7965496999995594,0.29338949999964825,,,,,,priya_2,001,2020_Feb_14_1220,posner,3.1.5,59.96027032480449,
-0.5,0,1,left,1,3,0,0,0,0,9,1,73,1,,,,,,,,,188.2049903999996,188.7058317000001,189.42320070000005,None,188.72200479999992,189.40648049999982,189.92369820000022,190.4080082999999,None,0,189.92369820000022,None,left,188.72200479999992,189.9068699999998,0.5121782999995048,0.595220899999731,1.7132069999997839,1.796997200000078,,0.4830810000003112,,,,,priya_2,001,2020_Feb_14_1220,posner,3.1.5,59.96027032480449,
0.5,180,1,right,2,4,0,0,0,0,9,2,74,6,,,,,,,,,190.90853349999998,191.40933310000037,192.1268941999997,190.90853349999998,191.42585340000005,192.1100639999995,192.6273842999999,None,right,1,192.6273842999999,None,None,191.42585340000005,192.61079040000004,0.5137268999997104,0.5968064999997296,1.715178399999786,1.7985008999994534,0.33778110000002926,,,,,,priya_2,001,2020_Feb_14_1220,posner,3.1.5,59.96027032480449,
-0.5,0,1,left,1,3,0,0,0,0,9,3,75,2,,,,,,,,,192.99504479999996,193.49530799999957,194.21285090000038,None,193.51189160000013,194.19638250000025,194.7135374999998,None,left,1,194.7135374999998,None,None,193.51189160000013,194.6970080000001,0.5117563000003429,0.5953306000001248,1.7134376000003613,1.7970550000000003,0.31552950000059354,,,,,,priya_2,001,2020_Feb_14_1220,posner,3.1.5,59.96027032480449,
0.5,180,1,right,2,4,0,0,0,0,9,4,76,7,,,,,,,,,195.04872590000014,195.54805250000027,196.26583370000026,None,195.5648768000001,196.2492100999998,196.7665251999997,None,right,1,196.7665251999997,None,None,195.5648768000001,196.74985349999952,0.510827000000063,0.5944491999998718,1.7126251999998203,1.7958535999996457,0.3344420000003083,,,,,,priya_2,001,2020_Feb_14_1220,posner,3.1.5,59.96027032480449,
-0.5,0,1,left,1,3,0,0,0,0,9,5,77,0,,,,,,,,,197.1179089999996,197.61788760000036,198.33518790000016,None,197.63411329999963,198.31859040000018,198.83616710000024,199.32010590000027,None,0,198.83616710000024,None,None,197.63411329999963,198.81928349999998,0.5115425000003597,0.594801300000654,1.7129316000000472,1.796349199999895,,,,,,,priya_2,001,2020_Feb_14_1220,posner,3.1.5,59.96027032480449,
-0.5,180,0,left,2,3,0,0,0,0,9,6,78,4,,,,,,,,,199.8206965999998,200.3214656,201.03915760000018,199.8206965999998,200.33828040000026,201.02231310000025,201.5398841999995,202.02367890000005,left,1,201.5398841999995,None,None,200.33828040000026,201.52318120000018,0.5139696000005642,0.5973152000005939,1.715674900000522,1.7990227999998751,0.5050905000007333,,,,,,priya_2,001,2020_Feb_14_1220,posner,3.1.5,59.96027032480449,
0.5,0,0,right,1,4,0,0,0,0,9,7,79,3,,,,,,,,,202.07418289999987,202.57430420000037,203.2922196999998,None,202.59116220000033,203.27559120000024,203.79287680000016,None,right,1,203.79287680000016,None,None,202.59116220000033,203.7763230999999,0.5113312000003134,0.595125700000608,1.7133303000000524,1.796732300000258,0.3801979999998366,,,,,,priya_2,001,2020_Feb_14_1220,posner,3.1.5,59.96027032480449,
0.5,0,0,right,1,4,0,0,0,0,10,0,80,3,,,,,,,,,204.19402480000008,204.6939126999996,205.41181719999986,None,204.7111285000001,205.39498829999957,205.9123454999999,206.39649819999977,None,0,205.9123454999999,None,left,204.7111285000001,205.89596379999966,0.511316899999656,0.5949435000002268,1.7133681999994224,1.7965751000001546,,1.0622336000005816,,,,,priya_2,001,2020_Feb_14_1220,posner,3.1.5,59.96027032480449,
0.5,180,1,right,2,4,0,0,0,0,10,1,81,6,,,,,,,,,206.89726539999992,207.39790859999994,208.11575639999955,206.89726539999992,207.4143707000003,208.0989311000003,208.61616179999965,209.10021890000007,right,1,208.61616179999965,None,None,207.4143707000003,208.59952890000022,0.5134445000003325,0.5969280999997864,1.7150459000004048,1.7984894000001077,0.5888412000003882,,,,,,priya_2,001,2020_Feb_14_1220,posner,3.1.5,59.96027032480449,
-0.5,0,1,left,1,3,0,0,0,0,10,2,82,2,,,,,,,,,209.23444120000022,209.7342947999996,210.45187199999964,None,209.75106159999996,210.4350445,210.95260580000013,None,left,1,210.95260580000013,None,None,209.75106159999996,210.93607319999956,0.5114167000001544,0.5950285999997504,1.713188199999422,1.7966074999994817,0.3244844999999259,,,,,,priya_2,001,2020_Feb_14_1220,posner,3.1.5,59.96027032480449,
-0.5,0,1,left,1,3,0,0,0,0,10,3,83,1,,,,,,,,,211.30340609999985,211.80371269999978,212.52149399999962,None,211.82073190000028,212.5049025999997,213.02210209999976,213.50648850000016,left,1,213.02210209999976,None,None,211.82073190000028,213.0055940000002,0.5118812999999136,0.5955807000000277,1.7137481999998272,1.7972727000005762,0.47923049999917566,,,,,,priya_2,001,2020_Feb_14_1220,posner,3.1.5,59.96027032480449,
0.5,180,1,right,2,4,0,0,0,0,10,4,84,5,,,,,,,,,213.52318110000033,214.0234849999997,214.74129939999966,None,214.0402766999996,214.72431750000032,215.24211569999989,215.7258240000001,right,1,215.24211569999989,None,None,214.0402766999996,215.22515779999958,0.5117905000006431,0.5954682000001412,1.7134501000000455,1.7969653000000108,0.6429989999996906,,,,,,priya_2,001,2020_Feb_14_1220,posner,3.1.5,59.96027032480449,
-0.5,180,0,left,2,3,0,0,0,0,10,5,85,4,,,,,,,,,215.91001619999952,216.41028670000014,217.12784959999954,None,216.42697829999997,217.11137109999981,217.62860850000015,None,left,1,217.62860850000015,None,None,216.42697829999997,217.6118795000002,0.5116694000007556,0.5948598000004495,1.713240200000655,1.796587300000283,0.46440090000032797,,,,,,priya_2,001,2020_Feb_14_1220,posner,3.1.5,59.96027032480449,
-0.5,0,1,left,1,3,0,0,0,0,10,6,86,0,,,,,,,,,218.11308829999962,218.6132862000004,219.3309932000002,None,218.6299927,219.31412639999962,219.8317178999996,220.3155797999998,left,1,219.8317178999996,None,None,218.6299927,219.814977,0.5117692000003444,0.5952876999999717,1.713442700000087,1.796919500000513,0.4853198999999222,,,,,,priya_2,001,2020_Feb_14_1220,posner,3.1.5,59.96027032480449,
0.5,180,1,right,2,4,0,0,0,0,10,7,87,7,,,,,,,,,220.33255269999972,220.83298170000035,221.5508676999998,None,220.84952040000007,221.53380579999975,222.0513520000004,None,right,1,222.0513520000004,None,None,220.84952040000007,222.03447770000002,0.5118591000000379,0.5953365999994276,1.7133364999999685,1.7969795999997586,0.3856383000002097,,,,,,priya_2,001,2020_Feb_14_1220,posner,3.1.5,59.96027032480449,
,,,,,,0,0,0,0,,,,,,,,,,,,,,,,,,,,,,,,,,,,,,,,,,222.46944150000036,None,1.7500000467407517e-05,0.996103000000403,priya_2,001,2020_Feb_14_1220,posner,3.1.5,59.96027032480449,
0.5,0,0,right,1,4,1,0,1,0,0,0,0,3,1.3300000318849925e-05,0.09739989999980025,283.4861665999997,None,1.5099999473022763e-05,0.097797399999763,285.58865650000007,None,285.86369730000024,286.37294420000035,287.0739974999997,None,286.37294420000035,287.0739974999997,287.5747153000002,None,right,1,287.5747153000002,None,None,286.37294420000035,287.5747153000002,0.5016052000000855,0.6016767000000982,1.703400700000202,1.803501100000176,0.430235900000298,,,,,,priya_2,001,2020_Feb_14_1220,posner,3.1.5,59.96027032480449,
0.5,180,1,right,2,4,1,0,1,0,0,1,1,5,,,,,,,,,288.02729699999963,288.5261790000004,289.2436531000003,None,288.5425011999996,289.2272028999996,289.7445378000002,None,right,1,289.7445378000002,None,None,288.5425011999996,289.7279775999996,0.5105581999996502,0.5940282999999908,1.7123409999994692,1.795705999999882,0.39623329999994894,,,,,,priya_2,001,2020_Feb_14_1220,posner,3.1.5,59.96027032480449,
-0.5,0,1,left,1,3,1,0,1,0,0,2,2,0,,,,,,,,,290.1624300000003,290.6622956000001,291.38023020000037,None,290.67935990000024,291.3634098000002,291.88098509999963,None,left,1,291.88098509999963,None,None,290.67935990000024,291.8642522,0.5114720999999918,0.5951246000004176,1.7134172000005492,1.7966710999999123,0.35593340000013995,,,,,,priya_2,001,2020_Feb_14_1220,posner,3.1.5,59.96027032480449,
0.5,180,1,right,2,4,1,0,1,0,0,3,3,6,,,,,,,,,292.2656267000002,292.76527520000036,293.4829571999999,None,292.7820142999999,293.4663166999999,293.9836521999996,None,right,1,293.9836521999996,None,None,292.7820142999999,293.96716819999983,0.5119861000002857,0.5952324999998382,1.7135408000003736,1.7967261000003418,0.3090713000001415,,,,,,priya_2,001,2020_Feb_14_1220,posner,3.1.5,59.96027032480449,
-0.5,180,0,left,2,3,1,0,1,0,0,4,4,4,,,,,,,,,294.3182974000001,294.81824309999956,295.5361428999995,None,294.8348460999996,295.51915370000006,296.03657440000006,None,left,1,296.03657440000006,None,None,294.8348460999996,296.0198935999997,0.5114647000000332,0.5948117999996612,1.7130970999996862,1.7964756999999736,0.3442119000001185,,,,,,priya_2,001,2020_Feb_14_1220,posner,3.1.5,59.96027032480449,
-0.5,0,1,left,1,3,1,0,1,0,0,5,5,2,,,,,,,,,296.4045728000001,296.90427679999993,297.6221190999995,None,296.9212748,297.60528350000004,298.12257580000005,None,left,1,298.12257580000005,None,None,296.9212748,298.10619419999966,0.5113953000000038,0.5950146000004679,1.7132910000000265,1.7965869999998176,0.40221370000017487,,,,,,priya_2,001,2020_Feb_14_1220,posner,3.1.5,59.96027032480449,
0.5,180,1,right,2,4,1,0,1,0,0,6,6,7,,,,,,,,,298.54082759999983,299.0408945999998,299.7584756999995,None,299.0574792999996,299.7415506999996,300.2591924999997,None,right,1,300.2591924999997,None,None,299.0574792999996,300.2421599999998,0.5119006000004447,0.5952346000003672,1.7131512000005387,1.7969075999999404,0.3216252000001987,,,,,,priya_2,001,2020_Feb_14_1220,posner,3.1.5,59.96027032480449,
-0.5,0,1,left,1,3,1,0,1,0,0,7,7,1,,,,,,,,,300.60974989999977,301.11028650000026,301.82810150000023,None,301.1269873000001,301.8111507000003,302.32853760000035,302.8124189,left,1,302.32853760000035,None,None,301.1269873000001,302.31178850000015,0.5118148999999903,0.5951966000002358,1.7133026000001337,1.7967719000007492,0.5403151999998954,,,,,,priya_2,001,2020_Feb_14_1220,posner,3.1.5,59.96027032480449,
0.5,180,1,right,2,4,1,0,1,0,1,0,8,6,,,,,,,,,302.89655140000013,303.39665309999964,304.11421470000005,None,303.4132411999999,304.09769119999964,304.61496890000035,None,right,1,304.61496890000035,None,None,303.4132411999999,304.59859289999986,0.5114913999996133,0.5952169000001959,1.7134077000000616,1.7966636999999537,0.3577173000003313,,,,,,priya_2,001,2020_Feb_14_1220,posner,3.1.5,59.96027032480449,
-0.5,0,1,left,1,3,1,0,1,0,1,1,9,2,,,,,,,,,304.99942910000027,305.49972679999973,306.2172837999997,None,305.5163978999999,306.2005102000003,306.7178120999997,None,left,1,306.7178120999997,None,None,305.5163978999999,306.70105409999996,0.5117509000001519,0.5949432999996134,1.713061999999809,1.7964554999998654,0.40687100000013743,,,,,,priya_2,001,2020_Feb_14_1220,posner,3.1.5,59.96027032480449,
0.5,180,1,right,2,4,1,0,1,0,1,2,10,5,,,,,,,,,307.15197679999983,307.65246659999957,308.3703168000002,None,307.6695626999999,308.3533367,308.8709214999999,None,right,1,308.8709214999999,None,None,307.6695626999999,308.8539245000002,0.512042699999256,0.5957851999992272,1.7134971999994377,1.7971739999993588,0.12589219999972556,,,,,,priya_2,001,2020_Feb_14_1220,posner,3.1.5,59.96027032480449,
-0.5,0,1,left,1,3,1,0,1,0,1,3,11,0,,,,,,,,,309.0220438999995,309.5215492999996,310.23951430000034,None,309.53836390000015,310.2224937000001,310.7400760999999,None,left,1,310.7400760999999,None,None,309.53836390000015,310.72334539999974,0.5112548999995852,0.5948160999996617,1.713033699999869,1.7965653999999631,0.35271670000020094,,,,,,priya_2,001,2020_Feb_14_1220,posner,3.1.5,59.96027032480449,
-0.5,0,1,left,1,3,1,0,1,0,1,4,12,1,,,,,,,,,311.12451429999965,311.6245546,312.3425127999999,None,311.6412838999995,312.3257119,312.84303679999994,313.3273502000002,left,1,312.84303679999994,None,None,311.6412838999995,312.82634099999996,0.5113820999995369,0.594813300000169,1.71316139999999,1.7966199000002234,0.5059622999997373,,,,,,priya_2,001,2020_Feb_14_1220,posner,3.1.5,59.96027032480449,
-0.5,180,0,left,2,3,1,0,1,0,1,5,13,4,,,,,,,,,313.3778517999999,313.8779255999998,314.59553549999964,None,313.8945377,314.5788408999997,315.0962235999996,None,left,1,315.0962235999996,None,None,313.8945377,315.0794084999998,0.5117578999997932,0.5948201000001063,1.7132289000001037,1.7965603000002375,0.4605774999999994,,,,,,priya_2,001,2020_Feb_14_1220,posner,3.1.5,59.96027032480449,
0.5,0,0,right,1,4,1,0,1,0,1,6,14,3,,,,,,,,,315.58090730000004,316.0810449999999,316.7987530999999,None,316.0976002999996,316.78175290000036,317.2993776000003,315.58090730000004,right,1,317.2993776000003,None,None,316.0976002999996,317.28254370000013,0.5118409999995492,0.5948368999997911,1.7133194999996704,1.7968074999998862,0.3614038999994591,,,,,,priya_2,001,2020_Feb_14_1220,posner,3.1.5,59.96027032480449,
0.5,180,1,right,2,4,1,0,1,0,1,7,15,7,,,,,,,,,317.68365900000026,318.18370810000033,318.90141159999985,None,318.20050530000026,318.8847045000002,319.4020953999998,None,right,1,319.4020953999998,None,None,318.20050530000026,319.3853253999996,0.5115304000000833,0.5950235000000248,1.7131305000002612,1.7966929000003802,0.38679429999956483,,,,,,priya_2,001,2020_Feb_14_1220,posner,3.1.5,59.96027032480449,
-0.5,180,0,left,2,3,1,0,1,0,2,0,16,4,,,,,,,,,319.81946249999964,320.31997130000036,321.0376864,None,320.33679029999985,321.02097700000013,321.53814169999987,None,left,1,321.53814169999987,None,None,320.33679029999985,321.52159949999987,0.512268800000129,0.5957249000002776,1.713878599999589,1.7973457999996754,0.45076849999986734,,,,,,priya_2,001,2020_Feb_14_1220,posner,3.1.5,59.96027032480449,
0.5,180,1,right,2,4,1,0,1,0,2,1,17,5,,,,,,,,,322.0068462999998,322.50641799999994,323.2238262999999,None,322.5229169000004,323.2072543000004,323.72462410000026,None,right,1,323.72462410000026,None,None,322.5229169000004,323.7081632999998,0.5114166999992449,0.5948601999998573,1.713139799999226,1.7962991999993392,0.40821649999998044,,,,,,priya_2,001,2020_Feb_14_1220,posner,3.1.5,59.96027032480449,
-0.5,0,1,left,1,3,1,0,1,0,2,2,18,2,,,,,,,,,324.1590285000002,324.65915310000037,325.3771069000004,None,324.67593959999977,325.36038290000033,325.8777663999999,None,left,1,325.8777663999999,None,None,324.67593959999977,325.86101789999975,0.5115527000007205,0.5948459999999614,1.7133941000001869,1.7966079000007085,0.2951399000003221,,,,,,priya_2,001,2020_Feb_14_1220,posner,3.1.5,59.96027032480449,
0.5,180,1,right,2,4,1,0,1,0,2,3,19,7,,,,,,,,,326.19543650000014,326.6954308000004,327.4129770999998,None,326.7121023999998,327.39638809999997,327.9136222999996,328.3978196999997,right,1,327.9136222999996,None,None,326.7121023999998,327.8971306000003,0.5118093999999473,0.5950975999994625,1.7131744999996954,1.79665119999936,0.47510500000043976,,,,,,priya_2,001,2020_Feb_14_1220,posner,3.1.5,59.96027032480449,
0.5,180,1,right,2,4,1,0,1,0,2,4,20,6,,,,,,,,,328.41516950000005,328.9150800999996,329.63261260000036,None,328.93181509999977,329.61620669999957,330.1334127,None,right,1,330.1334127,None,None,328.93181509999977,330.1169442999999,0.5113267999995514,0.5948234999996203,1.7131694999998217,1.796469199999592,0.3594032999999399,,,,,,priya_2,001,2020_Feb_14_1220,posner,3.1.5,59.96027032480449,
-0.5,0,1,left,1,3,1,0,1,0,2,5,21,1,,,,,,,,,330.5180104000001,331.0180461,331.73586629999954,None,331.03467309999996,331.7189533999999,332.2365028000004,None,left,1,332.2365028000004,None,None,331.03467309999996,332.21959849999985,0.5114082000000053,0.5947803999997632,1.7129493000002185,1.7961640000003172,0.32030159999976604,,,,,,priya_2,001,2020_Feb_14_1220,posner,3.1.5,59.96027032480449,
0.5,0,0,right,1,4,1,0,1,0,2,6,22,3,,,,,,,,,332.58760809999967,333.0875556000001,333.80511659999956,None,333.1042465999999,333.7886789000004,334.3059684,None,right,1,334.3059684,None,None,333.1042465999999,334.2892485000002,0.5113345999998273,0.5946345000002111,1.713004600000204,1.7963098000000173,0.2989095000002635,,,,,,priya_2,001,2020_Feb_14_1220,posner,3.1.5,59.96027032480449,
-0.5,0,1,left,1,3,1,0,1,0,2,7,23,0,,,,,,,,,334.6230661999998,335.1235362999996,335.8413079000002,None,335.14062490000015,335.8245594,336.34195829999953,None,left,1,336.34195829999953,None,None,335.14062490000015,336.3253229000002,0.5121229000005769,0.5955110000004424,1.7138885000003938,1.7973632000002908,0.3827412999999069,,,,,,priya_2,001,2020_Feb_14_1220,posner,3.1.5,59.96027032480449,
-0.5,0,1,left,1,3,1,0,1,0,3,0,24,2,,,,,,,,,336.7431875000002,337.2432528999998,337.96090410000033,None,337.2600470999996,337.94426360000034,338.4614292999995,None,left,1,338.4614292999995,None,None,337.2600470999996,338.4449631999996,0.5114788000000772,0.5950339999999414,1.7131878000000142,1.7967937000003076,0.35116850000031263,,,,,,priya_2,001,2020_Feb_14_1220,posner,3.1.5,59.96027032480449,
0.5,0,0,right,1,4,1,0,1,0,3,1,25,3,,,,,,,,,338.8295760000001,339.3295558,340.04709900000034,None,339.34629179999956,340.03064059999997,340.54762329999994,341.0317272000002,right,1,340.54762329999994,None,None,339.34629179999956,340.5312525999998,0.5115876999998363,0.5947926999997435,1.7132614000001922,1.7965512000000672,0.5530419000006077,,,,,,priya_2,001,2020_Feb_14_1220,posner,3.1.5,59.96027032480449,
0.5,180,1,right,2,4,1,0,1,0,3,2,26,7,,,,,,,,,341.1162926999996,341.61591880000014,342.3335041999999,None,341.6325777000002,342.31702010000026,342.8340312999999,None,right,1,342.8340312999999,None,None,341.6325777000002,342.8176727,0.5116428000001179,0.5946620000004259,1.7131219000002602,1.7964782999997624,0.3787073000003147,,,,,,priya_2,001,2020_Feb_14_1220,posner,3.1.5,59.96027032480449,
-0.5,0,1,left,1,3,1,0,1,0,3,3,27,0,,,,,,,,,343.23587640000005,343.73541659999955,344.4531742999998,None,343.7521568000002,344.4364039000002,344.9536803000001,None,left,1,344.9536803000001,None,None,343.7521568000002,344.9372728999997,0.5117190999999366,0.5950333999999202,1.71328050000011,1.7967123000007632,0.3311552000004667,,,,,,priya_2,001,2020_Feb_14_1220,posner,3.1.5,59.96027032480449,
-0.5,0,1,left,1,3,1,0,1,0,3,4,28,1,,,,,,,,,345.3052581000002,345.80498199999965,346.52244249999967,None,345.8216517000001,346.50622889999977,347.0232450000003,None,left,1,347.0232450000003,None,None,345.8216517000001,347.0068932000004,0.5112978000006478,0.5949476000005234,1.7131908999999723,1.7966452000000572,0.38150129999939963,,,,,,priya_2,001,2020_Feb_14_1220,posner,3.1.5,59.96027032480449,
0.5,180,1,right,2,4,1,0,1,0,3,5,29,5,,,,,,,,,347.42460630000005,347.9246929000001,348.64209479999954,None,347.9413338000004,348.6257390999999,349.1428157999999,None,right,1,349.1428157999999,None,None,347.9413338000004,349.1263699000001,0.5118186999998215,0.5949762999998711,1.7134775000004083,1.7967050000006566,0.3419792000004236,,,,,,priya_2,001,2020_Feb_14_1220,posner,3.1.5,59.96027032480449,
-0.5,180,0,left,2,3,1,0,1,0,3,6,30,4,,,,,,,,,349.51041499999974,350.0108158000003,350.7284952,None,350.0277431000004,350.71168560000024,351.22923269999956,None,left,1,351.22923269999956,None,None,350.0277431000004,351.21245739999995,0.5120766999998523,0.5954661000005217,1.71370990000014,1.7973534000002473,0.4634689000004073,,,,,,priya_2,001,2020_Feb_14_1220,posner,3.1.5,59.96027032480449,
0.5,180,1,right,2,4,1,0,1,0,3,7,31,6,,,,,,,,,351.71401140000035,352.2137045999998,352.9316552,None,352.23051140000007,352.91495959999975,353.4321866999999,353.9166045000002,right,1,353.4321866999999,None,None,352.23051140000007,353.4156297999998,0.5111544000001231,0.5947593000000779,1.7130658000005496,1.796570900000006,0.6364631999995254,,,,,,priya_2,001,2020_Feb_14_1220,posner,3.1.5,59.96027032480449,
-0.5,180,0,left,2,3,1,0,1,0,4,0,32,4,,,,,,,,,354.1003896000002,354.6005175,355.31814120000035,None,354.61730569999963,355.30152590000034,355.81893299999956,None,left,1,355.81893299999956,None,None,354.61730569999963,355.8020346000003,0.5116207000000941,0.59504459999971,1.7131237000003239,1.796817899999951,0.4097049000001789,,,,,,priya_2,001,2020_Feb_14_1220,posner,3.1.5,59.96027032480449,
0.5,180,1,right,2,4,1,0,1,0,4,1,33,5,,,,,,,,,356.25324660000024,356.7533873000002,357.47116769999957,None,356.77046150000024,357.4544009000001,357.9720387999996,None,right,1,357.9720387999996,None,None,356.77046150000024,357.95504600000004,0.5115925000000061,0.5952901999999085,1.71323829999983,1.7967281000001094,0.32071449999966717,,,,,,priya_2,001,2020_Feb_14_1220,posner,3.1.5,59.96027032480449,
-0.5,0,1,left,1,3,1,0,1,0,4,2,34,2,,,,,,,,,358.32242250000036,358.82296380000025,359.5407346000002,None,358.8395193999995,359.52390579999974,360.04129379999995,None,left,1,360.04129379999995,None,None,358.8395193999995,360.0246920999998,0.5121500999994169,0.5957305000001725,1.7138770999999906,1.7971362999996927,0.3633165999999619,,,,,,priya_2,001,2020_Feb_14_1220,posner,3.1.5,59.96027032480449,
-0.5,0,1,left,1,3,1,0,1,0,4,3,35,1,,,,,,,,,360.42606909999995,360.9260658000003,361.6435197999999,None,360.94236869999986,361.6270545999996,362.14408170000024,362.6284175999999,left,1,362.14408170000024,None,None,360.94236869999986,362.12749840000015,0.5116946999996799,0.5950375000002168,1.713118200000281,1.7966289000005418,0.5165373999998337,,,,,,priya_2,001,2020_Feb_14_1220,posner,3.1.5,59.96027032480449,
0.5,180,1,right,2,4,1,0,1,0,4,4,36,6,,,,,,,,,362.6789953999996,363.17914779999955,363.89670229999956,None,363.19599089999974,363.88006549999955,364.39748280000003,None,right,1,364.39748280000003,None,None,363.19599089999974,364.38075149999986,0.5114833999996335,0.5946298999997452,1.7130867999994734,1.7963152000002083,0.35925940000015544,,,,,,priya_2,001,2020_Feb_14_1220,posner,3.1.5,59.96027032480449,
-0.5,0,1,left,1,3,1,0,1,0,4,5,37,0,,,,,,,,,364.7816825,365.28168860000005,365.9996308,None,365.2987307000003,365.98287119999986,366.5001119999997,None,left,1,366.5001119999997,None,None,365.2987307000003,366.48357980000037,0.5115380999995978,0.5951780999994298,1.7134115999997448,1.7967271999996228,0.4325347000003603,,,,,,priya_2,001,2020_Feb_14_1220,posner,3.1.5,59.96027032480449,
0.5,180,1,right,2,4,1,0,1,0,4,6,38,7,,,,,,,,,366.9515609,367.45225519999985,368.1692399000003,None,367.4681332,368.15240300000005,368.6700019,None,right,1,368.6700019,None,None,367.4681332,368.6528575000002,0.5121366000003036,0.594683399999667,1.7127260999995997,1.79678100000001,0.3026270000000295,,,,,,priya_2,001,2020_Feb_14_1220,posner,3.1.5,59.96027032480449,
0.5,0,0,right,1,4,1,0,1,0,4,7,39,3,,,,,,,,,369.00427130000025,369.5043652000004,370.22192149999955,None,369.52114100000017,370.2052812000002,370.72267589999956,371.2066414000001,right,1,370.72267589999956,None,None,369.52114100000017,370.7060954999997,0.5115150000001449,0.5948041999999987,1.7132213000004413,1.796741099999963,0.5939933999998175,,,,,,priya_2,001,2020_Feb_14_1220,posner,3.1.5,59.96027032480449,
-0.5,180,0,left,2,3,1,0,1,0,5,0,40,4,,,,,,,,,371.3407669999997,371.84089570000015,372.5586817000003,None,371.8576144999997,372.54175940000005,373.0593321999995,373.54319120000036,left,1,373.0593321999995,None,None,371.8576144999997,373.0424535000002,0.511720299999979,0.5951471999997011,1.7132603999998537,1.7968565999999555,0.48950460000014573,,,,,,priya_2,001,2020_Feb_14_1220,posner,3.1.5,59.96027032480449,
-0.5,0,1,left,1,3,1,0,1,0,5,1,41,2,,,,,,,,,373.57747910000035,374.0774406999999,374.7948305,None,374.09398450000026,374.7785537999998,375.29589289999967,None,left,1,375.29589289999967,None,None,374.09398450000026,375.2790986,0.5114498999992065,0.5948042999998506,1.7130967999992208,1.7963872999998785,0.41266449999966426,,,,,,priya_2,001,2020_Feb_14_1220,posner,3.1.5,59.96027032480449,
0.5,180,1,right,2,4,1,0,1,0,5,2,42,5,,,,,,,,,375.73028350000004,376.23033339999984,376.94785539999975,None,376.24705429999995,376.9311325999997,377.4491546999998,None,right,1,377.4491546999998,None,None,376.24705429999995,377.4318876999996,0.5116257999998197,0.5948707999996259,1.7131663999998636,1.7966312999997172,0.4115027999996528,,,,,,priya_2,001,2020_Feb_14_1220,posner,3.1.5,59.96027032480449,
0.5,180,1,right,2,4,1,0,1,0,5,3,43,7,,,,,,,,,377.8830323000002,378.3831161999997,379.1008664000001,None,378.39992809999967,379.08421759999965,379.60177620000013,None,right,1,379.60177620000013,None,None,378.39992809999967,379.58475650000037,0.5116820000002917,0.5952870999999504,1.7133207000006223,1.7970592000001488,0.45089050000024145,,,,,,priya_2,001,2020_Feb_14_1220,posner,3.1.5,59.96027032480449,
0.5,180,1,right,2,4,1,0,1,0,5,4,44,6,,,,,,,,,380.0689470999996,380.56950849999976,381.2874337000003,None,380.5862353000002,381.27075499999955,381.7882378000004,None,right,1,381.7882378000004,None,None,380.5862353000002,381.7715983999997,0.5121208000000479,0.595396200000323,1.7141953000000285,1.7972637000002578,0.40034540000033303,,,,,,priya_2,001,2020_Feb_14_1220,posner,3.1.5,59.96027032480449,
-0.5,0,1,left,1,3,1,0,1,0,5,5,45,0,,,,,,,,,382.20584549999967,382.7058874000004,383.4234892000004,None,382.7224253000004,383.40695229999983,383.9241304999996,None,left,1,383.9241304999996,None,None,382.7224253000004,383.90756429999965,0.5116964999997435,0.5951361999996152,1.7133507999997164,1.7967674000001352,0.32055469999977504,,,,,,priya_2,001,2020_Feb_14_1220,posner,3.1.5,59.96027032480449,
-0.5,0,1,left,1,3,1,0,1,0,5,6,46,1,,,,,,,,,384.2756191999997,384.77567569999974,385.4928917999996,None,384.79188969999996,385.47643530000005,385.9936687999998,386.47791099999995,left,1,385.9936687999998,None,None,384.79188969999996,385.9769919999999,0.5118996000001061,0.5952767999997377,1.7132030000002487,1.7967828999999256,0.4829005000001416,,,,,,priya_2,001,2020_Feb_14_1220,posner,3.1.5,59.96027032480449,
0.5,0,0,right,1,4,1,0,1,0,5,7,47,3,,,,,,,,,386.49578420000034,386.99495240000033,387.7128125999998,None,387.0117848,387.69615689999955,388.2132762000001,None,right,1,388.2132762000001,None,None,387.0117848,388.19684249999955,0.511109199999737,0.5949000999999043,1.7129572999992888,1.7961624999998094,0.3512107000005926,,,,,,priya_2,001,2020_Feb_14_1220,posner,3.1.5,59.96027032480449,
0.5,180,1,right,2,4,1,0,1,0,6,0,48,6,,,,,,,,,388.5814214000002,389.0813693,389.79919789999985,None,389.09824130000015,389.7822989999995,390.29965710000033,None,right,1,390.29965710000033,None,None,389.09824130000015,390.28285979999964,0.5117155999996612,0.5948502999999619,1.7131975999991482,1.7966469999992114,0.3689683000002333,,,,,,priya_2,001,2020_Feb_14_1220,posner,3.1.5,59.96027032480449,
0.5,0,0,right,1,4,1,0,1,0,6,1,49,3,,,,,,,,,390.68441770000027,391.1841252000004,391.9018554000004,None,391.2007364000001,391.8850511999999,392.4024685000004,None,right,1,392.4024685000004,None,None,391.2007364000001,392.3858301,0.5114423000004535,0.5948469000004479,1.7131391000002623,1.7967630000002828,0.35418399999980466,,,,,,priya_2,001,2020_Feb_14_1220,posner,3.1.5,59.96027032480449,
-0.5,0,1,left,1,3,1,0,1,0,6,2,50,1,,,,,,,,,392.78710239999964,393.2871584000004,394.0046818999999,None,393.3037634000002,393.98799119999967,394.5055437000001,None,left,1,394.5055437000001,None,None,393.3037634000002,394.4889726000001,0.5113922000000457,0.5948029999999562,1.7131854999997813,1.7962303000003885,0.38699689999975817,,,,,,priya_2,001,2020_Feb_14_1220,posner,3.1.5,59.96027032480449,
0.5,180,1,right,2,4,1,0,1,0,6,3,51,5,,,,,,,,,394.92300160000013,395.42328670000006,396.1411267000003,None,395.44014160000006,396.1243328999999,396.6417513999995,None,right,1,396.6417513999995,None,None,395.44014160000006,396.62502889999996,0.5118886999998722,0.5953768999997919,1.7138913999997385,1.796978699999272,0.3070023999998739,,,,,,priya_2,001,2020_Feb_14_1220,posner,3.1.5,59.96027032480449,
0.5,180,1,right,2,4,1,0,1,0,6,4,52,7,,,,,,,,,396.9769060999997,397.47620000000006,398.1936063000003,None,397.4926723999997,398.1769838,398.69463110000015,None,right,1,398.69463110000015,None,None,397.4926723999997,398.6780968000003,0.5116680999999517,0.5949882000004436,1.7135329000002457,1.7965837000001557,0.31000570000014704,,,,,,priya_2,001,2020_Feb_14_1220,posner,3.1.5,59.96027032480449,
-0.5,180,0,left,2,3,1,0,1,0,6,5,53,4,,,,,,,,,399.0289333999999,399.52909590000036,400.24687019999965,None,399.54574709999997,400.2301276999997,400.74726629999986,None,left,1,400.74726629999986,None,None,399.54574709999997,400.7308094,0.5117308999997476,0.5950907999995252,1.7134211999991749,1.7966550999999527,0.4574218000007022,,,,,,priya_2,001,2020_Feb_14_1220,posner,3.1.5,59.96027032480449,
-0.5,0,1,left,1,3,1,0,1,0,6,6,54,0,,,,,,,,,401.23204799999985,401.7319180000004,402.44980419999956,None,401.7487374000002,402.4329945999998,402.95054569999957,403.4343895000002,left,1,402.95054569999957,None,None,401.7487374000002,402.9336529000002,0.5114958000003753,0.5951598999999987,1.713229400000273,1.7969014000000243,0.598143600000185,,,,,,priya_2,001,2020_Feb_14_1220,posner,3.1.5,59.96027032480449,
-0.5,0,1,left,1,3,1,0,1,0,6,7,55,2,,,,,,,,,403.56904639999993,404.06873410000026,404.7863381999996,None,404.08546190000015,404.76965610000025,405.2869418,None,left,1,405.2869418,None,None,404.08546190000015,405.2705003000001,0.5115179000003991,0.5947119000002203,1.713248900000508,1.7963674000002356,0.3174851999992825,,,,,,priya_2,001,2020_Feb_14_1220,posner,3.1.5,59.96027032480449,
0.5,0,0,right,1,4,1,0,1,0,7,0,56,3,,,,,,,,,405.6213322000003,406.12140160000035,406.8391756000001,None,406.13813409999966,406.82225089999974,407.33981159999985,407.82365539999955,right,1,407.33981159999985,None,None,406.13813409999966,407.3229867,0.5116480999995474,0.5951733000001695,1.7132227000001876,1.796744299999773,0.5047355999995489,,,,,,priya_2,001,2020_Feb_14_1220,posner,3.1.5,59.96027032480449,
-0.5,0,1,left,1,3,1,0,1,0,7,1,57,1,,,,,,,,,407.87438589999965,408.37449730000026,409.09210559999974,None,408.3913173000001,409.0761038999999,409.59295099999963,None,left,1,409.59295099999963,None,None,408.3913173000001,409.57640850000007,0.5116533999998865,0.5950981999994838,1.7135393999997177,1.7967719999996916,0.3155316000002131,,,,,,priya_2,001,2020_Feb_14_1220,posner,3.1.5,59.96027032480449,
0.5,180,1,right,2,4,1,0,1,0,7,2,58,6,,,,,,,,,409.9269111000003,410.42753660000017,411.14495050000005,None,410.44397430000026,411.1284201999997,411.6460294999997,None,right,1,411.6460294999997,None,None,410.44397430000026,411.62905200000023,0.5124497000006158,0.5957649000001766,1.71396040000036,1.79726650000066,0.342597000000751,,,,,,priya_2,001,2020_Feb_14_1220,posner,3.1.5,59.96027032480449,
-0.5,180,0,left,2,3,1,0,1,0,7,3,59,4,,,,,,,,,412.0135207000003,412.51348880000023,413.23128149999957,None,412.5304745000003,413.21450110000023,413.7319636000002,None,left,1,413.7319636000002,None,None,412.5304745000003,413.71547219999957,0.5113871000003201,0.5951051000001826,1.713360400000056,1.796556799999962,0.34479190000001836,,,,,,priya_2,001,2020_Feb_14_1220,posner,3.1.5,59.96027032480449,
0.5,180,1,right,2,4,1,0,1,0,7,4,60,5,,,,,,,,,414.0995747999996,414.59991209999953,415.3175580999996,None,414.6163747999999,415.30061099999966,415.81816210000034,None,right,1,415.81816210000034,None,None,414.6163747999999,415.8015125000002,0.5118639000002077,0.5951986000000034,1.7134498000004896,1.79691400000047,0.3942833999999493,,,,,,priya_2,001,2020_Feb_14_1220,posner,3.1.5,59.96027032480449,
-0.5,0,1,left,1,3,1,0,1,0,7,5,61,2,,,,,,,,,416.23601640000015,416.73612070000036,417.45356189999984,None,416.7525904000004,417.4371299000004,417.9543381000003,None,left,1,417.9543381000003,None,None,416.7525904000004,417.93772850000005,0.5116616000004797,0.5949971000000005,1.7132473000001482,1.7967616000005364,0.4343330000001515,,,,,,priya_2,001,2020_Feb_14_1220,posner,3.1.5,59.96027032480449,
-0.5,0,1,left,1,3,1,0,1,0,7,6,62,0,,,,,,,,,418.4057700000003,418.90583909999987,419.6233123000002,None,418.92227790000015,419.60664819999965,420.12409839999964,None,left,1,420.12409839999964,None,None,418.92227790000015,420.10752200000024,0.5117243999993661,0.5950368999992861,1.7133907999996154,1.7965661999996883,0.4404461000003721,,,,,,priya_2,001,2020_Feb_14_1220,posner,3.1.5,59.96027032480449,
0.5,180,1,right,2,4,1,0,1,0,7,7,63,7,,,,,,,,,420.59154750000016,421.0919236,421.8098467,None,421.10876689999986,421.7928972999998,422.3105916000004,None,right,1,422.3105916000004,None,None,421.10876689999986,422.29359769999974,0.5117667000004076,0.5953181000004406,1.713428600000043,1.7972343000001274,0.34199269999953685,,,,,,priya_2,001,2020_Feb_14_1220,posner,3.1.5,59.96027032480449,
0.5,180,1,right,2,4,1,0,1,0,8,0,64,6,,,,,,,,,422.6784772000001,423.1785258,423.8959937999998,None,423.19492869999976,423.8794025999996,424.3967641999998,None,right,1,424.3967641999998,None,None,423.19492869999976,424.38013950000004,0.51193560000047,0.5951316000000588,1.7135369000006904,1.7966940000005707,0.3357303000002503,,,,,,priya_2,001,2020_Feb_14_1220,posner,3.1.5,59.96027032480449,
-0.5,0,1,left,1,3,1,0,1,0,8,1,65,2,,,,,,,,,424.76432730000033,425.26444059999994,425.9820735000003,None,425.28146130000005,425.9654956000004,426.4827888,None,left,1,426.4827888,None,None,425.28146130000005,426.4661494000002,0.5115378999998939,0.5951024999994843,1.713221799999701,1.7966526000000158,0.41771369999969465,,,,,,priya_2,001,2020_Feb_14_1220,posner,3.1.5,59.96027032480449,
0.5,0,0,right,1,4,1,0,1,0,8,2,66,3,,,,,,,,,426.9174095999997,427.41745770000034,428.1350394000001,None,427.4340137999998,428.1184338000003,428.63569329999973,None,right,1,428.63569329999973,None,None,427.4340137999998,428.61901430000034,0.511496399999487,0.5949428000003536,1.7130211000003328,1.7964289000001372,0.34495759999936126,,,,,,priya_2,001,2020_Feb_14_1220,posner,3.1.5,59.96027032480449,
-0.5,0,1,left,1,3,1,0,1,0,8,3,67,1,,,,,,,,,429.0039160999995,429.50364790000003,430.2213234999999,None,429.5205248000002,430.2045640999995,430.7218665999999,None,left,1,430.7218665999999,None,None,429.5205248000002,430.7055088999996,0.5114274999996269,0.5949861999997665,1.7132665999997698,1.796627400000034,0.3386872000000949,,,,,,priya_2,001,2020_Feb_14_1220,posner,3.1.5,59.96027032480449,
-0.5,0,1,left,1,3,1,0,1,0,8,4,68,0,,,,,,,,,431.0898244,431.58989440000005,432.30750009999974,None,431.60670109999955,432.29087509999954,432.80837710000014,None,left,1,432.80837710000014,None,None,431.60670109999955,432.7914198999997,0.5116666999992958,0.5949388999997609,1.7131811999997808,1.7966919000000416,0.3960299999998824,,,,,,priya_2,001,2020_Feb_14_1220,posner,3.1.5,59.96027032480449,
-0.5,180,0,left,2,3,1,0,1,0,8,5,69,4,,,,,,,,,433.2264713000004,433.7261728000003,434.4435970000004,None,433.74284549999993,434.4270168000003,434.9443838999996,435.4287991000001,left,1,434.9443838999996,None,None,433.74284549999993,434.92795790000037,0.5115399999995134,0.5950630999996065,1.7132964000002175,1.7964867000000595,0.4842112000005727,,,,,,priya_2,001,2020_Feb_14_1220,posner,3.1.5,59.96027032480449,
0.5,180,1,right,2,4,1,0,1,0,8,6,70,5,,,,,,,,,435.44635500000004,435.9458996000003,436.66347529999985,None,435.96253760000036,436.6468525999999,437.16435850000016,437.64833590000035,right,1,437.16435850000016,None,None,435.96253760000036,437.1474784000002,0.5112354000002597,0.594767700000375,1.7127981000003274,1.796198099999856,0.4722516000001633,,,,,,priya_2,001,2020_Feb_14_1220,posner,3.1.5,59.96027032480449,
0.5,180,1,right,2,4,1,0,1,0,8,7,71,7,,,,,,,,,437.6657912999999,438.1657629000001,438.88308750000033,None,438.1821554999997,438.86654199999975,439.3836788999997,None,right,1,439.3836788999997,None,None,438.1821554999997,439.367158,0.5117890000001353,0.5951571999994485,1.7131672999994407,1.796724799999538,0.3407937000001766,,,,,,priya_2,001,2020_Feb_14_1220,posner,3.1.5,59.96027032480449,
-0.5,180,0,left,2,3,1,0,1,0,9,0,72,4,,,,,,,,,439.75163369999973,440.2517189,440.9696696000001,None,440.2685762000001,440.95268039999974,441.4701587999998,None,left,1,441.4701587999998,None,None,440.2685762000001,441.45337370000016,0.5115274999998292,0.5951274999997622,1.7131647999995039,1.7967120000002978,0.44620209999993676,,,,,,priya_2,001,2020_Feb_14_1220,posner,3.1.5,59.96027032480449,
0.5,180,1,right,2,4,1,0,1,0,9,1,73,5,,,,,,,,,441.93823859999975,442.4380885999999,443.15589910000017,None,442.4548380999995,443.13915220000035,443.6564639999997,None,right,1,443.6564639999997,None,None,442.4548380999995,443.63995520000026,0.511326700000609,0.5946521000005305,1.7131623000004765,1.7964723000004597,0.33195599999999104,,,,,,priya_2,001,2020_Feb_14_1220,posner,3.1.5,59.96027032480449,
-0.5,0,1,left,1,3,1,0,1,0,9,2,74,1,,,,,,,,,444.00757049999993,444.5076393999998,445.2253074999999,None,444.52408110000033,445.2087534000002,445.7259828999995,None,left,1,445.7259828999995,None,None,444.52408110000033,445.7094158,0.5111896999997043,0.5946648999997706,1.7129509999995207,1.7961359000000812,0.3424897000004421,,,,,,priya_2,001,2020_Feb_14_1220,posner,3.1.5,59.96027032480449,
-0.5,0,1,left,1,3,1,0,1,0,9,3,75,0,,,,,,,,,446.09420899999986,446.5938035999998,447.31155969999963,None,446.6104941000003,447.29488519999995,447.81219039999996,448.29627619999974,left,1,447.81219039999996,None,None,446.6104941000003,447.79566129999967,0.5115395999991961,0.5950687999993534,1.7133742999994865,1.796693199999936,0.4882520999999542,,,,,,priya_2,001,2020_Feb_14_1220,posner,3.1.5,59.96027032480449,
0.5,180,1,right,2,4,1,0,1,0,9,4,76,6,,,,,,,,,448.3300726999996,448.83018360000005,449.54794539999966,None,448.8470070000003,449.5313280999999,450.04884370000036,None,right,1,450.04884370000036,None,None,448.8470070000003,450.03184129999954,0.5117325000001074,0.5951446999997643,1.7133768000003329,1.796914999999899,0.45955639999920095,,,,,,priya_2,001,2020_Feb_14_1220,posner,3.1.5,59.96027032480449,
-0.5,0,1,left,1,3,1,0,1,0,9,5,77,2,,,,,,,,,450.5335046,451.03331400000025,451.7510994000004,None,451.05006070000036,451.7342736999999,452.25158029999966,452.7357971000001,left,1,452.25158029999966,None,None,451.05006070000036,452.23482309999963,0.5112944000002244,0.5947956999998496,1.7128319000003103,1.7964218999995865,0.736946099999841,,,,,,priya_2,001,2020_Feb_14_1220,posner,3.1.5,59.96027032480449,
0.5,180,1,right,2,4,1,0,1,0,9,6,78,7,,,,,,,,,453.0196355999997,453.5202440000003,454.23755919999985,None,453.53684989999965,454.2212429000001,454.73842609999974,455.2223971000003,right,1,454.73842609999974,None,None,453.53684989999965,454.7218120999996,0.5118097000004127,0.5949952000000849,1.7133790999996563,1.7967799999996714,0.5061360999998215,,,,,,priya_2,001,2020_Feb_14_1220,posner,3.1.5,59.96027032480449,
0.5,0,0,right,1,4,1,0,1,0,9,7,79,3,,,,,,,,,455.27350639999986,455.7734150999995,456.4909224000003,None,455.7899902999998,456.4741455000003,456.99151710000024,None,right,1,456.99151710000024,None,None,455.7899902999998,456.9747271999995,0.5116860000007364,0.5948914000000514,1.7129772000007506,1.796478900000693,0.428936799999974,,,,,,priya_2,001,2020_Feb_14_1220,posner,3.1.5,59.96027032480449,
-0.5,0,1,left,1,3,1,0,1,0,10,0,80,1,,,,,,,,,457.44288890000007,457.9427867000004,458.6605034000004,None,457.9595803000002,458.6437039000002,459.1611958000003,459.6454240000003,left,1,459.1611958000003,None,None,457.9595803000002,459.1443399,0.51163170000018,0.5951003999998647,1.7131782999995266,1.7968418000000383,0.595294599999761,,,,,,priya_2,001,2020_Feb_14_1220,posner,3.1.5,59.96027032480449,
0.5,180,1,right,2,4,1,0,1,0,10,1,81,6,,,,,,,,,459.7792521000001,460.27954489999956,460.9970956999996,None,460.2961072999997,460.9805193000002,461.4978129000001,None,right,1,461.4978129000001,None,None,460.2961072999997,461.48097380000036,0.5118691999996372,0.5949368999999933,1.713297799999964,1.796684799999639,0.3865459999997256,,,,,,priya_2,001,2020_Feb_14_1220,posner,3.1.5,59.96027032480449,
-0.5,0,1,left,1,3,1,0,1,0,10,2,82,0,,,,,,,,,461.91556969999965,462.4156948,463.1332204999999,None,462.4322449000001,463.1167445000001,463.6337943999997,None,left,1,463.6337943999997,None,None,462.4322449000001,463.61736930000006,0.5115291000001889,0.5949464000004809,1.7131781000007322,1.7966400000004796,0.3385278000005201,,,,,,priya_2,001,2020_Feb_14_1220,posner,3.1.5,59.96027032480449,
0.5,180,1,right,2,4,1,0,1,0,10,3,83,5,,,,,,,,,464.00137559999985,464.5017932999999,465.21938059999957,None,464.5186383,465.20269759999974,465.7201611999999,466.20408469999984,right,1,465.7201611999999,None,None,464.5186383,465.70345689999976,0.5116310000003068,0.5954737000001842,1.7132729000004474,1.7968258000000787,0.6122752999999648,,,,,,priya_2,001,2020_Feb_14_1220,posner,3.1.5,59.96027032480449,
0.5,180,1,right,2,4,1,0,1,0,10,4,84,7,,,,,,,,,466.35516389999975,466.8550546999995,467.57251240000005,None,466.8716022999997,467.5562041000003,468.07331859999977,None,right,1,468.07331859999977,None,None,466.8716022999997,468.05673879999995,0.5118669000003138,0.5948134999998729,1.7132027999996353,1.7967945000000327,0.4590909999997166,,,,,,priya_2,001,2020_Feb_14_1220,posner,3.1.5,59.96027032480449,
0.5,0,0,right,1,4,1,0,1,0,10,5,85,3,,,,,,,,,468.55817000000025,469.0581616999998,469.77598920000037,None,469.07477329999983,469.7592463000001,470.2765853000001,468.55817000000025,right,1,470.2765853000001,None,None,469.07477329999983,470.25977539999985,0.5115851999998995,0.5948628000005556,1.7131835000000137,1.796326399999998,0.4077002000003631,,,,,,priya_2,001,2020_Feb_14_1220,posner,3.1.5,59.96027032480449,
-0.5,180,0,left,2,3,1,0,1,0,10,6,86,4,,,,,,,,,470.7110187999997,471.21117930000037,471.92884950000007,None,471.22801679999975,471.91193699999985,472.42947129999993,472.9132546000001,left,1,472.42947129999993,None,None,471.22801679999975,472.41258000000016,0.5115759000000253,0.5947917999992569,1.7129669999994803,1.7966593000001012,0.6949979999999414,,,,,,priya_2,001,2020_Feb_14_1220,posner,3.1.5,59.96027032480449,
-0.5,0,1,left,1,3,1,0,1,0,10,7,87,2,,,,,,,,,473.1472818000002,473.64782639999976,474.3654588999998,None,473.66439809999974,474.3488133000001,474.8662069000002,None,left,1,474.8662069000002,None,None,473.66439809999974,474.84939940000004,0.511526700000104,0.5949005000002217,1.7130882000001293,1.7964465000004566,0.33818650000011985,,,,,,priya_2,001,2020_Feb_14_1220,posner,3.1.5,59.96027032480449,
,,,,,,1,0,1,0,,,,,,,,,,,,,,,,,,,,,,,,,,,,,,,,,,475.2335638000004,None,1.5900000107649248e-05,0.9957617000000027,priya_2,001,2020_Feb_14_1220,posner,3.1.5,59.96027032480449,
-0.5,0,1,left,1,3,2,0,2,0,0,0,0,2,1.2700000297627412e-05,0.09748080000008486,536.2505892999998,None,1.4700000065204222e-05,0.09780569999929867,538.3533957999998,None,538.6232081999997,539.1211405000004,539.8388857999998,None,539.1377861999999,539.8220413999998,540.3397195999996,None,left,1,540.3397195999996,None,None,539.1377861999999,540.3228081999996,0.5064347999996244,0.5900418000001082,1.7080911000002743,1.7917373000000225,0.30449380000027304,,,,,,priya_2,001,2020_Feb_14_1220,posner,3.1.5,59.96027032480449,
-0.5,0,1,left,1,3,2,0,2,0,0,1,1,0,,,,,,,,,540.6735224000004,541.1741333,541.8917369999999,None,541.1908258000003,541.8751251000003,542.3924730999997,None,left,1,542.3924730999997,None,None,541.1908258000003,542.3758844000004,0.5113249999994878,0.5947274999998626,1.7130639999995765,1.7964439999996102,0.3399439999993774,,,,,,priya_2,001,2020_Feb_14_1220,posner,3.1.5,59.96027032480449,
0.5,180,1,right,2,4,2,0,2,0,0,2,2,7,,,,,,,,,542.7601584000004,543.2603472999999,543.9781131,None,543.2771225999995,543.9611132999999,544.4787739000003,None,right,1,544.4787739000003,None,None,543.2771225999995,544.4617519000003,0.5117439000005106,0.5951012000004994,1.7131305000002612,1.7968870000004245,0.2772949999998673,,,,,,priya_2,001,2020_Feb_14_1220,posner,3.1.5,59.96027032480449,
-0.5,0,1,left,1,3,2,0,2,0,0,3,3,1,,,,,,,,,544.7798955999997,545.2799410999996,545.9974531999997,None,545.2965797999996,545.9810195,546.4980285000001,None,left,1,546.4980285000001,None,None,545.2965797999996,546.4816271999998,0.5118791000004421,0.5950658000001567,1.7135654000003342,1.7968483000004198,0.2981626000000688,,,,,,priya_2,001,2020_Feb_14_1220,posner,3.1.5,59.96027032480449,
0.5,0,0,right,1,4,2,0,2,0,0,4,4,3,,,,,,,,,546.8164020000004,547.3159680999997,548.0336353000002,None,547.3326395000004,548.0168301000003,548.5344085999996,None,right,1,548.5344085999996,None,None,547.3326395000004,548.517503,0.5114855000001626,0.5949374000001626,1.713002399999823,1.795882299999903,0.30185070000061387,,,,,,priya_2,001,2020_Feb_14_1220,posner,3.1.5,59.96027032480449,
0.5,180,1,right,2,4,2,0,2,0,0,5,5,6,,,,,,,,,548.8514881000001,549.3518464999997,550.0697755000001,None,549.3686993000001,550.0529305999999,550.5705738999995,None,right,1,550.5705738999995,None,None,549.3686993000001,550.5536650000004,0.5116303000004336,0.5953902000001108,1.7134357000004456,1.7970052999999098,0.32973669999955746,,,,,,priya_2,001,2020_Feb_14_1220,posner,3.1.5,59.96027032480449,
-0.5,180,0,left,2,3,2,0,2,0,0,6,6,4,,,,,,,,,550.9217283999997,551.4215842000003,552.1392958999995,None,551.4381172000003,552.1226802000001,552.6401153999996,None,left,1,552.6401153999996,None,None,551.4381172000003,552.6231844000004,0.5115380999995978,0.5951299999996991,1.7131215999997949,1.7966341999999713,0.41213650000008784,,,,,,priya_2,001,2020_Feb_14_1220,posner,3.1.5,59.96027032480449,
0.5,180,1,right,2,4,2,0,2,0,0,7,7,5,,,,,,,,,553.0745306999997,553.5744068000004,554.2920881999999,None,553.5914176999995,554.2756149999996,554.7927479,None,right,1,554.7927479,None,None,553.5914176999995,554.7762438,0.5112042999999176,0.5947348999998212,1.7130244999998467,1.7964740999996138,0.20339590000003227,,,,,,priya_2,001,2020_Feb_14_1220,posner,3.1.5,59.96027032480449,
-0.5,180,0,left,2,3,2,0,2,0,1,0,8,4,,,,,,,,,555.0267015,555.5273783000002,556.2448403999997,None,555.5438064,556.2282159999995,556.7455741000003,None,left,1,556.7455741000003,None,None,555.5438064,556.7289019999998,0.5117663999999422,0.5950966000000335,1.713275899999644,1.7964386999992712,0.41073640000013256,,,,,,priya_2,001,2020_Feb_14_1220,posner,3.1.5,59.96027032480449,
-0.5,0,1,left,1,3,2,0,2,0,1,1,9,1,,,,,,,,,557.1803606000003,557.6802594999999,558.3977794000002,None,557.6966779000004,558.3812496,558.8986899000001,None,left,1,558.8986899000001,None,None,557.6966779000004,558.8817351999996,0.5116452000002027,0.594778700000461,1.7131054000001313,1.796726900000067,0.32167200000003504,,,,,,priya_2,001,2020_Feb_14_1220,posner,3.1.5,59.96027032480449,
0.5,180,1,right,2,4,2,0,2,0,1,2,10,7,,,,,,,,,559.2495854999997,559.7498738000004,560.4671624000002,None,559.7664570999996,560.4506401999997,560.9681586999995,None,right,1,560.9681586999995,None,None,559.7664570999996,560.9511804000003,0.5117703999994774,0.5950395999998364,1.7130693999997675,1.7966009000001577,0.31615419999980077,,,,,,priya_2,001,2020_Feb_14_1220,posner,3.1.5,59.96027032480449,
0.5,0,0,right,1,4,2,0,2,0,1,3,11,3,,,,,,,,,561.3027662000004,561.8023935000001,562.5202118999996,None,561.8192073,562.5034403999998,563.0208820999997,None,right,1,563.0208820999997,None,None,561.8192073,563.0040773999999,0.5112042999999176,0.5948418999996647,1.7128761999993003,1.7963740999994116,0.439468499999748,,,,,,priya_2,001,2020_Feb_14_1220,posner,3.1.5,59.96027032480449,
-0.5,0,1,left,1,3,2,0,2,0,1,4,12,0,,,,,,,,,563.4888924999996,563.9889364999999,564.7063957,None,564.0057163000001,564.6899765999997,565.2070739000001,None,left,1,565.2070739000001,None,None,564.0057163000001,565.1905122999997,0.5115028999998685,0.59477969999989,1.7130668999998306,1.7968627999998716,0.37310810000053607,,,,,,priya_2,001,2020_Feb_14_1220,posner,3.1.5,59.96027032480449,
0.5,180,1,right,2,4,2,0,2,0,1,5,13,6,,,,,,,,,565.6083021000004,566.1085726000001,566.8259046000003,None,566.1252082999999,566.8096024999995,567.3269668000003,None,right,1,567.3269668000003,None,None,566.1252082999999,567.3102526000002,0.5116447999998854,0.594790600000124,1.7133119000000079,1.7966085999996722,0.34919919999993,,,,,,priya_2,001,2020_Feb_14_1220,posner,3.1.5,59.96027032480449,
-0.5,0,1,left,1,3,2,0,2,0,1,6,14,2,,,,,,,,,567.6942852000002,568.1945401000003,568.9119799999999,None,568.2112053999999,568.8958282000003,569.4129419000001,None,left,1,569.4129419000001,None,None,568.2112053999999,569.3965200000002,0.5119486000003235,0.5955138999997871,1.713901000000078,1.7972110999999131,0.3031364999997095,,,,,,priya_2,001,2020_Feb_14_1220,posner,3.1.5,59.96027032480449,
0.5,180,1,right,2,4,2,0,2,0,1,7,15,5,,,,,,,,,569.7615014000003,570.2476368999996,570.9651205,None,570.2640615999999,570.9484126999996,571.4658355000001,None,right,1,571.4658355000001,None,None,570.2640615999999,571.4492284999997,0.5095608999999968,0.5928717000006145,1.7111392000006163,1.7944994999998016,0.29032660000029864,,,,,,priya_2,001,2020_Feb_14_1220,posner,3.1.5,59.96027032480449,
-0.5,0,1,left,1,3,2,0,2,0,2,0,16,2,,,,,,,,,571.7838270000002,572.2835499000003,573.0014052999995,None,572.3001419000002,572.9845593,573.5018717000003,None,left,1,573.5018717000003,None,None,572.3001419000002,573.4853089999997,0.5113639999999577,0.5947612999998455,1.7131233999998585,1.796795899999779,0.24619910000001255,,,,,,priya_2,001,2020_Feb_14_1220,posner,3.1.5,59.96027032480449,
0.5,180,1,right,2,4,2,0,2,0,2,1,17,6,,,,,,,,,573.7695133999996,574.2697785999999,574.9876050000003,None,574.2865116000003,574.9704806,575.4878675,None,right,1,575.4878675,None,None,574.2865116000003,575.4713106999998,0.5115618999998333,0.5947600999998031,1.7130781999994724,1.796434699999736,0.25225680000039574,,,,,,priya_2,001,2020_Feb_14_1220,posner,3.1.5,59.96027032480449,
-0.5,0,1,left,1,3,2,0,2,0,2,2,18,1,,,,,,,,,575.7725278999997,576.2725664999998,576.9902728999996,None,576.2893322,576.9734465000001,577.4907966000001,None,left,1,577.4907966000001,None,None,576.2893322,577.4740191999999,0.5117259999997259,0.5949775999997655,1.7131687000000966,1.7965997000001153,0.3373944000004485,,,,,,priya_2,001,2020_Feb_14_1220,posner,3.1.5,59.96027032480449,
-0.5,0,1,left,1,3,2,0,2,0,2,3,19,0,,,,,,,,,577.8583413999995,578.3586839999998,579.0762965000004,None,578.3752894999998,579.0597203999996,579.5771488999999,None,left,1,579.5771488999999,None,None,578.3752894999998,579.5604026000001,0.5115763000003426,0.5948125000004438,1.7132704000005106,1.7965186999999787,0.45086780000019644,,,,,,priya_2,001,2020_Feb_14_1220,posner,3.1.5,59.96027032480449,
0.5,0,0,right,1,4,2,0,2,0,2,4,20,3,,,,,,,,,580.0445763999996,580.5449710000003,581.2624427999999,None,580.5618254999999,581.2459835,581.7632635999998,582.2474807999997,right,1,581.7632635999998,None,None,580.5618254999999,581.7466236,0.512346599999546,0.5955673999997089,1.7137263999993593,1.7971528999996735,0.496809199999916,,,,,,priya_2,001,2020_Feb_14_1220,posner,3.1.5,59.96027032480449,
0.5,180,1,right,2,4,2,0,2,0,2,5,21,5,,,,,,,,,582.2816219999995,582.7815603999998,583.4989631999997,None,582.7981520000003,583.4821896000003,583.9999926999999,None,right,1,583.9999926999999,None,None,582.7981520000003,583.9830553000002,0.5117502000002787,0.5950794999998834,1.7132330000004004,1.7964322999996511,0.42818939999961003,,,,,,priya_2,001,2020_Feb_14_1220,posner,3.1.5,59.96027032480449,
-0.5,180,0,left,2,3,2,0,2,0,2,6,22,4,,,,,,,,,584.4512089,584.9510044999997,585.668885,None,584.9678010999996,585.6518900000001,586.1695327999996,None,left,1,586.1695327999996,None,None,584.9678010999996,586.1527471999998,0.5116167000005589,0.5950456000000486,1.7133474000002025,1.7969101000007868,0.4425413999997545,,,,,,priya_2,001,2020_Feb_14_1220,posner,3.1.5,59.96027032480449,
0.5,180,1,right,2,4,2,0,2,0,2,7,23,7,,,,,,,,,586.6376081999997,587.1374431000004,587.8551121,None,587.1540050000003,587.8382484000003,588.355697,None,right,1,588.355697,None,None,587.1540050000003,588.3390534999999,0.5114011999994545,0.5948621999996249,1.7129870999997365,1.7961076999999932,0.4004362999994555,,,,,,priya_2,001,2020_Feb_14_1220,posner,3.1.5,59.96027032480449,
-0.5,0,1,left,1,3,2,0,2,0,3,0,24,1,,,,,,,,,588.7737852,589.2739743000002,589.9913766,None,589.2903272000003,589.9745393000003,590.4917398999996,590.9761719999997,left,1,590.4917398999996,None,None,589.2903272000003,590.4753856999996,0.5118932999994286,0.5952015999992,1.7132830000000467,1.7967996999996103,0.47247299999980896,,,,,,priya_2,001,2020_Feb_14_1220,posner,3.1.5,59.96027032480449,
0.5,180,1,right,2,4,2,0,2,0,3,1,25,7,,,,,,,,,590.9931989999995,591.4932378000003,592.2108423999998,None,591.5100564000004,592.1943447000003,592.7115058999998,None,right,1,592.7115058999998,None,None,591.5100564000004,592.6951479999998,0.5113719000000856,0.59504459999971,1.713260900000023,1.796340500000042,0.38073219999932917,,,,,,priya_2,001,2020_Feb_14_1220,posner,3.1.5,59.96027032480449,
-0.5,180,0,left,2,3,2,0,2,0,3,2,26,4,,,,,,,,,593.1131707000004,593.6127693999997,594.3306930999997,None,593.6296978,594.3138253999996,594.8313043999997,None,left,1,594.8313043999997,None,None,593.6296978,594.8145784999997,0.5112936000004993,0.5947883000008005,1.713093200000003,1.7964348000004975,0.4367279999996754,,,,,,priya_2,001,2020_Feb_14_1220,posner,3.1.5,59.96027032480449,
0.5,180,1,right,2,4,2,0,2,0,3,3,27,5,,,,,,,,,595.2989641000004,595.7994884999998,596.5167558000003,None,595.8159237,596.5002625999996,597.0176609,597.5016038000003,right,1,597.0176609,None,None,595.8159237,597.0009047000003,0.5118103000004339,0.5949141000000964,1.7132245000002513,1.7966222000004564,0.8746133000004193,,,,,,priya_2,001,2020_Feb_14_1220,posner,3.1.5,59.96027032480449,
0.5,180,1,right,2,4,2,0,2,0,3,4,28,6,,,,,,,,,597.9198428999998,598.4193815999997,599.1372585999998,None,598.4363671000001,599.1205011000002,599.6379464000001,600.1217952999996,right,1,599.6379464000001,None,None,598.4363671000001,599.6211568999997,0.5112808000003497,0.5948207999999795,1.7130342999998902,1.7966146999997363,0.5100703999996767,,,,,,priya_2,001,2020_Feb_14_1220,posner,3.1.5,59.96027032480449,
0.5,0,0,right,1,4,2,0,2,0,3,5,29,3,,,,,,,,,600.1728948999998,600.6727721999996,601.3904814999996,None,600.6895406000003,601.3734946000004,601.8907830999997,602.3751376999999,right,1,601.8907830999997,None,None,600.6895406000003,601.8743121999996,0.5114692999995896,0.5948940999996921,1.7130102999999508,1.7965924999998606,0.5454088999995292,,,,,,priya_2,001,2020_Feb_14_1220,posner,3.1.5,59.96027032480449,
-0.5,0,1,left,1,3,2,0,2,0,3,6,30,2,,,,,,,,,602.4593562999999,602.9592763999999,603.6769852999996,None,602.9758822000003,603.6600921999998,604.1777369000001,None,left,1,604.1777369000001,None,None,602.9758822000003,604.1609765000003,0.5113768000001073,0.5946026999999958,1.7130644999997457,1.7963589000000866,0.4503341999998156,,,,,,priya_2,001,2020_Feb_14_1220,posner,3.1.5,59.96027032480449,
-0.5,0,1,left,1,3,2,0,2,0,3,7,31,0,,,,,,,,,604.6460484999998,605.1456963,605.8630327999999,None,605.1620483999995,605.8464803999996,606.3639136000002,606.8479295999996,left,1,606.3639136000002,None,None,605.1620483999995,606.3473604000001,0.5114352999999028,0.5947003999999652,1.713084600000002,1.7964379000004556,0.52021220000006,,,,,,priya_2,001,2020_Feb_14_1220,posner,3.1.5,59.96027032480449,
-0.5,0,1,left,1,3,2,0,2,0,4,0,32,2,,,,,,,,,606.9152124000002,607.4153626999996,608.1328077999997,None,607.4319126,608.1163991000003,608.6337956999996,None,left,1,608.6337956999996,None,None,607.4319126,608.6179043000002,0.511549500000001,0.5949967999995351,1.7140628999995897,1.796285700000226,0.3384130999993431,,,,,,priya_2,001,2020_Feb_14_1220,posner,3.1.5,59.96027032480449,
-0.5,0,1,left,1,3,2,0,2,0,4,1,33,1,,,,,,,,,609.0011875999999,609.5012090999999,610.2189699999999,None,609.5182384999998,610.2023796000003,610.7199621999998,None,left,1,610.7199621999998,None,None,609.5182384999998,610.7032417999999,0.5115090999997847,0.5953397000002951,1.7135285000003933,1.7969395000000077,0.30818730000009964,,,,,,priya_2,001,2020_Feb_14_1220,posner,3.1.5,59.96027032480449,
-0.5,0,1,left,1,3,2,0,2,0,4,2,34,0,,,,,,,,,611.0543351999995,611.5542949999999,612.2724618000002,None,611.5709109999998,612.2553646999995,612.7728168000003,None,left,1,612.7728168000003,None,None,611.5709109999998,612.7559943999995,0.5115402000001268,0.594853300000068,1.7131738000007317,1.7967280000002575,0.30321809999986726,,,,,,priya_2,001,2020_Feb_14_1220,posner,3.1.5,59.96027032480449,
-0.5,180,0,left,2,3,2,0,2,0,4,3,35,4,,,,,,,,,613.1068985000002,613.6072076,614.3249781000004,None,613.6237740999995,614.3080910999997,614.8255315999995,None,left,1,614.8255315999995,None,None,613.6237740999995,614.8088459,0.5114371999998184,0.5946664000002784,1.7130612999999357,1.7964412000001175,0.306536000000051,,,,,,priya_2,001,2020_Feb_14_1220,posner,3.1.5,59.96027032480449,
0.5,180,1,right,2,4,2,0,2,0,4,4,36,5,,,,,,,,,615.1600932000001,615.6600596999997,616.3777929999997,None,615.6768371999997,616.3609862000003,616.8784065,None,right,1,616.8784065,None,None,615.6768371999997,616.8616364999998,0.5115833999998358,0.5948756999996476,1.7131381999997757,1.7968418000000383,0.3896512999999686,,,,,,priya_2,001,2020_Feb_14_1220,posner,3.1.5,59.96027032480449,
0.5,0,0,right,1,4,2,0,2,0,4,5,37,3,,,,,,,,,617.2964249999995,617.7964659999998,618.5136845999996,None,617.8128556000001,618.4973103000002,619.0147217000003,None,right,1,619.0147217000003,None,None,617.8128556000001,618.9978781,0.511535399999957,0.5948804999998174,1.7129327000002377,1.7963973999994778,0.37349819999963074,,,,,,priya_2,001,2020_Feb_14_1220,posner,3.1.5,59.96027032480449,
0.5,180,1,right,2,4,2,0,2,0,4,6,38,6,,,,,,,,,619.4159544000004,619.9159732999997,620.6334625999998,None,619.9325188000003,620.6168983999996,621.1341429000004,None,right,1,621.1341429000004,None,None,619.9325188000003,621.1175444,0.5114546000004339,0.5946925999996893,1.71301080000012,1.7964073000002827,0.32593919999999343,,,,,,priya_2,001,2020_Feb_14_1220,posner,3.1.5,59.96027032480449,
0.5,180,1,right,2,4,2,0,2,0,4,7,39,7,,,,,,,,,621.4853940000003,621.9852566999998,622.7029972999999,None,622.0019900999996,622.6863592,623.2036483000002,None,right,1,623.2036483000002,None,None,622.0019900999996,623.1871228999998,0.511623100000179,0.5952332000006209,1.713456800000131,1.796997000000374,0.32033920000048965,,,,,,priya_2,001,2020_Feb_14_1220,posner,3.1.5,59.96027032480449,
0.5,180,1,right,2,4,2,0,2,0,5,0,40,7,,,,,,,,,623.5550211,624.0550910000002,624.7728907999999,None,624.0713667,624.7559635999996,625.2738218000004,None,right,1,625.2738218000004,None,None,624.0713667,625.2566428,0.5116593000002467,0.5950679000006858,1.7131968000003326,1.7965995000004114,0.40218600000025617,,,,,,priya_2,001,2020_Feb_14_1220,posner,3.1.5,59.96027032480449,
-0.5,180,0,left,2,3,2,0,2,0,5,1,41,4,,,,,,,,,625.7074850999998,626.2079542000001,626.9255933000004,None,626.2249574999996,626.9086287,627.4262663,627.9101217999996,left,1,627.4262663,None,None,626.2249574999996,627.4095491999997,0.5120600000000195,0.5953778000002785,1.7136402000005546,1.7969702999998844,0.4737595999995392,,,,,,priya_2,001,2020_Feb_14_1220,posner,3.1.5,59.96027032480449,
-0.5,0,1,left,1,3,2,0,2,0,5,2,42,1,,,,,,,,,627.9272631000003,628.4277418000001,629.1454174,None,628.4440728999998,629.1286219000003,629.6461385000002,None,left,1,629.6461385000002,None,None,628.4440728999998,629.6292554000001,0.5117382000007638,0.5948650000000271,1.7132389000007606,1.7965253000002122,0.31785370000034163,,,,,,priya_2,001,2020_Feb_14_1220,posner,3.1.5,59.96027032480449,
0.5,180,1,right,2,4,2,0,2,0,5,3,43,5,,,,,,,,,629.9802335000004,630.4802186999996,631.1980028999997,None,630.4971825000002,631.1813636999996,631.6987713999997,None,right,1,631.6987713999997,None,None,630.4971825000002,631.6820423999998,0.511717100000169,0.5951502999996592,1.7135064000003695,1.7968447000002925,0.4411387999998624,,,,,,priya_2,001,2020_Feb_14_1220,posner,3.1.5,59.96027032480449,
-0.5,0,1,left,1,3,2,0,2,0,5,4,44,0,,,,,,,,,632.1665778999995,632.6666273000001,633.3843334000003,None,632.6833676999995,633.3674848,633.8850284,634.3688757,left,1,633.8850284,None,None,632.6833676999995,633.8682654000004,0.5119241000002148,0.5954983000001448,1.7135436999997182,1.7969591999999466,0.6470174999994924,,,,,,priya_2,001,2020_Feb_14_1220,posner,3.1.5,59.96027032480449,
0.5,0,0,right,1,4,2,0,2,0,5,5,45,3,,,,,,,,,634.5531662000003,635.0531284999997,635.7713778999996,None,635.0700944999999,635.7544765000002,636.2719894000002,None,right,1,636.2719894000002,None,None,635.0700944999999,636.2551049000003,0.5113670999999158,0.5948883999999452,1.7133450999999695,1.7967890999998417,0.308057799999915,,,,,,priya_2,001,2020_Feb_14_1220,posner,3.1.5,59.96027032480449,
0.5,180,1,right,2,4,2,0,2,0,5,6,46,6,,,,,,,,,636.6061541999998,637.1060756999996,637.8235821999997,None,637.1226753999999,637.8072075,638.3244246000004,None,right,1,638.3244246000004,None,None,637.1226753999999,638.3077284999999,0.5115789000001314,0.5951862000001711,1.7132080000001224,1.7965573999999833,0.4636742000002414,,,,,,priya_2,001,2020_Feb_14_1220,posner,3.1.5,59.96027032480449,
-0.5,0,1,left,1,3,2,0,2,0,5,7,47,2,,,,,,,,,638.8094596000001,639.3091547000004,640.0267182999996,None,639.3260689999997,640.0100675000003,640.5276501999997,638.8094596000001,left,1,640.5276501999997,None,None,639.3260689999997,640.5107328000004,0.5112635000004957,0.5946586999998544,1.7128300000003946,1.7962882000001628,0.41230539999924076,,,,,,priya_2,001,2020_Feb_14_1220,posner,3.1.5,59.96027032480449,
-0.5,0,1,left,1,3,2,0,2,0,6,0,48,2,,,,,,,,,640.9622364999996,641.4620434999997,642.1798548999996,None,641.4788920999999,642.1631252999996,642.6805801999999,None,left,1,642.6805801999999,None,None,641.4788920999999,642.6636699000001,0.5113832999995793,0.5948847999998179,1.713002299999971,1.7964082999997117,0.4114190000000235,,,,,,priya_2,001,2020_Feb_14_1220,posner,3.1.5,59.96027032480449,
0.5,180,1,right,2,4,2,0,2,0,6,1,49,5,,,,,,,,,643.115245,643.6153414999999,644.3327527000001,None,643.6317945999999,644.3162278999998,644.8333939000004,None,right,1,644.8333939000004,None,None,643.6317945999999,644.8167322999998,0.5116868000004615,0.5948190999997678,1.7130630999999994,1.7964975000004415,0.45853710000028514,,,,,,priya_2,001,2020_Feb_14_1220,posner,3.1.5,59.96027032480449,
0.5,180,1,right,2,4,2,0,2,0,6,2,50,7,,,,,,,,,645.318064,645.8183796000003,646.5359929999995,None,645.8349748999999,646.5191707000004,647.0365467000001,647.5205477,right,1,647.0365467000001,None,None,645.8349748999999,647.0198056999998,0.5118978000000425,0.5950542999999016,1.7133038000001761,1.796593799999755,0.5034387000005154,,,,,,priya_2,001,2020_Feb_14_1220,posner,3.1.5,59.96027032480449,
-0.5,0,1,left,1,3,2,0,2,0,6,3,51,1,,,,,,,,,647.5708254000001,648.0711468999998,648.7887038999997,None,648.0880146,648.7722430000003,649.2894389000003,649.7737851000002,left,1,649.2894389000003,None,None,648.0880146,649.2728778999999,0.5116733999993812,0.5951563999997234,1.7133856999998898,1.7967837999995027,0.5704572999993616,,,,,,priya_2,001,2020_Feb_14_1220,posner,3.1.5,59.96027032480449,
0.5,0,0,right,1,4,2,0,2,0,6,4,52,3,,,,,,,,,649.8909405000004,650.3910038000004,651.1089396999996,None,650.4079540000002,651.0919942999999,651.6093321999997,None,right,1,651.6093321999997,None,None,650.4079540000002,651.5925919000001,0.5110986999998204,0.5946581999996852,1.7126686000001428,1.7964726000000155,0.4425800999997591,,,,,,priya_2,001,2020_Feb_14_1220,posner,3.1.5,59.96027032480449,
-0.5,180,0,left,2,3,2,0,2,0,6,5,53,4,,,,,,,,,652.0773915999998,652.577644,653.2952139999998,None,652.5941712000003,653.2784338000001,653.7958668000001,654.2798818000001,None,0,653.7958668000001,None,None,652.5941712000003,653.7791519000002,0.511657699999887,0.5949916999998095,1.713144999999713,1.7963909999998577,,,,,,,priya_2,001,2020_Feb_14_1220,posner,3.1.5,59.96027032480449,
0.5,180,1,right,2,4,2,0,2,0,6,6,54,6,,,,,,,,,654.7806530999997,655.2812074000003,655.9989207999997,654.7806530999997,655.2980586000003,655.9819871999998,656.4995386,None,right,1,656.4995386,None,None,655.2980586000003,656.4827747999998,0.5137126999998145,0.5971780999998373,1.715263099999902,1.7988073999995322,0.41647959999954764,,,,,,priya_2,001,2020_Feb_14_1220,posner,3.1.5,59.96027032480449,
-0.5,0,1,left,1,3,2,0,2,0,6,7,55,0,,,,,,,,,656.9342777000002,657.4340807999997,658.1516522000002,None,657.4508367999997,658.1350726999999,658.6524571999998,None,left,1,658.6524571999998,None,None,657.4508367999997,658.6359894999996,0.5114913000006709,0.5951859000006152,1.7133787000002485,1.79666940000061,0.3034714999994321,,,,,,priya_2,001,2020_Feb_14_1220,posner,3.1.5,59.96027032480449,
-0.5,0,1,left,1,3,2,0,2,0,7,0,56,0,,,,,,,,,658.9870203,659.4870146000003,660.2046438999996,None,659.5035894000002,660.1880510000001,660.7052224999998,661.1892927999997,left,1,660.7052224999998,None,None,659.5035894000002,660.6889011000003,0.5113928999999189,0.5949324000002889,1.713255499999832,1.7967541999996683,0.6827358000000459,,,,,,priya_2,001,2020_Feb_14_1220,posner,3.1.5,59.96027032480449,
0.5,180,1,right,2,4,2,0,2,0,7,1,57,7,,,,,,,,,661.4073527999999,661.9069533000002,662.6249183,None,661.9236297999996,662.6079767000001,663.1253374999997,None,right,1,663.1253374999997,None,None,661.9236297999996,663.1086567000002,0.5113041000004159,0.5948806000005789,1.7129920000006678,1.7962904000005437,0.41452380000009725,,,,,,priya_2,001,2020_Feb_14_1220,posner,3.1.5,59.96027032480449,
-0.5,0,1,left,1,3,2,0,2,0,7,2,58,1,,,,,,,,,663.5596736999996,664.0599832999997,664.7774300000001,None,664.0767900999999,664.7607853999998,665.2782863000002,None,left,1,665.2782863000002,None,None,664.0767900999999,665.2614623999998,0.5117314999997689,0.5949487999996563,1.713190499999655,1.7970313999994687,0.3497344000006706,,,,,,priya_2,001,2020_Feb_14_1220,posner,3.1.5,59.96027032480449,
0.5,180,1,right,2,4,2,0,2,0,7,3,59,5,,,,,,,,,665.6464109999997,666.1461341000004,666.8638338000001,None,666.1628373000003,666.8472550999995,667.3642356,None,right,1,667.3642356,None,None,666.1628373000003,667.3477964000003,0.5111314999994647,0.5947583999995913,1.7127705000002607,1.7961347000000387,0.327603700000509,,,,,,priya_2,001,2020_Feb_14_1220,posner,3.1.5,59.96027032480449,
-0.5,180,0,left,2,3,2,0,2,0,7,4,60,4,,,,,,,,,667.7156194999998,668.2156760999997,668.9328760999997,None,668.2321663000002,668.9166821999997,669.4339248999995,None,left,1,669.4339248999995,None,None,668.2321663000002,669.4174028999996,0.5116255000002639,0.5950149000000238,1.713338499999736,1.796854500000336,0.32988939999995637,,,,,,priya_2,001,2020_Feb_14_1220,posner,3.1.5,59.96027032480449,
0.5,180,1,right,2,4,2,0,2,0,7,5,61,6,,,,,,,,,669.7853886000003,670.2851578,671.0028253,None,670.3018782999998,670.9861822000003,671.5036045999996,None,right,1,671.5036045999996,None,None,670.3018782999998,671.4867618999997,0.5113150000006499,0.5947940000005474,1.712908200000129,1.7964517000000342,0.22833059999993566,,,,,,priya_2,001,2020_Feb_14_1220,posner,3.1.5,59.96027032480449,
-0.5,0,1,left,1,3,2,0,2,0,7,6,62,2,,,,,,,,,671.7546467000002,672.2546597,672.9720470000002,None,672.2716148,672.9556026999999,673.4729000999996,None,left,1,673.4729000999996,None,None,672.2716148,673.4562893000002,0.5116856999993615,0.5949965999998312,1.7132830000000467,1.796685599999364,0.2991252000001623,,,,,,priya_2,001,2020_Feb_14_1220,posner,3.1.5,59.96027032480449,
0.5,0,0,right,1,4,2,0,2,0,7,7,63,3,,,,,,,,,673.7912913999999,674.2906886999999,675.0084418999995,None,674.3075313999998,674.9915777999995,675.5089592000004,None,right,1,675.5089592000004,None,None,674.3075313999998,675.4922058000002,0.5111794000004011,0.5949012999999468,1.7126857000002929,1.796331900000041,0.4148600999997143,,,,,,priya_2,001,2020_Feb_14_1220,posner,3.1.5,59.96027032480449,
0.5,180,1,right,2,4,2,0,2,0,8,0,64,5,,,,,,,,,675.9434021999996,676.4435099000002,677.1613938,None,676.4604859000001,677.1446857999999,677.6621290000003,678.1461293000002,right,1,677.6621290000003,None,None,676.4604859000001,677.6454513999997,0.5119350000004488,0.5954523000000336,1.7138543000000936,1.797127900000305,0.48571519999950397,,,,,,priya_2,001,2020_Feb_14_1220,posner,3.1.5,59.96027032480449,
-0.5,0,1,left,1,3,2,0,2,0,8,1,65,2,,,,,,,,,678.1634965000003,678.6634119999999,679.3809460000002,None,678.6803217999995,679.3643347999996,679.8817681999999,None,left,1,679.8817681999999,None,None,678.6803217999995,679.8651657,0.5115310000001045,0.5950339000000895,1.7132738000000245,1.7967092999997476,0.46611360000042623,,,,,,priya_2,001,2020_Feb_14_1220,posner,3.1.5,59.96027032480449,
0.5,180,1,right,2,4,2,0,2,0,8,2,66,7,,,,,,,,,680.3667765,680.8665345,681.5839741999998,None,680.8829597000004,681.5673702000004,682.0847696999999,682.5688468999997,right,1,682.0847696999999,None,None,680.8829597000004,682.0681267,0.5113734000005934,0.5947346000002653,1.712953799999923,1.7961645000004864,0.52712800000063,,,,,,priya_2,001,2020_Feb_14_1220,posner,3.1.5,59.96027032480449,
0.5,180,1,right,2,4,2,0,2,0,8,3,67,6,,,,,,,,,682.6359051,683.1363449999999,683.8537291000002,None,683.1529011000002,683.8372014999995,684.3545124000002,None,right,1,684.3545124000002,None,None,683.1529011000002,684.3380213999999,0.5118219999994835,0.5951211000001422,1.7134871999996903,1.7966522999995505,0.41737519999969663,,,,,,priya_2,001,2020_Feb_14_1220,posner,3.1.5,59.96027032480449,
-0.5,180,0,left,2,3,2,0,2,0,8,4,68,4,,,,,,,,,684.7891020999996,685.2892399000002,686.0068484000003,None,685.3057554999996,685.9901337000001,686.5075495000001,None,left,1,686.5075495000001,None,None,685.3057554999996,686.4908925,0.5118158000004769,0.5950402999997095,1.7134517000004053,1.7967620999997962,0.3522003999996741,,,,,,priya_2,001,2020_Feb_14_1220,posner,3.1.5,59.96027032480449,
-0.5,0,1,left,1,3,2,0,2,0,8,5,69,1,,,,,,,,,686.8916431999996,687.3920857000003,688.1097983999998,None,687.4088191000001,688.0930551000001,688.6104413000003,None,left,1,688.6104413000003,None,None,687.4088191000001,688.5937673999997,0.5117873999997755,0.5953277999997226,1.7134519000001092,1.7971574000002875,0.36939300000085495,,,,,,priya_2,001,2020_Feb_14_1220,posner,3.1.5,59.96027032480449,
0.5,0,0,right,1,4,2,0,2,0,8,6,70,3,,,,,,,,,689.0112120000003,689.5114787000002,690.2293651,None,689.5284905999997,690.2125155000003,690.7300030999995,None,right,1,690.7300030999995,None,None,689.5284905999997,690.7132474999999,0.5114356999993106,0.595184299999346,1.713181999999506,1.796807899999294,0.3538487999994686,,,,,,priya_2,001,2020_Feb_14_1220,posner,3.1.5,59.96027032480449,
