targetX,cueOri,congr,corrAns,pin_cue,pin_target,block.thisRepN,block.thisTrialN,block.thisN,block.thisIndex,posner_task.thisRepN,posner_task.thisTrialN,posner_task.thisN,posner_task.thisIndex,port_start_block.started,port_start_block.stopped,text_2.started,text_2.stopped,p_port.started,p_port.stopped,text.started,text.stopped,fixation_1.started,fixation_1.stopped,fixation_2.started,fixation_2.stopped,cue.started,cue.stopped,target.started,target.stopped,correct_key_resp.keys,correct_key_resp.corr,correct_key_resp.rt,correct_key_resp.started,correct_key_resp.stopped,early_resp.keys,early_resp.started,early_resp.stopped,trigger_cue.started,trigger_cue.stopped,trigger_target.started,trigger_target.stopped,early_resp.rt,break_text.started,break_text.stopped,end_port.started,end_port.stopped,participant,session,date,expName,psychopyVersion,frameRate,
-0.5,180,0,left,2,3,0,0,0,0,0,0,0,4,1.6899999991437653e-05,0.09451549999994313,30.983868599999823,None,1.3600000784208532e-05,0.09930729999996402,32.86947559999999,None,33.20752510000011,33.703979999999774,34.4217064999998,None,33.72102919999952,34.40505639999947,34.92243019999978,None,left,1,0.2919772000004741,34.92243019999978,None,None,33.72102919999952,34.905804100000296,0.5056747999997242,0.5889680999998745,1.7074769000000742,1.7910260999997263,,,,,,lucie_1,001,2020_Feb_06_1316,posner,3.1.5,59.94535381540085,
0.5,0,0,right,1,4,0,0,0,0,0,1,1,3,,,,,,,,,35.24070309999979,35.74015780000036,36.45764910000025,None,35.75661889999947,36.44112040000027,36.958398499999475,None,right,1,0.2959319999999934,36.958398499999475,None,None,35.75661889999947,36.94179849999955,0.5104780000001483,0.5938974000000599,1.712106500000118,1.7954552000001058,,,,,,lucie_1,001,2020_Feb_06_1316,posner,3.1.5,59.94535381540085,
-0.5,0,1,left,1,3,0,0,0,0,0,2,2,2,,,,,,,,,37.276253100000304,37.776254799999606,38.4939647999995,None,37.793073399999685,38.477174500000274,38.99493759999996,None,left,1,0.22742870000001858,38.99493759999996,None,None,37.793073399999685,38.97785470000008,0.5113888999994742,0.5949676999998701,1.712976300000264,1.796630799999548,,,,,,lucie_1,001,2020_Feb_06_1316,posner,3.1.5,59.94535381540085,
0.5,180,1,right,2,4,0,0,0,0,0,3,3,7,,,,,,,,,39.24579810000023,39.74566040000036,40.46339709999984,None,39.7623509,40.4464995000003,40.9641945999997,None,right,1,0.24221509999915725,40.9641945999997,None,None,39.7623509,40.94730289999961,0.5116333999994822,0.595093399999314,1.7132588999993459,1.7967690999994375,,,,,,lucie_1,001,2020_Feb_06_1316,posner,3.1.5,59.94535381540085,
-0.5,0,1,left,1,3,0,0,0,0,0,4,4,0,,,,,,,,,41.23149270000022,41.73199059999979,42.4493023,None,41.74829720000025,42.432962999999745,42.95014709999987,None,left,1,0.2961059999997815,42.95014709999987,None,None,41.74829720000025,42.93341600000031,0.5123514999995677,0.5956367999997383,1.7137659999998505,1.7970612999997684,,,,,,lucie_1,001,2020_Feb_06_1316,posner,3.1.5,59.94535381540085,
-0.5,0,1,left,1,3,0,0,0,0,0,5,5,1,,,,,,,,,43.268016100000295,43.767717600000196,44.485495499999615,None,43.78468370000019,44.46878069999957,44.9860563999996,None,left,1,0.2683523999994577,44.9860563999996,None,None,43.78468370000019,44.969666999999845,0.511399199999687,0.5950215000002572,1.7133254999998826,1.7965985999999248,,,,,,lucie_1,001,2020_Feb_06_1316,posner,3.1.5,59.94535381540085,
0.5,180,1,right,2,4,0,0,0,0,0,6,6,5,,,,,,,,,45.27085669999951,45.77075229999946,46.48820680000017,None,45.78721369999994,46.47148969999989,46.98897530000022,None,right,1,0.24944870000035735,46.98897530000022,None,None,45.78721369999994,46.972237999999834,0.511699700000463,0.595078299999841,1.7131664999997156,1.7967521999999008,,,,,,lucie_1,001,2020_Feb_06_1316,posner,3.1.5,59.94535381540085,
0.5,180,1,right,2,4,0,0,0,0,0,7,7,6,,,,,,,,,47.25673830000005,47.75658869999961,48.47453009999981,None,47.773512299999766,48.45765230000006,48.9748711999996,None,right,1,0.2475942999999461,48.9748711999996,None,None,47.773512299999766,48.95820930000036,0.5114721999998437,0.595035999999709,1.7130535999995118,1.79658819999986,,,,,,lucie_1,001,2020_Feb_06_1316,posner,3.1.5,59.94535381540085,
0.5,180,1,right,2,4,0,0,0,0,1,0,8,5,,,,,,,,,49.242281499999535,49.74288149999984,50.46052399999962,None,49.759397700000136,50.44394719999991,50.961382400000275,None,right,1,0.22088800000074116,50.961382400000275,None,None,49.759397700000136,50.9446439999997,0.5114517000001797,0.5947657000006075,1.7132025999999314,1.7963889000002382,,,,,,lucie_1,001,2020_Feb_06_1316,posner,3.1.5,59.94535381540085,
0.5,180,1,right,2,4,0,0,0,0,1,1,9,7,,,,,,,,,51.21212200000036,51.71211770000036,52.43031569999994,None,51.72879729999977,52.41317449999997,52.9306031000001,None,right,1,0.3237123999997493,52.9306031000001,None,None,51.72879729999977,52.914078000000245,0.5116433000002871,0.5950542000000496,1.7135798000008435,1.7967139000002135,,,,,,lucie_1,001,2020_Feb_06_1316,posner,3.1.5,59.94535381540085,
-0.5,180,0,left,2,3,0,0,0,0,1,2,10,4,,,,,,,,,53.281959200000074,53.78179440000031,54.499334499999804,None,53.798272700000325,54.48283479999964,55.000076400000125,None,left,1,0.34234180000021297,55.000076400000125,None,None,53.798272700000325,54.98354100000006,0.5113658999998734,0.5946078999995734,1.713096399999813,1.7961833999997907,,,,,,lucie_1,001,2020_Feb_06_1316,posner,3.1.5,59.94535381540085,
0.5,0,0,right,1,4,0,0,0,0,1,3,11,3,,,,,,,,,55.36750230000007,55.86789559999988,56.585691900000256,None,55.88467579999951,56.5687426999998,57.0862345999999,None,left,0,0.2000634000005448,57.0862345999999,None,None,55.88467579999951,57.069766199999776,0.5113567999997031,0.5949110000001383,1.7132125999996788,1.7964893999997003,,,,,,lucie_1,001,2020_Feb_06_1316,posner,3.1.5,59.94535381540085,
-0.5,0,1,left,1,3,0,0,0,0,1,4,12,1,,,,,,,,,57.30380769999965,57.80422589999989,58.52179370000022,None,57.82062900000028,58.50492179999992,59.02241670000012,None,left,1,0.27988989999994374,59.02241670000012,None,None,57.82062900000028,59.00559959999964,0.5118814999996175,0.5949866000000839,1.7132384999995338,1.7968701999998302,,,,,,lucie_1,001,2020_Feb_06_1316,posner,3.1.5,59.94535381540085,
-0.5,0,1,left,1,3,0,0,0,0,1,5,13,0,,,,,,,,,59.32280330000003,59.82348930000035,60.54105120000031,None,59.84001430000035,60.524324599999545,61.041843499999686,None,left,1,0.2845610000003944,61.041843499999686,None,None,59.84001430000035,61.025184399999944,0.5124031000004834,0.595556299999771,1.7140728000003946,1.7973997999997664,,,,,,lucie_1,001,2020_Feb_06_1316,posner,3.1.5,59.94535381540085,
0.5,180,1,right,2,4,0,0,0,0,1,6,14,6,,,,,,,,,61.342767300000105,61.842759800000294,62.56069929999967,None,61.859616899999764,62.54378119999956,63.06120549999969,None,right,1,0.2410600000002887,63.06120549999969,None,None,61.859616899999764,63.04457750000029,0.5117018000000826,0.5953337999999349,1.7134986999999455,1.796696399999746,,,,,,lucie_1,001,2020_Feb_06_1316,posner,3.1.5,59.94535381540085,
-0.5,0,1,left,1,3,0,0,0,0,1,7,15,2,,,,,,,,,63.32877309999958,63.82900500000005,64.54646629999979,None,63.845568000000185,64.52993769999966,65.0465022000003,None,left,1,0.1917662999994718,65.0465022000003,None,None,63.845568000000185,65.03051499999992,0.5117553999998563,0.5951384999998481,1.7132280999994691,1.7968512999996165,,,,,,lucie_1,001,2020_Feb_06_1316,posner,3.1.5,59.94535381540085,
0.5,180,1,right,2,4,0,0,0,0,2,0,16,6,,,,,,,,,65.26437969999961,65.76504989999967,66.48280300000033,None,65.78174720000015,66.46566849999954,66.98338829999966,None,right,1,0.26284489999943617,66.98338829999966,None,None,65.78174720000015,66.96651710000015,0.5119668999996065,0.5951120999998238,1.713412000000062,1.796898599999622,,,,,,lucie_1,001,2020_Feb_06_1316,posner,3.1.5,59.94535381540085,
-0.5,0,1,left,1,3,0,0,0,0,2,1,17,0,,,,,,,,,67.26761769999985,67.76758829999972,68.48533369999996,None,67.78441129999965,68.46860470000001,68.98595100000011,None,left,1,0.21230569999988802,68.98595100000011,None,None,67.78441129999965,68.96947119999959,0.5113393000001452,0.5949148999998215,1.7131966999995711,1.7966377000002467,,,,,,lucie_1,001,2020_Feb_06_1316,posner,3.1.5,59.94535381540085,
0.5,0,0,right,1,4,0,0,0,0,2,2,18,3,,,,,,,,,69.22079929999973,69.72036729999991,70.4378855,None,69.73698809999996,70.42120939999995,70.93863319999991,None,right,1,0.2597546999995757,70.93863319999991,None,None,69.73698809999996,70.92205869999952,0.5110709000000497,0.594637899999725,1.7127430999998978,1.7960143000000244,,,,,,lucie_1,001,2020_Feb_06_1316,posner,3.1.5,59.94535381540085,
-0.5,0,1,left,1,3,0,0,0,0,2,3,19,1,,,,,,,,,71.22292319999951,71.72322680000025,72.44085949999999,None,71.73983960000032,72.42409540000017,72.94157369999948,None,left,1,0.19278610000037588,72.94157369999948,None,None,71.73983960000032,72.92500390000032,0.5118818999999348,0.5952569000000949,1.7136418000000049,1.7969268000006196,,,,,,lucie_1,001,2020_Feb_06_1316,posner,3.1.5,59.94535381540085,
0.5,180,1,right,2,4,0,0,0,0,2,4,20,5,,,,,,,,,73.15851969999994,73.65902069999947,74.37660019999976,None,73.67571799999996,74.36010229999965,74.87738179999951,None,right,1,0.120976399999563,74.87738179999951,None,None,73.67571799999996,74.86081220000005,0.5115858999997727,0.5952182000000903,1.7133508999995684,1.79688139999962,,,,,,lucie_1,001,2020_Feb_06_1316,posner,3.1.5,59.94535381540085,
-0.5,0,1,left,1,3,0,0,0,0,2,5,21,2,,,,,,,,,75.0279958999995,75.5282272999998,76.24600619999956,None,75.54502149999962,76.2296223999997,76.74658529999988,None,left,1,0.2516888000000108,76.74658529999988,None,None,75.54502149999962,76.73026909999999,0.511425199999394,0.5950288999993063,1.7134324999997261,1.7967462999995405,,,,,,lucie_1,001,2020_Feb_06_1316,posner,3.1.5,59.94535381540085,
0.5,180,1,right,2,4,0,0,0,0,2,6,22,7,,,,,,,,,77.01434980000022,77.51453559999982,78.23233389999996,None,77.53125320000026,78.2153757000001,78.7328935999999,None,right,1,0.22544199999992998,78.7328935999999,None,None,77.53125320000026,78.7159375999995,0.5118068000001585,0.5950560999999652,1.7131933999999092,1.7968684999996185,,,,,,lucie_1,001,2020_Feb_06_1316,posner,3.1.5,59.94535381540085,
-0.5,180,0,left,2,3,0,0,0,0,2,7,23,4,,,,,,,,,78.98409990000027,79.48408749999953,80.2014293999996,None,79.50064030000021,80.18504280000025,80.70224800000005,None,left,1,0.208125299999665,80.70224800000005,None,None,79.50064030000021,80.68537570000035,0.5118832999996812,0.5948822999998811,1.7131595999999263,1.7965811999993093,,,,,,lucie_1,001,2020_Feb_06_1316,posner,3.1.5,59.94535381540085,
-0.5,0,1,left,1,3,0,0,0,0,3,0,24,1,,,,,,,,,80.93668529999968,81.43635289999975,82.15432819999978,None,81.45319379999955,82.13739560000022,82.6549915999999,None,left,1,0.24735079999936715,82.6549915999999,None,None,81.45319379999955,82.63816929999984,0.5115493999992395,0.5951250999996773,1.7133421999997154,1.797009099999741,,,,,,lucie_1,001,2020_Feb_06_1316,posner,3.1.5,59.94535381540085,
-0.5,180,0,left,2,3,0,0,0,0,3,1,25,4,,,,,,,,,82.92252510000026,83.42258290000018,84.14039689999981,None,83.43921170000021,84.12363929999947,84.64100670000016,None,right,0,0.2373658999995314,84.64100670000016,None,None,83.43921170000021,84.6242844000003,0.5114474000001792,0.5949474000008195,1.7131270000008954,1.7963782000006177,,,,,,lucie_1,001,2020_Feb_06_1316,posner,3.1.5,59.94535381540085,
-0.5,0,1,left,1,3,0,0,0,0,3,2,26,0,,,,,,,,,84.90818319999971,85.40869059999977,86.12618109999994,None,85.42571540000017,86.10962229999996,86.62693689999969,None,left,1,0.29936409999936586,86.62693689999969,None,None,85.42571540000017,86.61037569999962,0.5115838000001531,0.5950702000000092,1.7132383999996819,1.7968541000000187,,,,,,lucie_1,001,2020_Feb_06_1316,posner,3.1.5,59.94535381540085,
0.5,180,1,right,2,4,0,0,0,0,3,3,27,7,,,,,,,,,86.94486689999985,87.44475949999969,88.16257350000024,None,87.46158210000021,88.14572780000026,88.66325159999951,None,right,1,0.27095209999970393,88.66325159999951,None,None,87.46158210000021,88.64647719999948,0.511762500000259,0.5949962000004234,1.713460699999814,1.7971644999997807,,,,,,lucie_1,001,2020_Feb_06_1316,posner,3.1.5,59.94535381540085,
0.5,180,1,right,2,4,0,0,0,0,3,4,28,6,,,,,,,,,88.96382059999951,89.4643586999996,90.18210849999969,None,89.48119290000022,90.16530730000022,90.68285239999977,None,right,1,0.31563329999971756,90.68285239999977,None,None,89.48119290000022,90.66571629999953,0.5118866999991951,0.5950434999995196,1.7132223999997223,1.7968008999996528,,,,,,lucie_1,001,2020_Feb_06_1316,posner,3.1.5,59.94535381540085,
0.5,180,1,right,2,4,0,0,0,0,3,5,29,5,,,,,,,,,91.01675449999993,91.51721049999969,92.23473969999986,None,91.53402219999998,92.21800289999965,92.73552770000015,None,right,1,0.3508734999995795,92.73552770000015,None,None,91.53402219999998,92.71872339999982,0.5114775000001828,0.594845599999644,1.7129642999998396,1.7966451000002053,,,,,,lucie_1,001,2020_Feb_06_1316,posner,3.1.5,59.94535381540085,
0.5,0,0,right,1,4,0,0,0,0,3,6,30,3,,,,,,,,,93.10332210000024,93.60348740000018,94.32093899999973,None,93.6201344999995,94.30446059999986,94.82165000000032,None,right,1,0.32899799999995594,94.82165000000032,None,None,93.6201344999995,94.8051002999996,0.5116711000000578,0.5948696000004929,1.7132712000002357,1.7964713000001211,,,,,,lucie_1,001,2020_Feb_06_1316,posner,3.1.5,59.94535381540085,
-0.5,0,1,left,1,3,0,0,0,0,3,7,31,2,,,,,,,,,95.17316590000019,95.67280470000014,96.3906538999995,None,95.68941380000024,96.37401279999949,96.89122739999993,None,left,1,0.2591755999992529,96.89122739999993,None,None,95.68941380000024,96.87448859999995,0.511302899999464,0.5947016999998596,1.7129648999998608,1.7962494999992487,,,,,,lucie_1,001,2020_Feb_06_1316,posner,3.1.5,59.94535381540085,
-0.5,180,0,left,2,3,0,0,0,0,4,0,32,4,,,,,,,,,97.17575389999956,97.6755535999996,98.39322200000015,None,97.69230970000035,98.37638649999963,98.89385230000016,None,left,1,0.2964163999995435,98.89385230000016,None,None,97.69230970000035,98.8771154000001,0.5115290999992794,0.5948756999996476,1.713079199999811,1.7968105999998443,,,,,,lucie_1,001,2020_Feb_06_1316,posner,3.1.5,59.94535381540085,
0.5,180,1,right,2,4,0,0,0,0,4,1,33,7,,,,,,,,,99.21232259999988,99.71186340000031,100.42989590000025,None,99.72831199999973,100.4126897000001,100.93051409999998,None,right,1,0.25985969999965164,100.93051409999998,None,None,99.72831199999973,100.91340069999978,0.511393799999496,0.5948040999992372,1.7129181999998764,1.796261699999377,,,,,,lucie_1,001,2020_Feb_06_1316,posner,3.1.5,59.94535381540085,
-0.5,0,1,left,1,3,0,0,0,0,4,2,34,1,,,,,,,,,101.21421270000019,101.71472640000002,102.43221459999995,None,101.73125800000025,102.4155636999999,102.9331371000003,None,left,1,0.23317440000028,102.9331371000003,None,None,101.73125800000025,102.91618710000012,0.5120623000002524,0.5951099000003524,1.7135115000000951,1.7968097000002672,,,,,,lucie_1,001,2020_Feb_06_1316,posner,3.1.5,59.94535381540085,
-0.5,0,1,left,1,3,0,0,0,0,4,3,35,2,,,,,,,,,103.1840887000003,103.68387349999966,104.40162699999973,None,103.7007563000002,104.38495099999955,104.90218119999963,None,left,1,0.3121865999992224,104.90218119999963,None,None,103.7007563000002,104.88565929999959,0.5115222000003996,0.5947838000001866,1.7132848999999624,1.7965045000000828,,,,,,lucie_1,001,2020_Feb_06_1316,posner,3.1.5,59.94535381540085,
0.5,180,1,right,2,4,0,0,0,0,4,4,36,6,,,,,,,,,105.23700669999971,105.73650669999961,106.45457310000029,None,105.7533914999999,106.43767230000003,106.95514200000025,None,right,1,0.16317770000023302,106.95514200000025,None,None,105.7533914999999,106.93835739999986,0.5112466000000495,0.5950945999993564,1.7130784000000858,1.796656399999847,,,,,,lucie_1,001,2020_Feb_06_1316,posner,3.1.5,59.94535381540085,
-0.5,0,1,left,1,3,0,0,0,0,4,5,37,0,,,,,,,,,107.13971609999999,107.6392165000002,108.35693579999997,None,107.65605310000001,108.34021960000018,108.85777550000012,109.34154189999981,None,0,,108.85777550000012,None,left,107.65605310000001,108.84118369999987,0.5113790999994308,0.5950296999999409,1.7133134999994581,1.7965312999995149,1.1262583000006998,,,,,lucie_1,001,2020_Feb_06_1316,posner,3.1.5,59.94535381540085,
0.5,0,0,right,1,4,0,0,0,0,4,6,38,3,,,,,,,,,109.84243709999964,110.34300320000011,111.06076079999957,109.84243709999964,110.35992769999984,111.0442121000001,111.56132250000019,None,right,1,0.3171447000004264,111.56132250000019,None,None,110.35992769999984,111.54484679999996,0.5133610000002591,0.5971268000002965,1.715183700000125,1.7984213000008822,,,,,,lucie_1,001,2020_Feb_06_1316,posner,3.1.5,59.94535381540085,
0.5,180,1,right,2,4,0,0,0,0,4,7,39,5,,,,,,,,,111.8954845000003,112.3957147999995,113.11354439999968,None,112.41257499999983,113.09677799999963,113.61444280000023,None,right,1,0.35992999999962194,113.61444280000023,None,None,112.41257499999983,113.59746359999963,0.5117646999997305,0.5956225999998424,1.7134979000002204,1.7969842000002245,,,,,,lucie_1,001,2020_Feb_06_1316,posner,3.1.5,59.94535381540085,
-0.5,180,0,left,2,3,0,0,0,0,5,0,40,4,,,,,,,,,113.9983344999996,114.49882209999987,115.21652390000008,None,114.51552099999981,115.19981390000021,115.71707829999968,None,left,1,0.36129369999980554,115.71707829999968,None,None,114.51552099999981,115.7005463999999,0.5116366000002017,0.5951167000002897,1.7133411000004344,1.7967656000000716,,,,,,lucie_1,001,2020_Feb_06_1316,posner,3.1.5,59.94535381540085,
0.5,180,1,right,2,4,0,0,0,0,5,1,41,5,,,,,,,,,116.10215169999947,116.60181619999958,117.31926369999974,None,116.6182732000002,117.30270590000009,117.82024109999975,None,right,1,0.23400199999923643,117.82024109999975,None,None,116.6182732000002,117.80332640000006,0.5113627000000633,0.5947517999993579,1.7128616999998485,1.7961797999996634,,,,,,lucie_1,001,2020_Feb_06_1316,posner,3.1.5,59.94535381540085,
-0.5,0,1,left,1,3,0,0,0,0,5,2,42,2,,,,,,,,,118.07113640000034,118.57109199999968,119.28887859999986,None,118.58767570000009,119.27211579999994,119.7895480000002,None,left,1,0.27281500000026426,119.7895480000002,None,None,118.58767570000009,119.77279630000021,0.5115529999993669,0.5950983999991877,1.7132331999991948,1.7965614999993704,,,,,,lucie_1,001,2020_Feb_06_1316,posner,3.1.5,59.94535381540085,
0.5,0,0,right,1,4,0,0,0,0,5,3,43,3,,,,,,,,,120.09050739999975,120.59055699999999,121.30809569999974,None,120.6071667000001,121.29172100000005,121.80882989999964,None,right,1,0.3414910999999847,121.80882989999964,None,None,120.6071667000001,121.7922926999995,0.5115415999998731,0.5951502000007167,1.713246700000127,1.7966261999999915,,,,,,lucie_1,001,2020_Feb_06_1316,posner,3.1.5,59.94535381540085,
0.5,180,1,right,2,4,0,0,0,0,5,4,44,6,,,,,,,,,122.17646899999954,122.6765891,123.39434940000001,None,122.69331899999952,123.3774929999995,123.89518449999969,None,right,1,0.3591202000006888,123.89518449999969,None,None,122.69331899999952,123.87826600000017,0.5116540000008172,0.595299999999952,1.7133123000003252,1.7969989000002897,,,,,,lucie_1,001,2020_Feb_06_1316,posner,3.1.5,59.94535381540085,
-0.5,0,1,left,1,3,0,0,0,0,5,5,45,1,,,,,,,,,124.2799743999999,124.77969230000008,125.49736770000027,None,124.79626469999994,125.48083999999972,125.99794079999947,None,left,1,0.32054189999962546,125.99794079999947,None,None,124.79626469999994,125.98147169999947,0.5117620000000898,0.5953362999998717,1.7135188000002017,1.796776499999396,,,,,,lucie_1,001,2020_Feb_06_1316,posner,3.1.5,59.94535381540085,
-0.5,0,1,left,1,3,0,0,0,0,5,6,46,0,,,,,,,,,126.34913159999951,126.84933690000025,127.56668579999996,None,126.86573240000007,127.5502292999995,128.06729959999984,None,left,1,0.3391994999992676,128.06729959999984,None,None,126.86573240000007,128.05089410000028,0.5116288999997778,0.5949719000000186,1.7131698999992295,1.7968528999999762,,,,,,lucie_1,001,2020_Feb_06_1316,posner,3.1.5,59.94535381540085,
0.5,180,1,right,2,4,0,0,0,0,5,7,47,7,,,,,,,,,128.43547629999966,128.93544780000002,129.65328550000004,None,128.95220029999973,129.63644599999998,130.15367409999953,None,right,1,0.324616299999434,130.15367409999953,None,None,128.95220029999973,130.13702700000022,0.5116990000005899,0.5949891999998727,1.713260600000467,1.7967263999998977,,,,,,lucie_1,001,2020_Feb_06_1316,posner,3.1.5,59.94535381540085,
-0.5,0,1,left,1,3,0,0,0,0,6,0,48,0,,,,,,,,,130.5047198999996,131.0050282999996,131.7225942,None,131.02174229999991,131.70594370000026,132.22328439999956,None,left,1,0.26293789999999717,132.22328439999956,None,None,131.02174229999991,132.20634219999965,0.5117895000003045,0.594992700000148,1.713092300000426,1.796787299999778,,,,,,lucie_1,001,2020_Feb_06_1316,posner,3.1.5,59.94535381540085,
0.5,180,1,right,2,4,0,0,0,0,6,1,49,5,,,,,,,,,132.50753209999993,133.0075893999997,133.72521430000006,None,133.02437529999997,133.7084804000001,134.2258214999997,None,right,1,0.2765595000000758,134.2258214999997,None,None,133.02437529999997,134.2094205999997,0.5115099999993618,0.5952535999995234,1.7133188999996491,1.7967815999991217,,,,,,lucie_1,001,2020_Feb_06_1316,posner,3.1.5,59.94535381540085,
-0.5,180,0,left,2,3,0,0,0,0,6,2,50,4,,,,,,,,,134.5266698999999,135.02700239999967,135.74463799999967,None,135.0437968000001,135.72793339999998,136.24556729999995,None,left,1,0.3447648000001209,136.24556729999995,None,None,135.0437968000001,136.22870730000022,0.5119299999996656,0.595657900000333,1.713616799999727,1.7971661999999924,,,,,,lucie_1,001,2020_Feb_06_1316,posner,3.1.5,59.94535381540085,
-0.5,0,1,left,1,3,0,0,0,0,6,3,51,1,,,,,,,,,136.61323089999996,137.1133348999997,137.83100669999976,None,137.12999809999974,137.81439889999956,138.3318863999998,None,left,1,0.3304961000003459,138.3318863999998,None,None,137.12999809999974,138.31516839999995,0.5115050000003976,0.5947057000003042,1.7133221000003687,1.7965844000000288,,,,,,lucie_1,001,2020_Feb_06_1316,posner,3.1.5,59.94535381540085,
0.5,180,1,right,2,4,0,0,0,0,6,4,52,7,,,,,,,,,138.68297349999966,139.18304949999992,139.90060399999993,None,139.1996607999995,139.8840352000002,140.4013275000002,None,right,1,0.2530943000001571,140.4013275000002,None,None,139.1996607999995,140.38450690000036,0.5117151000004014,0.594961499999954,1.713161499999842,1.79651610000019,,,,,,lucie_1,001,2020_Feb_06_1316,posner,3.1.5,59.94535381540085,
-0.5,0,1,left,1,3,0,0,0,0,6,5,53,2,,,,,,,,,140.68533359999992,141.1855072000003,141.90337429999954,None,141.20246929999985,141.88653000000022,142.4039189,None,left,1,0.30655620000015915,142.4039189,None,None,141.20246929999985,142.38723489999984,0.5117794999996477,0.5953372999993007,1.7134900999999445,1.7970320999993419,,,,,,lucie_1,001,2020_Feb_06_1316,posner,3.1.5,59.94535381540085,
0.5,0,0,right,1,4,0,0,0,0,6,6,54,3,,,,,,,,,142.73774449999974,143.2383549000001,143.95602499999995,None,143.25515640000003,143.93936150000036,144.45670949999976,None,right,1,0.31767689999924187,144.45670949999976,None,None,143.25515640000003,144.44015379999973,0.5116201999999248,0.5951408000000811,1.7133964000004198,1.796835000000101,,,,,,lucie_1,001,2020_Feb_06_1316,posner,3.1.5,59.94535381540085,
0.5,180,1,right,2,4,0,0,0,0,6,7,55,6,,,,,,,,,144.79123370000025,145.2912408999996,146.0089192999999,None,145.30797459999985,145.9922386000003,146.50975569999946,None,right,1,0.3844922999996925,146.50975569999946,None,None,145.30797459999985,146.49300970000013,0.5114730999994208,0.5950572000001557,1.7132197000000815,1.7964167000000089,,,,,,lucie_1,001,2020_Feb_06_1316,posner,3.1.5,59.94535381540085,
0.5,0,0,right,1,4,0,0,0,0,7,0,56,3,,,,,,,,,146.91091840000036,147.41098680000005,148.12846539999964,None,147.42782339999985,148.11196689999952,148.62949179999987,None,right,1,0.2969783999997162,148.62949179999987,None,None,147.42782339999985,148.6125490999998,0.5116312999998627,0.5950363000001744,1.7131812999996328,1.7967066000001068,,,,,,lucie_1,001,2020_Feb_06_1316,posner,3.1.5,59.94535381540085,
-0.5,0,1,left,1,3,0,0,0,0,7,1,57,2,,,,,,,,,148.94658109999955,149.44693940000025,150.16488679999975,None,149.4636403999998,150.14799360000006,150.6653970000002,None,left,1,0.2849258000005648,150.6653970000002,None,None,149.4636403999998,150.6486577999999,0.5111403000000792,0.594751699999506,1.7128413999998884,1.7963420999994923,,,,,,lucie_1,001,2020_Feb_06_1316,posner,3.1.5,59.94535381540085,
-0.5,0,1,left,1,3,0,0,0,0,7,2,58,1,,,,,,,,,150.96634159999985,151.46643910000012,152.1840374999997,None,151.48332059999984,152.1672881999998,152.68500259999973,None,left,1,0.28936090000024706,152.68500259999973,None,None,151.48332059999984,152.66805929999964,0.5116949000002933,0.5951396000000386,1.7132971000000907,1.7970009999999093,,,,,,lucie_1,001,2020_Feb_06_1316,posner,3.1.5,59.94535381540085,
0.5,180,1,right,2,4,0,0,0,0,7,3,59,7,,,,,,,,,153.0026541000002,153.50266899999997,154.22024370000008,None,153.5192376,154.20365900000024,154.72086230000014,None,right,1,0.26154349999978876,154.72086230000014,None,None,153.5192376,154.70437559999982,0.5116500000003725,0.5951503000005687,1.7133326000002853,1.7965232000005926,,,,,,lucie_1,001,2020_Feb_06_1316,posner,3.1.5,59.94535381540085,
0.5,180,1,right,2,4,0,0,0,0,7,4,60,6,,,,,,,,,155.00535379999974,155.50537899999972,156.22300589999986,None,155.52206280000019,156.20616000000018,156.72380250000015,None,right,1,0.31456249999973807,156.72380250000015,None,None,155.52206280000019,156.7068366999997,0.5114573999999266,0.5950514999994994,1.7129008000001704,1.7966264999995474,,,,,,lucie_1,001,2020_Feb_06_1316,posner,3.1.5,59.94535381540085,
0.5,180,1,right,2,4,0,0,0,0,7,5,61,5,,,,,,,,,157.0580573000002,157.5582669999999,158.2757005999997,None,157.57496519999995,158.2590593,158.7764671,None,right,1,0.405860599999869,158.7764671,None,None,157.57496519999995,158.76004669999975,0.5119654999998602,0.595362799999748,1.713721799999803,1.797176799999761,,,,,,lucie_1,001,2020_Feb_06_1316,posner,3.1.5,59.94535381540085,
-0.5,180,0,left,2,3,0,0,0,0,7,6,62,4,,,,,,,,,159.21120709999968,159.71131319999995,160.42936390000023,None,159.72794769999973,160.4120786999997,160.92970980000018,None,left,1,0.3326488000002428,160.92970980000018,None,None,159.72794769999973,160.91286069999978,0.5117898999997124,0.5952723999998852,1.7133207999995648,1.7965439999998125,,,,,,lucie_1,001,2020_Feb_06_1316,posner,3.1.5,59.94535381540085,
-0.5,0,1,left,1,3,0,0,0,0,7,7,63,0,,,,,,,,,161.28107279999995,161.7807332999996,162.49853140000005,None,161.79743980000012,162.48196719999987,162.9989697999995,None,left,1,0.2554715000005672,162.9989697999995,None,None,161.79743980000012,162.98249749999968,0.5114370000001145,0.5948200000002544,1.713186200000564,1.7964615999999296,,,,,,lucie_1,001,2020_Feb_06_1316,posner,3.1.5,59.94535381540085,
0.5,180,1,right,2,4,0,0,0,0,8,0,64,6,,,,,,,,,163.28342519999978,163.78355929999952,164.50119080000013,None,163.80027579999978,164.48438959999976,165.0018315000002,None,right,1,0.3165313999998034,165.0018315000002,None,None,163.80027579999978,164.9850781,0.5118691000006947,0.5952106000004278,1.7133794999999736,1.7969095000007655,,,,,,lucie_1,001,2020_Feb_06_1316,posner,3.1.5,59.94535381540085,
-0.5,0,1,left,1,3,0,0,0,0,8,1,65,1,,,,,,,,,165.3361018999999,165.83642240000017,166.5540777000001,None,165.85307239999975,166.53737239999964,167.05483030000005,None,left,1,0.24759400000039022,167.05483030000005,None,None,165.85307239999975,167.03812309999967,0.5118098000002647,0.5953515999999581,1.7134958000006009,1.7968950000004043,,,,,,lucie_1,001,2020_Feb_06_1316,posner,3.1.5,59.94535381540085,
0.5,0,0,right,1,4,0,0,0,0,8,2,66,3,,,,,,,,,167.3229706999996,167.82262630000014,168.54002569999966,None,167.83905170000025,168.52339019999954,169.04078319999962,None,right,1,0.33355419999952574,169.04078319999962,None,None,167.83905170000025,169.02417920000016,0.511472799999865,0.5946469999998953,1.7130114999999932,1.7962369999995644,,,,,,lucie_1,001,2020_Feb_06_1316,posner,3.1.5,59.94535381540085,
0.5,180,1,right,2,4,0,0,0,0,8,3,67,7,,,,,,,,,169.39175670000031,169.8920389,170.60966140000028,None,169.90847209999947,170.59288069999957,171.1102807000002,None,right,1,0.27226150000024063,171.1102807000002,None,None,169.90847209999947,171.0934382999999,0.5120624000001044,0.5953440000002956,1.7134509999996226,1.7968596999999136,,,,,,lucie_1,001,2020_Feb_06_1316,posner,3.1.5,59.94535381540085,
-0.5,0,1,left,1,3,0,0,0,0,8,4,68,2,,,,,,,,,171.41121220000014,171.91159029999972,172.62892539999984,None,171.92845110000007,172.61239139999952,173.12977720000026,None,left,1,0.3006649999997535,173.12977720000026,None,None,171.92845110000007,173.11285739999994,0.5118191000001389,0.5950514000005569,1.7130730000008043,1.7965188000007402,,,,,,lucie_1,001,2020_Feb_06_1316,posner,3.1.5,59.94535381540085,
0.5,180,1,right,2,4,0,0,0,0,8,5,69,5,,,,,,,,,173.44701729999952,173.94731999999976,174.66519209999979,None,173.96441499999992,174.64845879999984,175.16574119999996,None,right,1,0.25690299999951094,175.16574119999996,None,None,173.96441499999992,175.14944950000017,0.5111218000001827,0.5947817999995095,1.7132252000001245,1.796588399999564,,,,,,lucie_1,001,2020_Feb_06_1316,posner,3.1.5,59.94535381540085,
-0.5,0,1,left,1,3,0,0,0,0,8,6,70,0,,,,,,,,,175.45034989999976,175.95038239999985,176.6678356999996,None,175.96677979999959,176.65135710000004,177.16846750000013,None,left,1,0.29390460000013263,177.16846750000013,None,None,175.96677979999959,177.15185679999968,0.5117304999994303,0.5952311000000918,1.7131897999997818,1.7965617999998358,,,,,,lucie_1,001,2020_Feb_06_1316,posner,3.1.5,59.94535381540085,
-0.5,180,0,left,2,3,0,0,0,0,8,7,71,4,,,,,,,,,177.4861681999996,177.98631569999952,178.7041033999999,None,178.0030316999996,178.68730490000007,179.2048248999995,179.68868350000002,left,1,0.5215072000000873,179.2048248999995,None,None,178.0030316999996,179.18794879999996,0.5117275000002337,0.5951510000004419,1.7133435000005193,1.7970550000000003,,,,,,lucie_1,001,2020_Feb_06_1316,posner,3.1.5,59.94535381540085,
0.5,0,0,right,1,4,0,0,0,0,9,0,72,3,,,,,,,,,179.75583340000003,180.25599850000026,180.97394719999966,None,180.2729457999999,180.95713849999947,181.47464489999993,None,right,1,0.24375119999967865,181.47464489999993,None,None,180.2729457999999,181.45766959999992,0.5116029999999228,0.5953186000006099,1.7132549000007202,1.7969090000005963,,,,,,lucie_1,001,2020_Feb_06_1316,posner,3.1.5,59.94535381540085,
0.5,180,1,right,2,4,0,0,0,0,9,1,73,7,,,,,,,,,181.7425175000003,182.24248690000013,182.95984590000035,None,182.25891100000035,182.94332789999999,183.46069039999975,None,right,1,0.2735632000003534,183.46069039999975,None,None,182.25891100000035,183.44399289999956,0.5116558999998233,0.5949127999992925,1.7131453999991209,1.796443499999441,,,,,,lucie_1,001,2020_Feb_06_1316,posner,3.1.5,59.94535381540085,
-0.5,180,0,left,2,3,0,0,0,0,9,2,74,4,,,,,,,,,183.76178409999966,184.26166039999998,184.97944570000027,None,184.2782242999997,184.96262960000013,185.48050000000012,None,left,1,0.4058556999998473,185.48050000000012,None,None,184.2782242999997,185.46360289999984,0.5112894000003507,0.5947394000004351,1.7132219000004625,1.796100800000204,,,,,,lucie_1,001,2020_Feb_06_1316,posner,3.1.5,59.94535381540085,
-0.5,0,1,left,1,3,0,0,0,0,9,3,75,2,,,,,,,,,185.91435200000024,186.41500959999985,187.13249630000018,None,186.43148390000033,187.1155187999998,187.6332368999997,None,left,1,0.26908780000030674,187.6332368999997,None,None,186.43148390000033,187.6161950999999,0.5121821000002456,0.5952544000001581,1.7133506999998644,1.796948600000178,,,,,,lucie_1,001,2020_Feb_06_1316,posner,3.1.5,59.94535381540085,
-0.5,0,1,left,1,3,0,0,0,0,9,4,76,1,,,,,,,,,187.9341373000002,188.43427420000035,189.15194209999981,None,188.450824,189.1351252999998,189.6524413000002,None,left,1,0.22604660000069998,189.6524413000002,None,None,188.450824,189.6358249,0.5118232000004355,0.5950364999998783,1.7133586999998442,1.7967931000002864,,,,,,lucie_1,001,2020_Feb_06_1316,posner,3.1.5,59.94535381540085,
0.5,180,1,right,2,4,0,0,0,0,9,5,77,6,,,,,,,,,189.90350979999994,190.40378509999982,191.1210587999999,None,190.4202866999999,191.10470469999973,191.62195819999988,None,right,1,0.16843429999971704,191.62195819999988,None,None,190.4202866999999,191.60535159999972,0.5117955000005168,0.5948286000002554,1.7133413999999902,1.7966862000002948,,,,,,lucie_1,001,2020_Feb_06_1316,posner,3.1.5,59.94535381540085,
0.5,180,1,right,2,4,0,0,0,0,9,6,78,5,,,,,,,,,191.80628769999976,192.3061504000002,193.02392550000013,None,192.32295490000024,193.00695880000012,193.5245834000002,None,right,1,0.2899312999998074,193.5245834000002,None,None,192.32295490000024,193.50788059999968,0.511517100000674,0.5951790000008259,1.7132337000002735,1.7968179000008604,,,,,,lucie_1,001,2020_Feb_06_1316,posner,3.1.5,59.94535381540085,
-0.5,0,1,left,1,3,0,0,0,0,9,7,79,0,,,,,,,,,193.8422654000001,194.34241040000006,195.06017939999992,None,194.3589010999999,195.04340209999964,195.56070339999997,None,left,1,0.26959639999950014,195.56070339999997,None,None,194.3589010999999,195.54390139999987,0.5116832000003342,0.5952891000006275,1.7131450000006225,1.7965124000002106,,,,,,lucie_1,001,2020_Feb_06_1316,posner,3.1.5,59.94535381540085,
-0.5,0,1,left,1,3,0,0,0,0,10,0,80,0,,,,,,,,,195.86140139999998,196.36185419999993,197.07983120000017,None,196.3783153999998,197.0627817999998,197.5802606000002,None,left,1,0.26608110000051965,197.5802606000002,None,None,196.3783153999998,197.56334749999996,0.5116281999999046,0.5950420999997732,1.7131092999998145,1.7965512000000672,,,,,,lucie_1,001,2020_Feb_06_1316,posner,3.1.5,59.94535381540085,
-0.5,180,0,left,2,3,0,0,0,0,10,1,81,4,,,,,,,,,197.86390429999983,198.36461219999956,199.08222249999972,None,198.38125300000002,199.06540749999976,199.58292690000007,None,left,1,0.3114917000002606,199.58292690000007,None,None,198.38125300000002,199.5661126,0.511777599999732,0.5951709999999366,1.7132571000001917,1.796766999999818,,,,,,lucie_1,001,2020_Feb_06_1316,posner,3.1.5,59.94535381540085,
-0.5,0,1,left,1,3,0,0,0,0,10,2,82,2,,,,,,,,,199.91650280000022,200.41734899999983,201.13508460000003,None,200.43431660000033,201.11814679999998,201.63575850000007,None,left,1,0.3146083000001454,201.63575850000007,None,None,200.43431660000033,201.61929809999992,0.5117755999999645,0.5952575999999681,1.7137063999998645,1.796792899999673,,,,,,lucie_1,001,2020_Feb_06_1316,posner,3.1.5,59.94535381540085,
0.5,180,1,right,2,4,0,0,0,0,10,3,83,5,,,,,,,,,201.97032050000007,202.4701098999999,203.1878412000001,None,202.4867522999998,203.17128540000022,203.6884186000002,None,right,1,0.2697844000003897,203.6884186000002,None,None,202.4867522999998,203.6717861000002,0.5114325999993525,0.5951508999996804,1.71309729999939,1.7965135999993436,,,,,,lucie_1,001,2020_Feb_06_1316,posner,3.1.5,59.94535381540085,
0.5,180,1,right,2,4,0,0,0,0,10,4,84,6,,,,,,,,,203.98991520000027,204.48980710000023,205.20718819999956,None,204.50610319999987,205.19073849999995,205.7078888000001,None,right,1,0.3544391000004907,205.7078888000001,None,None,204.50610319999987,205.69119379999984,0.5116840000000593,0.5949008999996295,1.7130575000001045,1.7966750999994474,,,,,,lucie_1,001,2020_Feb_06_1316,posner,3.1.5,59.94535381540085,
-0.5,0,1,left,1,3,0,0,0,0,10,5,85,1,,,,,,,,,206.09229379999988,206.59246120000034,207.31033270000034,None,206.60922410000012,207.2936824000003,207.81102189999956,None,left,1,0.2513605000003736,207.81102189999956,None,None,206.60922410000012,207.79430269999966,0.5114094999998997,0.5948816000000079,1.71323029999985,1.796436999999969,,,,,,lucie_1,001,2020_Feb_06_1316,posner,3.1.5,59.94535381540085,
0.5,0,0,right,1,4,0,0,0,0,10,6,86,3,,,,,,,,,208.0787808,208.57861970000022,209.29619709999997,None,208.59520550000025,209.27979730000015,209.7968568000001,None,right,1,0.3136540999994395,209.7968568000001,None,None,208.59520550000025,209.7802346000003,0.5115201999997225,0.5950903000002654,1.7131174999994982,1.7968454000001657,,,,,,lucie_1,001,2020_Feb_06_1316,posner,3.1.5,59.94535381540085,
0.5,180,1,right,2,4,0,0,0,0,10,7,87,7,,,,,,,,,210.1319593000003,210.63157339999952,211.34899429999996,None,210.6481477000002,211.3324974000002,211.8498456000002,None,right,1,0.30057989999932033,211.8498456000002,None,None,210.6481477000002,211.8330719999999,0.5115142000004198,0.5948236000003817,1.7129812000002858,1.7964124999998603,,,,,,lucie_1,001,2020_Feb_06_1316,posner,3.1.5,59.94535381540085,
,,,,,,0,0,0,0,,,,,,,,,,,,,,,,,,,,,,,,,,,,,,,,,,212.16763630000014,None,1.83000001925393e-05,0.996140799999921,lucie_1,001,2020_Feb_06_1316,posner,3.1.5,59.94535381540085,
-0.5,0,1,left,1,3,1,0,1,0,0,0,0,1,1.1199999789823778e-05,0.09819990000050893,273.1844084999998,None,1.3999999282532372e-05,0.09768349999922066,275.2872685999996,None,275.55981399999973,276.0552512999998,276.7726576,None,276.07167700000036,276.75604950000024,277.2735090000001,None,left,1,0.23685649999970337,277.2735090000001,None,None,276.07167700000036,277.25660500000004,0.5054620000000796,0.5886504999998579,1.7068028000003324,1.7903832000001785,,,,,,lucie_1,001,2020_Feb_06_1316,posner,3.1.5,59.94535381540085,
0.5,180,1,right,2,4,1,0,1,0,0,1,1,7,,,,,,,,,277.5419483999999,278.04122869999946,278.7586822999997,None,278.0579272,278.74228429999994,279.25956799999994,None,right,1,0.35469909999937954,279.25956799999994,None,None,278.0579272,279.2428367999996,0.5104487999997218,0.5938033000002179,1.7120368999994753,1.7954390999993848,,,,,,lucie_1,001,2020_Feb_06_1316,posner,3.1.5,59.94535381540085,
-0.5,0,1,left,1,3,1,0,1,0,0,2,2,2,,,,,,,,,279.6438452999996,280.1440545999999,280.8617079999999,None,280.16086399999995,280.8451406999998,281.3623590000002,None,left,1,0.3322157000002335,281.3623590000002,None,None,280.16086399999995,281.3456983000001,0.5118301000002248,0.595114900000226,1.7134528999995382,1.7974686999996266,,,,,,lucie_1,001,2020_Feb_06_1316,posner,3.1.5,59.94535381540085,
0.5,180,1,right,2,4,1,0,1,0,0,3,3,5,,,,,,,,,281.71362350000027,282.2136075000003,282.93123609999975,None,282.2301786000003,282.9146571999995,283.43216939999957,None,right,1,0.2620926999998119,283.43216939999957,None,None,282.2301786000003,283.4153166000001,0.5116612000001624,0.5949343000002045,1.7133542999999918,1.7965029000006325,,,,,,lucie_1,001,2020_Feb_06_1316,posner,3.1.5,59.94535381540085,
0.5,180,1,right,2,4,1,0,1,0,0,4,4,6,,,,,,,,,283.71648330000016,284.2163450000003,284.9340337999997,None,284.2330672000003,284.91718850000007,285.43472429999974,None,right,1,0.2356158000002324,285.43472429999974,None,None,284.2330672000003,285.4179276,0.5116766999999527,0.5951540999994904,1.7132372999994914,1.7967651999997543,,,,,,lucie_1,001,2020_Feb_06_1316,posner,3.1.5,59.94535381540085,
-0.5,0,1,left,1,3,1,0,1,0,0,5,5,0,,,,,,,,,285.702127,286.20239919999995,286.9202459000003,None,286.2190598000002,286.90328699999964,287.4206515999999,None,left,1,0.21778329999960988,287.4206515999999,None,None,286.2190598000002,287.40414050000027,0.5115212000000611,0.5948017999999138,1.7132472000002963,1.7964268000005177,,,,,,lucie_1,001,2020_Feb_06_1316,posner,3.1.5,59.94535381540085,
0.5,0,0,right,1,4,1,0,1,0,0,6,6,3,,,,,,,,,287.65467820000003,288.15538510000033,288.87297929999977,None,288.17209760000014,288.8559389999996,289.37338260000024,None,right,1,0.2971557999999277,289.37338260000024,None,None,288.17209760000014,289.35659239999995,0.5121367000001555,0.5947414000002027,1.7133185000002413,1.7969193999997515,,,,,,lucie_1,001,2020_Feb_06_1316,posner,3.1.5,59.94535381540085,
-0.5,180,0,left,2,3,1,0,1,0,0,7,7,4,,,,,,,,,289.69172260000005,290.1912755999997,290.9087665000002,None,290.20778779999955,290.89212650000036,291.4095371999997,None,left,1,0.3008559999998397,291.4095371999997,None,None,290.20778779999955,291.3930465999997,0.5113793999998961,0.5948551999999836,1.71313629999986,1.7963921999999002,,,,,,lucie_1,001,2020_Feb_06_1316,posner,3.1.5,59.94535381540085,
-0.5,0,1,left,1,3,1,0,1,0,1,0,8,1,,,,,,,,,291.7273838999995,292.2271490999997,292.94526129999986,None,292.2440998999996,292.92849090000027,293.44581510000035,None,left,1,0.24873509999997623,293.44581510000035,None,None,292.2440998999996,293.4294195999996,0.5113519999995333,0.5949297999995906,1.7136035000003176,1.796530900000107,,,,,,lucie_1,001,2020_Feb_06_1316,posner,3.1.5,59.94535381540085,
0.5,0,0,right,1,4,1,0,1,0,1,1,9,3,,,,,,,,,293.71358439999995,294.21350669999947,294.9312560000003,None,294.2301606999995,294.9144432999997,295.43174899999985,None,right,1,0.27873689999978524,295.43174899999985,None,None,294.2301606999995,295.41497690000006,0.5115507000000434,0.5948124999995343,1.713005599999633,1.7964160000001357,,,,,,lucie_1,001,2020_Feb_06_1316,posner,3.1.5,59.94535381540085,
-0.5,0,1,left,1,3,1,0,1,0,1,2,10,0,,,,,,,,,295.73313910000024,296.23295989999997,296.9506729999998,None,296.2494789999996,296.9338335999996,297.45147469999984,None,left,1,0.27495060000001104,297.45147469999984,None,None,296.2494789999996,297.4346052999995,0.5115889999997307,0.5948425999995379,1.7132145999994464,1.7964535000000978,,,,,,lucie_1,001,2020_Feb_06_1316,posner,3.1.5,59.94535381540085,
0.5,180,1,right,2,4,1,0,1,0,1,3,11,6,,,,,,,,,297.75235889999976,298.25219530000004,298.9700262000001,None,298.26891529999966,298.9534394999996,299.47065020000036,None,right,1,0.2716569000003801,299.47065020000036,None,None,298.26891529999966,299.4541237999997,0.5114857999997184,0.5949465999992753,1.7133934999992562,1.7967359999993278,,,,,,lucie_1,001,2020_Feb_06_1316,posner,3.1.5,59.94535381540085,
-0.5,0,1,left,1,3,1,0,1,0,1,4,12,2,,,,,,,,,299.77150070000016,300.2717799999996,300.9893205000003,None,300.2884393999998,300.97272250000015,301.4901249999998,None,left,1,0.23626820000026783,301.4901249999998,None,None,300.2884393999998,301.4733189000003,0.5115642000000662,0.595188600000256,1.7130915000007008,1.7964180000008128,,,,,,lucie_1,001,2020_Feb_06_1316,posner,3.1.5,59.94535381540085,
-0.5,180,0,left,2,3,1,0,1,0,1,5,13,4,,,,,,,,,301.75747900000033,302.2577282999996,302.9755657999999,None,302.27457559999993,302.95870849999983,303.47612509999954,303.96024480000005,left,1,0.5703020999999353,303.47612509999954,None,None,302.27457559999993,303.4594479000002,0.5114874999999302,0.5950058999997054,1.7131973999994443,1.7968027999995684,,,,,,lucie_1,001,2020_Feb_06_1316,posner,3.1.5,59.94535381540085,
0.5,180,1,right,2,4,1,0,1,0,1,6,14,7,,,,,,,,,304.07742519999965,304.5776598999996,305.2953528000003,None,304.59440909999967,305.2787082,305.7961215999999,None,right,1,0.21031589999984135,305.7961215999999,None,None,304.59440909999967,305.7794343999999,0.5114100999999209,0.595015400000193,1.7131662000001597,1.7968398000002708,,,,,,lucie_1,001,2020_Feb_06_1316,posner,3.1.5,59.94535381540085,
0.5,180,1,right,2,4,1,0,1,0,1,7,15,5,,,,,,,,,306.03098459999956,306.5305999999996,307.2480929999997,None,306.54706419999957,307.2317194000002,307.74866020000036,None,right,1,0.26571750000039174,307.74866020000036,None,None,306.54706419999957,307.7322487999995,0.5118056000001161,0.5950620000003255,1.71344020000015,1.7967912000003707,,,,,,lucie_1,001,2020_Feb_06_1316,posner,3.1.5,59.94535381540085,
-0.5,180,0,left,2,3,1,0,1,0,2,0,16,4,,,,,,,,,308.0332430000003,308.5332186999999,309.25085910000007,None,308.5499648,309.23416700000007,309.7516118999997,None,left,1,0.2786817999995037,309.7516118999997,None,None,308.5499648,309.7349741000003,0.5114367000005586,0.5947833999998693,1.7131791000001613,1.7963669999999183,,,,,,lucie_1,001,2020_Feb_06_1316,posner,3.1.5,59.94535381540085,
-0.5,0,1,left,1,3,1,0,1,0,2,1,17,1,,,,,,,,,310.0526858999997,310.5528813999995,311.2702955999998,None,310.56925079999974,311.2535637999995,311.77104420000023,None,left,1,0.28345679999983986,311.77104420000023,None,None,310.56925079999974,311.75446559999955,0.5117097000002104,0.5947104999995645,1.7132763999998133,1.796420799999396,,,,,,lucie_1,001,2020_Feb_06_1316,posner,3.1.5,59.94535381540085,
-0.5,0,1,left,1,3,1,0,1,0,2,2,18,0,,,,,,,,,312.07227959999955,312.5719189999995,313.2897941999995,None,312.58880069999987,313.27302089999966,313.79036159999987,None,left,1,0.2322468000002118,313.79036159999987,None,None,312.58880069999987,313.77392980000013,0.5111840999998094,0.5947486999993998,1.713179699999273,1.796349299999747,,,,,,lucie_1,001,2020_Feb_06_1316,posner,3.1.5,59.94535381540085,
0.5,180,1,right,2,4,1,0,1,0,2,3,19,5,,,,,,,,,314.0414135999995,314.5416070999995,315.2591510999996,None,314.5581065000001,315.2425945,315.7599177999996,None,right,1,0.2066408999999112,315.7599177999996,None,None,314.5581065000001,315.74314579999964,0.5114918999997826,0.5946831999999631,1.7130127999998876,1.796335099999851,,,,,,lucie_1,001,2020_Feb_06_1316,posner,3.1.5,59.94535381540085,
-0.5,0,1,left,1,3,1,0,1,0,2,4,20,2,,,,,,,,,315.99418730000025,316.49416040000006,317.21174139999994,None,316.51097869999967,317.19517510000014,317.7124706999998,None,left,1,0.1420244000000821,317.7124706999998,None,None,316.51097869999967,317.6959003999996,0.5116285999993124,0.5949788999996599,1.7133485999993354,1.7968464999994467,,,,,,lucie_1,001,2020_Feb_06_1316,posner,3.1.5,59.94535381540085,
0.5,180,1,right,2,4,1,0,1,0,2,5,21,7,,,,,,,,,317.88000729999976,318.38021979999985,319.0976063000003,None,318.39663189999965,319.0811263999999,319.59826889999977,None,right,1,0.21615549999933137,319.59826889999977,None,None,318.39663189999965,319.58181809999996,0.5118020999998407,0.5951898000002984,1.7133781000002273,1.7969179000001532,,,,,,lucie_1,001,2020_Feb_06_1316,posner,3.1.5,59.94535381540085,
0.5,180,1,right,2,4,1,0,1,0,2,6,22,6,,,,,,,,,319.83288089999996,320.3329286000003,321.0503907999996,None,320.3494550999999,321.03377930000033,321.5512249999997,None,right,1,0.2231925999994928,321.5512249999997,None,None,320.3494550999999,321.53453599999966,0.511645800000224,0.5947341000000961,1.7132376999998087,1.7966323000000557,,,,,,lucie_1,001,2020_Feb_06_1316,posner,3.1.5,59.94535381540085,
0.5,0,0,right,1,4,1,0,1,0,2,7,23,3,,,,,,,,,321.8025782999998,322.3021523000002,323.0198515999996,None,322.31879590000017,323.0031444000001,323.5207032000003,None,right,1,0.3417693999999756,323.5207032000003,None,None,322.31879590000017,323.5038128000001,0.5112081999996008,0.5946902999994563,1.7128578000001653,1.7961088000001837,,,,,,lucie_1,001,2020_Feb_06_1316,posner,3.1.5,59.94535381540085,
0.5,0,0,right,1,4,1,0,1,0,3,0,24,3,,,,,,,,,323.8882294,324.38837639999974,325.10604099999955,None,324.4050747999995,325.0894204000001,325.6067879999996,None,right,1,0.20749439999963215,325.6067879999996,None,None,324.4050747999995,325.58995970000024,0.5115209000005052,0.5951894999998331,1.7130862000003617,1.7967137000005096,,,,,,lucie_1,001,2020_Feb_06_1316,posner,3.1.5,59.94535381540085,
-0.5,0,1,left,1,3,1,0,1,0,3,1,25,1,,,,,,,,,325.8412291999998,326.3412881999998,327.05862469999965,None,326.3577700999999,327.0421960999997,327.55953139999974,None,left,1,0.23086260000036418,327.55953139999974,None,None,326.3577700999999,327.5428624000001,0.5116710000002058,0.5949334000006274,1.7132288000002518,1.7965948000000935,,,,,,lucie_1,001,2020_Feb_06_1316,posner,3.1.5,59.94535381540085,
0.5,180,1,right,2,4,1,0,1,0,3,2,26,6,,,,,,,,,327.81105720000005,328.3104374999998,329.02794870000025,None,328.32708070000035,329.0116333000001,329.52894929999957,None,right,1,0.26139359999979206,329.52894929999957,None,None,328.32708070000035,329.51196649999974,0.5115651000005528,0.5949034000004758,1.713070400000106,1.7967751000005592,,,,,,lucie_1,001,2020_Feb_06_1316,posner,3.1.5,59.94535381540085,
-0.5,0,1,left,1,3,1,0,1,0,3,3,27,2,,,,,,,,,329.81291589999955,330.31353009999975,331.03095749999966,None,330.33018140000013,331.01429059999964,331.5316939999998,None,left,1,0.25873260000025766,331.5316939999998,None,None,330.33018140000013,331.51498649999985,0.5123144999997749,0.5954756000000998,1.7137622000000192,1.796954899999946,,,,,,lucie_1,001,2020_Feb_06_1316,posner,3.1.5,59.94535381540085,
-0.5,180,0,left,2,3,1,0,1,0,3,4,28,4,,,,,,,,,331.8161207999997,332.31589060000033,333.03376679999974,None,332.33295880000014,333.0170357000002,333.53439149999986,None,right,0,0.19211030000042228,333.53439149999986,None,None,332.33295880000014,333.51757399999997,0.5116583999997601,0.5951094000001831,1.7133217000000514,1.7968574999995326,,,,,,lucie_1,001,2020_Feb_06_1316,posner,3.1.5,59.94535381540085,
-0.5,0,1,left,1,3,1,0,1,0,3,5,29,0,,,,,,,,,333.7521624999995,334.2520356,334.9696481999995,None,334.2686897999997,334.9529722000002,335.4704734000002,None,left,1,0.2561147999995228,335.4704734000002,None,None,334.2686897999997,335.45379230000026,0.5115975999997318,0.5948687999998583,1.7133393000003707,1.7965697999998156,,,,,,lucie_1,001,2020_Feb_06_1316,posner,3.1.5,59.94535381540085,
0.5,180,1,right,2,4,1,0,1,0,3,6,30,7,,,,,,,,,335.7542252999997,336.2549078999996,336.9725295000003,None,336.2715129000003,336.95578890000024,337.47325200000023,None,right,1,0.26137930000004417,337.47325200000023,None,None,336.2715129000003,337.45628220000026,0.5122143999997206,0.595487000000503,1.713576500000272,1.7972792999999,,,,,,lucie_1,001,2020_Feb_06_1316,posner,3.1.5,59.94535381540085,
0.5,180,1,right,2,4,1,0,1,0,3,7,31,5,,,,,,,,,337.7577951999997,338.2575794999998,338.9751602000001,None,338.2743604000002,338.9584497999999,339.47594100000015,None,right,1,0.25844229999984236,339.47594100000015,None,None,338.2743604000002,339.45906499999955,0.5114823000003526,0.5950610999998389,1.7129492000003665,1.796723800000109,,,,,,lucie_1,001,2020_Feb_06_1316,posner,3.1.5,59.94535381540085,
0.5,0,0,right,1,4,1,0,1,0,4,0,32,3,,,,,,,,,339.76038389999985,340.26058280000007,340.97777970000016,None,340.27690980000034,340.9613439999998,341.47863709999956,None,right,1,0.3597331999999369,341.47863709999956,None,None,340.27690980000034,341.4620044999997,0.5122273999995741,0.5955059999996593,1.7136743999999453,1.797051300000021,,,,,,lucie_1,001,2020_Feb_06_1316,posner,3.1.5,59.94535381540085,
0.5,180,1,right,2,4,1,0,1,0,4,1,33,5,,,,,,,,,341.86302360000036,342.3633824000003,343.0809653000001,None,342.37989009999956,343.06419249999954,343.58171790000006,None,right,1,0.2888545999994676,343.58171790000006,None,None,342.37989009999956,343.5649510999997,0.5118086000002222,0.5950560000001133,1.7133596000003308,1.796650899999804,,,,,,lucie_1,001,2020_Feb_06_1316,posner,3.1.5,59.94535381540085,
0.5,180,1,right,2,4,1,0,1,0,4,2,34,7,,,,,,,,,343.8989442999996,344.39929619999975,345.11696040000015,None,344.4161417,345.10039709999955,345.6176537999995,None,right,1,0.172770600000149,345.6176537999995,None,None,344.4161417,345.6011784999996,0.5116391999999905,0.5952279000002818,1.7134992000001148,1.7968366000004607,,,,,,lucie_1,001,2020_Feb_06_1316,posner,3.1.5,59.94535381540085,
0.5,180,1,right,2,4,1,0,1,0,4,3,35,6,,,,,,,,,345.8187162999998,346.31844349999983,347.0363094999998,None,346.3353126999996,347.01952329999995,347.53691649999973,None,right,1,0.3176211999998486,347.53691649999973,None,None,346.3353126999996,347.52020310000034,0.5104393999999957,0.5940325000001394,1.7121861000005083,1.7958347000003414,,,,,,lucie_1,001,2020_Feb_06_1316,posner,3.1.5,59.94535381540085,
-0.5,0,1,left,1,3,1,0,1,0,4,4,36,1,,,,,,,,,347.8717769,348.37166490000027,349.0891952999996,None,348.3881934999995,349.0725854999996,349.5899932999996,None,left,1,0.2965070000000196,349.5899932999996,None,None,348.3881934999995,349.5732449000002,0.5115795000001526,0.5948171000000002,1.7131434000002628,1.7963949000004504,,,,,,lucie_1,001,2020_Feb_06_1316,posner,3.1.5,59.94535381540085,
-0.5,0,1,left,1,3,1,0,1,0,4,5,37,2,,,,,,,,,349.9076971999998,350.40753040000027,351.12508409999964,None,350.4243068999999,351.10852229999955,351.6258235,None,left,1,0.284540300000117,351.6258235,None,None,350.4243068999999,351.60916250000037,0.5112724999999045,0.5949393000000782,1.7128849000000628,1.796562300000005,,,,,,lucie_1,001,2020_Feb_06_1316,posner,3.1.5,59.94535381540085,
-0.5,180,0,left,2,3,1,0,1,0,4,6,38,4,,,,,,,,,351.92695179999964,352.42710920000036,353.1447167000001,None,352.44370599999957,353.12792919999947,353.64540309999984,None,right,0,0.21721079999952053,353.64540309999984,None,None,352.44370599999957,353.6287476000002,0.5120474999994258,0.5955233999993652,1.7136634999997113,1.797088299999814,,,,,,lucie_1,001,2020_Feb_06_1316,posner,3.1.5,59.94535381540085,
-0.5,0,1,left,1,3,1,0,1,0,4,7,39,0,,,,,,,,,353.8798240000001,354.37990500000024,355.09722720000036,None,354.3963192999995,355.0806391000001,355.5980162999999,None,left,1,0.2242841999996017,355.5980162999999,None,None,354.3963192999995,355.5816259999997,0.5120168000003105,0.5954426000007516,1.7137056000001394,1.7968163000005006,,,,,,lucie_1,001,2020_Feb_06_1316,posner,3.1.5,59.94535381540085,
0.5,0,0,right,1,4,1,0,1,0,5,0,40,3,,,,,,,,,355.8493639000003,356.3491753000003,357.0666444000003,None,356.3658800999997,357.0502634999998,357.5674802999997,None,right,1,0.1188836999999694,357.5674802999997,None,None,356.3658800999997,357.5509649999999,0.511446800000158,0.5949594000003344,1.7132025999999314,1.7965199000000212,,,,,,lucie_1,001,2020_Feb_06_1316,posner,3.1.5,59.94535381540085,
-0.5,0,1,left,1,3,1,0,1,0,5,1,41,1,,,,,,,,,357.7181998000001,358.2182846999999,358.9359158000002,None,358.23513739999953,358.9194315,359.4365308000001,None,left,1,0.2898998999999094,359.4365308000001,None,None,358.23513739999953,359.4201317000002,0.5113301000001229,0.5948717999999644,1.7131577000000107,1.796647000000121,,,,,,lucie_1,001,2020_Feb_06_1316,posner,3.1.5,59.94535381540085,
-0.5,0,1,left,1,3,1,0,1,0,5,2,42,0,,,,,,,,,359.75431869999966,360.2546019999995,360.9722396000002,None,360.2713743999998,360.9554919999996,361.4728719,None,left,1,0.25352899999961664,361.4728719,None,None,360.2713743999998,361.4559650999995,0.5118299999994633,0.5951893999999811,1.7131801999994423,1.7968683999997666,,,,,,lucie_1,001,2020_Feb_06_1316,posner,3.1.5,59.94535381540085,
-0.5,180,0,left,2,3,1,0,1,0,5,3,43,4,,,,,,,,,361.75696879999987,362.2571445999997,362.9750474999996,None,362.27423059999956,362.9581978000001,363.4755190000001,None,left,1,0.29895440000018425,363.4755190000001,None,None,362.27423059999956,363.4588540999998,0.5116247000005387,0.5953360000003158,1.7133155999999872,1.7970106000002488,,,,,,lucie_1,001,2020_Feb_06_1316,posner,3.1.5,59.94535381540085,
0.5,180,1,right,2,4,1,0,1,0,5,4,44,5,,,,,,,,,363.7936752999999,364.2935411000003,365.0112819000001,None,364.3102054999995,364.9944221999999,365.51192969999965,None,right,1,0.2066992999998547,365.51192969999965,None,None,364.3102054999995,365.49531590000015,0.5115136000003986,0.5947071999999025,1.7132711000003837,1.7966820000001462,,,,,,lucie_1,001,2020_Feb_06_1316,posner,3.1.5,59.94535381540085,
-0.5,0,1,left,1,3,1,0,1,0,5,5,45,2,,,,,,,,,365.74634509999987,366.24611959999993,366.96394550000014,None,366.262964,366.9469978000002,367.4645727000002,None,left,1,0.26971770000000106,367.4645727000002,None,None,366.262964,367.4476221,0.5114123999992444,0.5950677000000724,1.7128820999996606,1.7964789999996356,,,,,,lucie_1,001,2020_Feb_06_1316,posner,3.1.5,59.94535381540085,
0.5,180,1,right,2,4,1,0,1,0,5,6,46,7,,,,,,,,,367.76537270000017,368.26563549999946,368.9834446,None,368.2824304999999,368.9664829999997,369.4841236999996,None,right,1,0.28226829999948677,369.4841236999996,None,None,368.2824304999999,369.46733389999963,0.5117237000004025,0.5950173000001087,1.7134151000000202,1.7967340000004697,,,,,,lucie_1,001,2020_Feb_06_1316,posner,3.1.5,59.94535381540085,
0.5,180,1,right,2,4,1,0,1,0,5,7,47,6,,,,,,,,,369.7846795999999,370.28519089999963,371.00256279999985,None,370.30191090000017,370.98596829999997,371.50334539999994,None,right,1,0.3350410000002739,371.50334539999994,None,None,370.30191090000017,371.4865990000003,0.512078300000212,0.5952118000004702,1.7134743000005983,1.7972708000006605,,,,,,lucie_1,001,2020_Feb_06_1316,posner,3.1.5,59.94535381540085,
-0.5,0,1,left,1,3,1,0,1,0,6,0,48,0,,,,,,,,,371.85453929999994,372.3546726999998,373.0721851000003,None,372.3713227000003,373.05552860000034,373.57284070000014,None,left,1,0.2734319000001051,373.57284070000014,None,None,372.3713227000003,373.55601160000015,0.5119186000001719,0.595209000000068,1.7132355000003372,1.7968864000004032,,,,,,lucie_1,001,2020_Feb_06_1316,posner,3.1.5,59.94535381540085,
0.5,180,1,right,2,4,1,0,1,0,6,1,49,7,,,,,,,,,373.87437029999955,374.3740732000001,375.0918581000001,None,374.3907895999996,375.0749565000001,375.5925540000003,None,right,1,0.2938757000001715,375.5925540000003,None,None,374.3907895999996,375.5757208,0.5115077000000383,0.594802399999935,1.7131429999999455,1.7965409999997064,,,,,,lucie_1,001,2020_Feb_06_1316,posner,3.1.5,59.94535381540085,
-0.5,0,1,left,1,3,1,0,1,0,6,2,50,2,,,,,,,,,375.91035169999986,376.4100690999999,377.12766899999997,None,376.42705160000014,377.1111685999999,377.6285111000002,None,left,1,0.27410000000054424,377.6285111000002,None,None,376.42705160000014,377.6119289000003,0.5115357000004224,0.5950937000006888,1.7133846000006088,1.7967509000000064,,,,,,lucie_1,001,2020_Feb_06_1316,posner,3.1.5,59.94535381540085,
-0.5,0,1,left,1,3,1,0,1,0,6,3,51,1,,,,,,,,,377.9301684999996,378.4302402999997,379.1471716000001,None,378.44610729999977,379.13055789999953,379.64804719999984,None,left,1,0.310421099999985,379.64804719999984,None,None,378.44610729999977,379.6314901999999,0.5123821999995926,0.5952692000000752,1.7136248999995587,1.7967519999992874,,,,,,lucie_1,001,2020_Feb_06_1316,posner,3.1.5,59.94535381540085,
-0.5,180,0,left,2,3,1,0,1,0,6,4,52,4,,,,,,,,,379.98262360000035,380.48259180000014,381.2001720000003,None,380.4990173000001,381.18360710000024,381.7010429999996,None,left,1,0.32936249999966094,381.7010429999996,None,None,380.4990173000001,381.6840427000002,0.5116972999994687,0.594890999999734,1.7131358999995427,1.7964339999998629,,,,,,lucie_1,001,2020_Feb_06_1316,posner,3.1.5,59.94535381540085,
0.5,180,1,right,2,4,1,0,1,0,6,5,53,5,,,,,,,,,382.05205309999974,382.5519989999998,383.26965549999977,None,382.56861549999985,383.25294799999983,383.77021149999973,None,right,1,0.25224059999982273,383.77021149999973,None,None,382.56861549999985,383.7536341,0.5114460000004328,0.5949422000003324,1.7130653000003804,1.7963922000008097,,,,,,lucie_1,001,2020_Feb_06_1316,posner,3.1.5,59.94535381540085,
0.5,180,1,right,2,4,1,0,1,0,6,6,54,6,,,,,,,,,384.03769220000004,384.5378880000003,385.2555013999995,None,384.55487089999997,385.23901780000006,385.7563605999999,None,right,1,0.3461347000002206,385.7563605999999,None,None,384.55487089999997,385.73972230000027,0.5115523999993457,0.5952621999995245,1.7133656999994855,1.7969028999996226,,,,,,lucie_1,001,2020_Feb_06_1316,posner,3.1.5,59.94535381540085,
0.5,0,0,right,1,4,1,0,1,0,6,7,55,3,,,,,,,,,386.12439479999966,386.6243423000001,387.34195260000024,None,386.6411143999999,387.32527139999956,387.8427538000001,None,right,1,0.2757248999996591,387.8427538000001,None,None,386.6411143999999,387.8259326000002,0.5117201000002751,0.5950277000001734,1.7132982000002812,1.7968017000002874,,,,,,lucie_1,001,2020_Feb_06_1316,posner,3.1.5,59.94535381540085,
-0.5,0,1,left,1,3,1,0,1,0,7,0,56,2,,,,,,,,,388.14339900000004,388.6437529,389.3613209,None,388.66039369999953,389.3448250999995,389.8620569999998,None,left,1,0.2402764999997089,389.8620569999998,None,None,388.66039369999953,389.84529259999954,0.5117629999995188,0.5951733000001695,1.7132905999997092,1.7971207000000504,,,,,,lucie_1,001,2020_Feb_06_1316,posner,3.1.5,59.94535381540085,
0.5,0,0,right,1,4,1,0,1,0,7,1,57,3,,,,,,,,,390.13004020000017,390.6298953999999,391.34728380000024,None,390.6464578,391.33081770000035,391.84795729999996,None,right,1,0.3184892999997828,391.84795729999996,None,None,390.6464578,391.83170649999965,0.5118272999998226,0.5950614000003043,1.713622000000214,1.7969560000001366,,,,,,lucie_1,001,2020_Feb_06_1316,posner,3.1.5,59.94535381540085,
-0.5,180,0,left,2,3,1,0,1,0,7,2,58,4,,,,,,,,,392.1825144999998,392.6827516999997,393.4003636000002,None,392.6994999000003,393.3836220999997,393.90104519999977,None,left,1,0.2813090999998167,393.90104519999977,None,None,392.6994999000003,393.88424280000027,0.5118018000002849,0.594960400000673,1.7132734000006167,1.79659250000077,,,,,,lucie_1,001,2020_Feb_06_1316,posner,3.1.5,59.94535381540085,
0.5,180,1,right,2,4,1,0,1,0,7,3,59,5,,,,,,,,,394.2023057000001,394.70208090000006,395.4201097,None,394.71856759999946,395.40305639999997,395.92068189999964,None,right,1,0.2537224999996397,395.92068189999964,None,None,394.71856759999946,395.90381560000014,0.5114473000003272,0.5947715000002063,1.7131599000003916,1.7963626000000659,,,,,,lucie_1,001,2020_Feb_06_1316,posner,3.1.5,59.94535381540085,
-0.5,0,1,left,1,3,1,0,1,0,7,4,60,1,,,,,,,,,396.20446349999975,396.70476759999974,397.42280919999985,None,396.7216481999999,397.40573900000027,397.9234564000003,None,left,1,0.26710240000011254,397.9234564000003,None,None,396.7216481999999,397.90637990000005,0.5116419000005408,0.594984100000147,1.7132400000000416,1.7969817000002877,,,,,,lucie_1,001,2020_Feb_06_1316,posner,3.1.5,59.94535381540085,
0.5,180,1,right,2,4,1,0,1,0,7,5,61,7,,,,,,,,,398.20690330000025,398.70746949999966,399.42541349999965,None,398.7243303,399.4084423999998,399.92626040000005,None,right,1,0.2724437000006219,399.92626040000005,None,None,398.7243303,399.9091899,0.5122450999997454,0.5958322999995289,1.7139449999995122,1.7975119999991875,,,,,,lucie_1,001,2020_Feb_06_1316,posner,3.1.5,59.94535381540085,
0.5,180,1,right,2,4,1,0,1,0,7,6,62,6,,,,,,,,,400.22690099999954,400.72699499999953,401.4447395000002,None,400.74382879999985,401.4284047999995,401.9453988999999,None,right,1,0.4210585999999239,401.9453988999999,None,None,400.74382879999985,401.9291582999999,0.5117999999993117,0.5952815000000555,1.714208399999734,1.7971526999999696,,,,,,lucie_1,001,2020_Feb_06_1316,posner,3.1.5,59.94535381540085,
-0.5,0,1,left,1,3,1,0,1,0,7,7,63,0,,,,,,,,,402.3964175999995,402.8965463999998,403.6142641000001,None,402.91344290000006,403.59753669999964,404.1149727999996,None,left,1,0.2594896999999037,404.1149727999996,None,None,402.91344290000006,404.09823370000004,0.5114591000001383,0.59520590000011,1.71313310000005,1.7969709999997576,,,,,,lucie_1,001,2020_Feb_06_1316,posner,3.1.5,59.94535381540085,
0.5,180,1,right,2,4,1,0,1,0,8,0,64,6,,,,,,,,,404.39959339999996,404.89943079999966,405.61707350000006,None,404.91599410000026,405.6003831000003,406.11777419999953,None,right,1,0.30474820000017644,406.11777419999953,None,None,404.91599410000026,406.10128810000015,0.5116171999998187,0.5953169000003982,1.7134522000005745,1.7969041000005745,,,,,,lucie_1,001,2020_Feb_06_1316,posner,3.1.5,59.94535381540085,
-0.5,0,1,left,1,3,1,0,1,0,8,1,65,2,,,,,,,,,406.45253100000036,406.9523038000002,407.66999199999964,None,406.96897579999995,407.6533814999998,408.17059649999965,None,left,1,0.21193919999950595,408.17059649999965,None,None,406.96897579999995,408.1539436999997,0.511569000000236,0.595021000000088,1.7132008999997197,1.79670090000036,,,,,,lucie_1,001,2020_Feb_06_1316,posner,3.1.5,59.94535381540085,
-0.5,180,0,left,2,3,1,0,1,0,8,2,66,4,,,,,,,,,408.40507430000025,408.9049842999998,409.62272879999955,None,408.9217579000001,409.6059283999998,410.123419,None,left,1,0.315074299999651,410.123419,None,None,408.9217579000001,410.1064824,0.5114493999999468,0.5947290999993129,1.7129355999995823,1.7965853999994579,,,,,,lucie_1,001,2020_Feb_06_1316,posner,3.1.5,59.94535381540085,
0.5,180,1,right,2,4,1,0,1,0,8,3,67,5,,,,,,,,,410.4572874999999,410.95767149999983,411.6756626000001,None,410.97450489999983,411.6585460000001,412.1762335999997,None,right,1,0.2861781000001429,412.1762335999997,None,None,410.97450489999983,412.1594398000002,0.5113366999994469,0.5951076999999714,1.713372299999719,1.7966367999997601,,,,,,lucie_1,001,2020_Feb_06_1316,posner,3.1.5,59.94535381540085,
-0.5,0,1,left,1,3,1,0,1,0,8,4,68,0,,,,,,,,,412.49383480000006,412.9940171000003,413.7115687999999,None,413.01069619999953,413.6950568999996,414.21247110000013,None,left,1,0.23395239999990736,414.21247110000013,None,None,413.01069619999953,414.1956352000002,0.5116791000000376,0.5950247000000672,1.7132851000005758,1.7971268999999666,,,,,,lucie_1,001,2020_Feb_06_1316,posner,3.1.5,59.94535381540085,
0.5,180,1,right,2,4,1,0,1,0,8,5,69,7,,,,,,,,,414.46351639999966,414.9633667000003,415.68109010000035,None,414.98020080000015,415.66460810000035,416.1821722999998,None,right,1,0.26421620000019175,416.1821722999998,None,None,414.98020080000015,416.1651512000003,0.5114876999996341,0.5949193999995259,1.7132504000001063,1.7964752999996563,,,,,,lucie_1,001,2020_Feb_06_1316,posner,3.1.5,59.94535381540085,
0.5,0,0,right,1,4,1,0,1,0,8,6,70,3,,,,,,,,,416.46631409999964,416.9659713999995,417.6839044000003,None,416.98317819999966,417.66704660000005,418.18438279999964,None,left,0,0.04598299999997835,418.18438279999964,None,None,416.98317819999966,418.16770289999977,0.511295400000563,0.5948829000008118,1.7130073000007542,None,,,,,,lucie_1,001,2020_Feb_06_1316,posner,3.1.5,59.94535381540085,
-0.5,0,1,left,1,3,1,0,1,0,8,7,71,1,,,,,,,,,418.2518249,418.7520045999995,419.4697218999995,None,418.7685174000003,419.4529717999999,419.9702924999997,None,left,1,0.23618460000034247,419.9702924999997,None,None,418.7685174000003,419.95351379999966,0.5114623999998003,0.5948054000000411,1.7129617000000508,1.7963227000000188,,,,,,lucie_1,001,2020_Feb_06_1316,posner,3.1.5,59.94535381540085,
-0.5,0,1,left,1,3,1,0,1,0,9,0,72,1,,,,,,,,,420.2379514999998,420.73794489999955,421.45566199999985,None,420.75471249999964,421.4388305999996,421.95621019999953,None,left,1,0.2823889999999665,421.95621019999953,None,None,420.75471249999964,421.9395725999998,0.5114627000002656,0.594901800000116,1.7130765000001702,1.7966972000003807,,,,,,lucie_1,001,2020_Feb_06_1316,posner,3.1.5,59.94535381540085,
-0.5,0,1,left,1,3,1,0,1,0,9,1,73,2,,,,,,,,,422.25718730000017,422.7573650999998,423.47516010000027,None,422.7740804,423.45833919999995,423.9756805000002,None,left,1,0.26271949999954813,423.9756805000002,None,None,422.7740804,423.9590439999997,0.5118671000000177,0.5954834999993182,1.7135284999994838,1.797088199999962,,,,,,lucie_1,001,2020_Feb_06_1316,posner,3.1.5,59.94535381540085,
-0.5,180,0,left,2,3,1,0,1,0,9,2,74,4,,,,,,,,,424.26050650000025,424.7602941,425.47776139999996,None,424.77683860000025,425.4613317999997,425.9785705999998,None,right,0,0.219973299999765,425.9785705999998,None,None,424.77683860000025,425.9617852999995,0.5115032000003339,0.594980900000337,1.712985099999969,1.7966114000000744,,,,,,lucie_1,001,2020_Feb_06_1316,posner,3.1.5,59.94535381540085,
0.5,180,1,right,2,4,1,0,1,0,9,3,75,6,,,,,,,,,426.2290847999998,426.73028419999946,427.44718929999954,None,426.74615289999974,427.4311596000002,427.9478988999995,None,right,1,0.29053899999962596,427.9478988999995,None,None,426.74615289999974,427.9314231000003,0.5126601000001756,0.5948332999996637,1.713778000000275,1.7974543000000267,,,,,,lucie_1,001,2020_Feb_06_1316,posner,3.1.5,59.94535381540085,
0.5,180,1,right,2,4,1,0,1,0,9,4,76,7,,,,,,,,,428.26552029999993,428.7657121999996,429.4835128999998,None,428.7824920999997,429.46678870000005,429.9841690999997,None,right,1,0.262167099999715,429.9841690999997,None,None,428.7824920999997,429.96729920000007,0.5117715999995198,0.5950720999999248,1.7133401999999478,1.7968509000002086,,,,,,lucie_1,001,2020_Feb_06_1316,posner,3.1.5,59.94535381540085,
0.5,180,1,right,2,4,1,0,1,0,9,5,77,5,,,,,,,,,430.2678130999998,430.7684667999997,431.4860721,None,430.7851622000003,431.4697304999995,431.9867134000001,None,right,1,0.3397380999995221,431.9867134000001,None,None,430.7851622000003,431.9701706000001,0.5115634000003411,0.5950292000006812,1.7132540000002336,1.7967822000000524,,,,,,lucie_1,001,2020_Feb_06_1316,posner,3.1.5,59.94535381540085,
-0.5,0,1,left,1,3,1,0,1,0,9,6,78,0,,,,,,,,,432.35471430000007,432.8546977000001,433.5723627000002,None,432.87150749999955,433.55567680000013,434.07312150000007,None,left,1,0.2773040000001856,434.07312150000007,None,None,432.87150749999955,434.05615830000033,0.5117245000001276,0.5950810000003912,1.7131661000003078,1.7968817000000854,,,,,,lucie_1,001,2020_Feb_06_1316,posner,3.1.5,59.94535381540085,
0.5,0,0,right,1,4,1,0,1,0,9,7,79,3,,,,,,,,,434.3741267999999,434.8740977000002,435.59211279999954,None,434.8910056999998,435.5753344,436.0925364999998,None,right,1,0.32192619999932504,436.0925364999998,None,None,434.8910056999998,436.0759015999997,0.5116600000001199,0.5950843000000532,1.7134431000004042,1.7968552000002092,,,,,,lucie_1,001,2020_Feb_06_1316,posner,3.1.5,59.94535381540085,
-0.5,180,0,left,2,3,1,0,1,0,10,0,80,4,,,,,,,,,436.4439170999999,436.9438427,437.6614861000003,None,436.96044949999987,437.64455769999995,438.1621535999998,None,left,1,0.2682441999995717,438.1621535999998,None,None,436.96044949999987,438.1453150000002,0.5114796999996543,0.594651100000192,1.7129365999999209,1.7963539000002129,,,,,,lucie_1,001,2020_Feb_06_1316,posner,3.1.5,59.94535381540085,
0.5,180,1,right,2,4,1,0,1,0,10,1,81,6,,,,,,,,,438.4457140999998,438.94626610000023,439.6640818000001,None,438.9632452000001,439.6472964999998,440.1651297000003,None,right,1,0.2733256000001347,440.1651297000003,None,None,438.9632452000001,440.14818160000004,0.5115966000003027,0.5953659000006155,1.7134974000000511,1.797121500000685,,,,,,lucie_1,001,2020_Feb_06_1316,posner,3.1.5,59.94535381540085,
-0.5,0,1,left,1,3,1,0,1,0,10,2,82,2,,,,,,,,,440.46610779999946,440.96579129999964,441.6836526000002,None,440.9825877999997,441.6668488999999,442.1842408999996,None,left,1,0.07836630000019795,442.1842408999996,None,None,440.9825877999997,442.16752059999953,0.5112478999999439,0.5946743000004062,1.7129640000002837,1.7964898999998695,,,,,,lucie_1,001,2020_Feb_06_1316,posner,3.1.5,59.94535381540085,
0.5,180,1,right,2,4,1,0,1,0,10,3,83,7,,,,,,,,,442.2845706000003,442.78508660000034,443.50277940000024,None,442.8017425000003,443.4860431000002,444.00344650000034,None,left,0,0.2750016999998479,444.00344650000034,None,None,442.8017425000003,443.9866441999998,0.5116134999998394,0.5949362999999721,1.7131515999999465,1.7967294999998558,,,,,,lucie_1,001,2020_Feb_06_1316,posner,3.1.5,59.94535381540085,
0.5,0,0,right,1,4,1,0,1,0,10,4,84,3,,,,,,,,,444.30381309999984,444.8047767000003,445.5224250999995,None,444.8212407999995,445.50559289999956,446.02284910000026,None,right,1,0.32759509999959846,446.02284910000026,None,None,444.8212407999995,446.0060620999998,0.5119516999993721,0.5951805999993667,1.713227199999892,1.7968059999993784,,,,,,lucie_1,001,2020_Feb_06_1316,posner,3.1.5,59.94535381540085,
-0.5,0,1,left,1,3,1,0,1,0,10,5,85,1,,,,,,,,,446.3744694000002,446.8739668000003,447.59204439999985,None,446.8908958999996,447.5751159999995,448.0924583000001,None,left,1,0.26595540000016626,448.0924583000001,None,None,446.8908958999996,448.07573120000006,0.5113567000007606,0.5946139000006951,1.7131053000002794,1.7965995000004114,,,,,,lucie_1,001,2020_Feb_06_1316,posner,3.1.5,59.94535381540085,
0.5,180,1,right,2,4,1,0,1,0,10,6,86,5,,,,,,,,,448.3762505999998,448.8768864999997,449.5946753000003,None,448.89358310000034,449.57798690000027,450.09545930000013,None,right,1,0.19905039999957808,450.09545930000013,None,None,448.89358310000034,450.0785757999997,0.5118600000005245,0.5951476999998704,1.7135359000003518,1.7969450000000506,,,,,,lucie_1,001,2020_Feb_06_1316,posner,3.1.5,59.94535381540085,
-0.5,0,1,left,1,3,1,0,1,0,10,7,87,0,,,,,,,,,450.31321960000014,450.8130218000001,451.5306506000002,None,450.8295981999995,451.5138523999999,452.0311207999998,None,left,1,0.2554316999994626,452.0311207999998,None,None,450.8295981999995,452.0144110999995,0.5112581999992472,0.5944774999998117,1.712635500000033,1.7961172999994233,,,,,,lucie_1,001,2020_Feb_06_1316,posner,3.1.5,59.94535381540085,
,,,,,,1,0,1,0,,,,,,,,,,,,,,,,,,,,,,,,,,,,,,,,,,452.31518949999963,None,1.6799999684735667e-05,0.9958791999997629,lucie_1,001,2020_Feb_06_1316,posner,3.1.5,59.94535381540085,
0.5,180,1,right,2,4,2,0,2,0,0,0,0,6,1.2200000128359534e-05,0.09752810000009049,513.3324873999995,None,1.4299999747890979e-05,0.09760370000003604,515.4353218000001,None,515.7116788999997,516.2199214999996,516.9208062000002,None,516.2199214999996,516.9208062000002,517.4214697000002,None,right,1,0.2889182000008077,517.4214697000002,None,None,516.2199214999996,517.4214697000002,0.5005421000005299,0.6004358000000138,1.7021855000002688,1.802223700000468,,,,,,lucie_1,001,2020_Feb_06_1316,posner,3.1.5,59.94535381540085,
-0.5,180,0,left,2,3,2,0,2,0,0,1,1,4,,,,,,,,,517.7390549999996,518.2391579,518.9567462999998,None,518.2558458999997,518.9403196999997,519.4573488000001,None,left,1,0.25310950000039156,519.4573488000001,None,None,518.2558458999997,519.4410819999998,0.5108849999996892,0.5945222999998805,1.712774000000536,1.796015300000363,,,,,,lucie_1,001,2020_Feb_06_1316,posner,3.1.5,59.94535381540085,
-0.5,0,1,left,1,3,2,0,2,0,0,2,2,1,,,,,,,,,519.7419776000002,520.2420073999997,520.9598418,None,520.2585486000003,520.9429121999997,521.4603620000003,None,left,1,0.33020400000077643,521.4603620000003,None,None,520.2585486000003,521.4434657999996,0.5113659999997253,0.5947163000000728,1.7128038000000743,1.7963284999996176,,,,,,lucie_1,001,2020_Feb_06_1316,posner,3.1.5,59.94535381540085,
0.5,180,1,right,2,4,2,0,2,0,0,3,3,5,,,,,,,,,521.8116827999997,522.3115637999995,523.0291493999998,None,522.3281536999998,523.0124909000001,523.5300979999997,None,right,1,0.2924390999996831,523.5300979999997,None,None,522.3281536999998,523.5131715000002,0.5116183000000092,0.5952530000004117,1.7132166000001234,1.7965684000000692,,,,,,lucie_1,001,2020_Feb_06_1316,posner,3.1.5,59.94535381540085,
-0.5,0,1,left,1,3,2,0,2,0,0,4,4,2,,,,,,,,,523.8473367000001,524.3476014000003,525.0653464000002,None,524.3645141000002,525.0483816999999,525.5657380999996,None,left,1,0.15282610000031127,525.5657380999996,None,None,524.3645141000002,525.5495169999999,0.5116610000004584,0.5953989000008733,1.7135574000003544,1.7968487000007372,,,,,,lucie_1,001,2020_Feb_06_1316,posner,3.1.5,59.94535381540085,
0.5,180,1,right,2,4,2,0,2,0,0,5,5,7,,,,,,,,,525.7504879000003,526.2504684999999,526.9678132000004,None,526.2668005,526.9513356000002,527.4686697000002,None,right,1,0.2417582999996739,527.4686697000002,None,None,526.2668005,527.4520437999995,0.5117854000000079,0.5951881000000867,1.7133451999998215,1.7965746999998373,,,,,,lucie_1,001,2020_Feb_06_1316,posner,3.1.5,59.94535381540085,
-0.5,0,1,left,1,3,2,0,2,0,0,6,6,0,,,,,,,,,527.7362867999996,528.2361414000002,528.9541191000003,None,528.2529486999997,528.9371955000001,529.4548815000003,None,left,1,0.23170269999991433,529.4548815000003,None,None,528.2529486999997,529.4377564000001,0.5117068999998082,0.595513999999639,1.7133033000000069,1.7969751999999062,,,,,,lucie_1,001,2020_Feb_06_1316,posner,3.1.5,59.94535381540085,
0.5,0,0,right,1,4,2,0,2,0,0,7,7,3,,,,,,,,,529.7058081,530.2055495999998,530.923354,None,530.2223589,530.9064813999998,531.4239747999995,None,right,1,0.02267319999918982,531.4239747999995,None,None,530.2223589,531.4072142,0.5114036000004489,0.5949230000005628,1.7130544999999984,None,,,,,,lucie_1,001,2020_Feb_06_1316,posner,3.1.5,59.94535381540085,
-0.5,0,1,left,1,3,2,0,2,0,1,0,8,0,,,,,,,,,531.4747967999997,531.9748269999996,532.6925733000003,None,531.9915479999995,532.6756645999999,533.1930883999999,None,left,1,0.2616433000002871,533.1930883999999,None,None,531.9915479999995,533.1764091,0.5116060999998808,0.5949784000004001,1.7131736000001183,1.79667580000023,,,,,,lucie_1,001,2020_Feb_06_1316,posner,3.1.5,59.94535381540085,
-0.5,0,1,left,1,3,2,0,2,0,1,1,9,1,,,,,,,,,533.4770817000003,533.9774328999997,534.6954079000002,None,533.9942740000001,534.6784353999997,535.1959114999995,None,right,0,0.2426009000000704,535.1959114999995,None,None,533.9942740000001,535.1793273999997,0.5120753999999579,0.5955635000000257,1.7139514000000418,1.797455799999625,,,,,,lucie_1,001,2020_Feb_06_1316,posner,3.1.5,59.94535381540085,
-0.5,180,0,left,2,3,2,0,2,0,1,2,10,4,,,,,,,,,535.4637173999995,535.9639126999996,536.681349,None,535.9804846000002,536.6646029999997,537.1820553000002,None,left,1,0.2883483999994496,537.1820553000002,None,None,535.9804846000002,537.1652747000003,0.5120551999998497,0.5951274999997622,1.713400399999955,1.796751900000345,,,,,,lucie_1,001,2020_Feb_06_1316,posner,3.1.5,59.94535381540085,
-0.5,0,1,left,1,3,2,0,2,0,1,3,11,2,,,,,,,,,537.498983,537.9999295000002,538.7173869000003,None,538.0163876000001,538.7009958000003,539.2182287999999,None,left,1,0.3163334000000759,539.2182287999999,None,None,538.0163876000001,539.2014744000003,0.5124311999998099,0.5956084999997984,1.7139627999995355,1.797438499999771,,,,,,lucie_1,001,2020_Feb_06_1316,posner,3.1.5,59.94535381540085,
0.5,0,0,right,1,4,2,0,2,0,1,4,12,3,,,,,,,,,539.5527104999996,540.0528044999996,540.7703221999996,None,540.0695228999998,540.7537072,541.271115,None,right,1,0.2792661000003136,541.271115,None,None,540.0695228999998,541.2543800999997,0.5117937000004531,0.5948711999999432,1.7133531999998013,1.7966462000003958,,,,,,lucie_1,001,2020_Feb_06_1316,posner,3.1.5,59.94535381540085,
0.5,180,1,right,2,4,2,0,2,0,1,5,13,6,,,,,,,,,541.5724059999998,542.0720366,542.7899166000002,None,542.0888737999999,542.7729015,543.2904592999998,None,right,1,0.2200874999998632,543.2904592999998,None,None,542.0888737999999,543.2739492999995,0.5113445000006323,0.5948747000002186,1.7132566999998744,1.7964144000006854,,,,,,lucie_1,001,2020_Feb_06_1316,posner,3.1.5,59.94535381540085,
0.5,180,1,right,2,4,2,0,2,0,1,6,14,7,,,,,,,,,543.5413323999996,544.0417137999998,544.7589857999997,None,544.0581398999998,544.7424089000001,545.2598649999995,None,right,1,0.2666040999993129,545.2598649999995,None,None,544.0581398999998,545.2431615999999,0.5115845999998783,0.5947203000005175,1.7130170000000362,1.796229200000198,,,,,,lucie_1,001,2020_Feb_06_1316,posner,3.1.5,59.94535381540085,
0.5,180,1,right,2,4,2,0,2,0,1,7,15,5,,,,,,,,,545.5442362999997,546.044292,546.7618226,None,546.0610151999995,546.7452591999995,547.2625567,None,right,1,0.27186819999951695,547.2625567,None,None,546.0610151999995,547.2457327999996,0.5115723999997499,0.5949282000001404,1.7130016999999498,1.796698699999979,,,,,,lucie_1,001,2020_Feb_06_1316,posner,3.1.5,59.94535381540085,
0.5,180,1,right,2,4,2,0,2,0,2,0,16,7,,,,,,,,,547.5638064,548.063662,548.7812891999997,None,548.08034,548.7648025000003,549.2820936000003,None,right,1,0.25223209999967366,549.2820936000003,None,None,548.08034,549.2653210000003,0.5116156000003684,0.594950499999868,1.713260900000023,1.7965063000001464,,,,,,lucie_1,001,2020_Feb_06_1316,posner,3.1.5,59.94535381540085,
-0.5,0,1,left,1,3,2,0,2,0,2,1,17,2,,,,,,,,,549.5503198000001,550.0498289000002,550.7673043,None,550.0663630000004,550.7506839000002,551.2679565000003,None,left,1,0.15440209999997023,551.2679565000003,None,None,550.0663630000004,551.2514901999998,0.5117241999996622,0.5952720999994199,1.7133702999999514,1.7969990999999936,,,,,,lucie_1,001,2020_Feb_06_1316,posner,3.1.5,59.94535381540085,
-0.5,0,1,left,1,3,2,0,2,0,2,2,18,0,,,,,,,,,551.4523615000003,551.9525200000003,552.6700949000001,None,551.9688620000002,552.6534182999999,553.1708618999996,None,left,1,0.29154920000019047,553.1708618999996,None,None,551.9688620000002,553.1542090999997,0.5113810000002559,0.5946066000005885,1.7130569000000833,1.7962286000001768,,,,,,lucie_1,001,2020_Feb_06_1316,posner,3.1.5,59.94535381540085,
-0.5,180,0,left,2,3,2,0,2,0,2,3,19,4,,,,,,,,,553.4882627000002,553.9884351999995,554.7059533999995,None,554.0052315999997,554.6895375999998,555.2067184000002,None,left,1,0.2877809999999954,555.2067184000002,None,None,554.0052315999997,555.1901850999998,0.5115479999994932,0.5950778999995237,1.7132753999994748,1.7968365999995513,,,,,,lucie_1,001,2020_Feb_06_1316,posner,3.1.5,59.94535381540085,
0.5,180,1,right,2,4,2,0,2,0,2,4,20,6,,,,,,,,,555.5243446,556.0246231999995,556.7423381000003,None,556.0414761999996,556.7258414000003,557.2428996000003,None,right,1,0.27561510000032285,557.2428996000003,None,None,556.0414761999996,557.2262522999995,0.511816700000054,0.5950948999998218,1.713426399999662,1.796875999999429,,,,,,lucie_1,001,2020_Feb_06_1316,posner,3.1.5,59.94535381540085,
0.5,180,1,right,2,4,2,0,2,0,2,5,21,5,,,,,,,,,557.5439905999997,558.0443881999995,558.7617699999996,None,558.0608334000003,558.7452768999997,559.2626937999999,None,right,1,0.24786689999928058,559.2626937999999,None,None,558.0608334000003,559.2457418999998,0.512021000000459,0.5949931000004653,1.7133684999998877,1.7968767000002117,,,,,,lucie_1,001,2020_Feb_06_1316,posner,3.1.5,59.94535381540085,
-0.5,0,1,left,1,3,2,0,2,0,2,6,22,1,,,,,,,,,559.5305524,560.0303503,560.7477679999997,None,560.0467796999997,560.7311173000003,561.2485540000002,None,left,1,0.22993440000027476,561.2485540000002,None,None,560.0467796999997,561.2319274999995,0.5116735999999946,0.5947788000003129,1.7132077000005665,1.796601500000179,,,,,,lucie_1,001,2020_Feb_06_1316,posner,3.1.5,59.94535381540085,
0.5,0,0,right,1,4,2,0,2,0,2,7,23,3,,,,,,,,,561.4996542000004,561.9995815999996,562.7170844999996,None,562.0161377999998,562.7005851999998,563.2178078000002,None,right,1,0.20460580000053596,563.2178078000002,None,None,562.0161377999998,563.2014087000002,0.5114594999995461,0.594921500000055,1.7132653999997274,1.796624200000224,,,,,,lucie_1,001,2020_Feb_06_1316,posner,3.1.5,59.94535381540085,
-0.5,0,1,left,1,3,2,0,2,0,3,0,24,1,,,,,,,,,563.4521661000003,563.9522636999995,564.6699561,None,563.9689137999999,564.6535159,565.1707451999996,None,left,1,0.07583770000019285,565.1707451999996,None,None,563.9689137999999,565.1540520000003,0.5112724000000526,0.5946362000004228,1.7130513000001883,1.7962772000000768,,,,,,lucie_1,001,2020_Feb_06_1316,posner,3.1.5,59.94535381540085,
0.5,180,1,right,2,4,2,0,2,0,3,1,25,5,,,,,,,,,565.2714097000003,565.7715784999996,566.4890031999998,None,565.7881025000002,566.4723194000003,566.9898000999997,None,right,1,0.24082519999956276,566.9898000999997,None,None,565.7881025000002,566.9731133999999,0.5119120999997904,0.5953544000003603,1.7134310999999798,1.7969350000003033,,,,,,lucie_1,001,2020_Feb_06_1316,posner,3.1.5,59.94535381540085,
0.5,0,0,right,1,4,2,0,2,0,3,2,26,3,,,,,,,,,567.2573086999996,567.7575159000003,568.4749770000003,None,567.7742352999999,568.4584237000004,568.9757856000001,None,right,1,0.2867884999996022,568.9757856000001,None,None,567.7742352999999,568.9590268999996,0.5117286000004242,0.595231899999817,1.7132214000002932,1.7967771000003268,,,,,,lucie_1,001,2020_Feb_06_1316,posner,3.1.5,59.94535381540085,
-0.5,0,1,left,1,3,2,0,2,0,3,3,27,2,,,,,,,,,569.2929391000002,569.7936930000001,570.5116084999995,None,569.8104875000004,570.4946783999999,571.0119312000002,None,left,1,0.30678270000043995,571.0119312000002,None,None,569.8104875000004,570.9956102000001,0.5126104000000851,0.5958436000000802,1.714512200000172,1.797563899999659,,,,,,lucie_1,001,2020_Feb_06_1316,posner,3.1.5,59.94535381540085,
-0.5,0,1,left,1,3,2,0,2,0,3,4,28,0,,,,,,,,,571.3463248000003,571.8463946999996,572.5641515000002,None,571.8633128999995,572.5473230000002,573.0647967999998,None,right,0,0.19782889999987674,573.0647967999998,None,None,571.8633128999995,573.0480929999999,0.5116480999995474,0.5954672999996546,1.7133275999995021,1.796991700000035,,,,,,lucie_1,001,2020_Feb_06_1316,posner,3.1.5,59.94535381540085,
0.5,180,1,right,2,4,2,0,2,0,3,5,29,6,,,,,,,,,573.2824092999995,573.7826946999999,574.5003633000001,None,573.7991828999998,574.4833383,575.0007275000003,None,right,1,0.2617318000002342,575.0007275000003,None,None,573.7991828999998,574.9839887000003,0.5119999999997162,0.5951637999996819,1.7132796999994753,1.796738600000026,,,,,,lucie_1,001,2020_Feb_06_1316,posner,3.1.5,59.94535381540085,
0.5,180,1,right,2,4,2,0,2,0,3,6,30,7,,,,,,,,,575.2853178999999,575.7854320000001,576.5030148999999,None,575.8018587000001,576.4861212999999,577.0036175999999,None,right,1,0.20278349999989587,577.0036175999999,None,None,575.8018587000001,576.9867264999998,0.5116324000000532,0.5947833000000173,1.7129142000003412,1.7965753999997105,,,,,,lucie_1,001,2020_Feb_06_1316,posner,3.1.5,59.94535381540085,
-0.5,180,0,left,2,3,2,0,2,0,3,7,31,4,,,,,,,,,577.2375999999999,577.7379168000002,578.4556253999995,None,577.7549278000001,578.4387278999998,578.9561688999997,None,left,1,0.31428559999949357,578.9561688999997,None,None,577.7549278000001,578.9396388999999,0.5117499999996653,0.5950808999996298,1.7134504999994533,1.7968670999998722,,,,,,lucie_1,001,2020_Feb_06_1316,posner,3.1.5,59.94535381540085,
-0.5,0,1,left,1,3,2,0,2,0,4,0,32,0,,,,,,,,,579.2916602,579.7907915999999,580.5083284999996,None,579.8074058999996,580.4916191999996,581.0090144000001,None,left,1,0.2693915999998353,581.0090144000001,None,None,579.8074058999996,580.9925668999999,0.5112810000000536,0.5947874000003139,1.7130307000006724,1.796444600000541,,,,,,lucie_1,001,2020_Feb_06_1316,posner,3.1.5,59.94535381540085,
0.5,180,1,right,2,4,2,0,2,0,4,1,33,6,,,,,,,,,581.3099592000003,581.8102310999998,582.5277500999996,None,581.8267251000002,582.5112289000003,583.0287642999997,None,right,1,0.20968960000027437,583.0287642999997,None,None,581.8267251000002,583.0118465,0.5116649000001416,0.5951241000002483,1.7132550999995146,1.7966700999995737,,,,,,lucie_1,001,2020_Feb_06_1316,posner,3.1.5,59.94535381540085,
-0.5,0,1,left,1,3,2,0,2,0,4,2,34,2,,,,,,,,,583.2630666,583.7630881,584.4807542000003,None,583.7798052000003,584.4639534000003,584.9814257000003,None,right,0,0.08904830000028596,584.9814257000003,None,None,583.7798052000003,584.9647025999998,0.5114679999996952,0.5944706999998743,1.7130665999993653,1.7962233999996897,,,,,,lucie_1,001,2020_Feb_06_1316,posner,3.1.5,59.94535381540085,
-0.5,180,0,left,2,3,2,0,2,0,4,3,35,4,,,,,,,,,585.0980734999998,585.5987207000003,586.3163338999998,None,585.6153129999998,586.2998471999995,586.8170753999998,None,left,1,0.30949650000002293,586.8170753999998,None,None,585.6153129999998,586.8004106000003,0.5114927000004172,0.5951953000003414,1.713164400000096,1.796869599999809,,,,,,lucie_1,001,2020_Feb_06_1316,posner,3.1.5,59.94535381540085,
0.5,0,0,right,1,4,2,0,2,0,4,4,36,3,,,,,,,,,587.1513379000003,587.6517579999995,588.3686796999996,None,587.6682182,588.3531640999995,588.8700407000001,None,left,0,0.1203096999997797,588.8700407000001,None,None,587.6682182,588.8532821000003,0.5118345000000772,0.5951655999997456,1.7133427999997366,1.7965680999996039,,,,,,lucie_1,001,2020_Feb_06_1316,posner,3.1.5,59.94535381540085,
-0.5,0,1,left,1,3,2,0,2,0,4,5,37,1,,,,,,,,,589.0207975999997,589.5209547,590.2384385999999,None,589.5374258999996,590.2218693,590.7390602,None,left,1,0.38741440000012517,590.7390602,None,None,589.5374258999996,590.7224158000004,0.5117989999998827,0.5950610999998389,1.7132473000001482,1.7967238999999608,,,,,,lucie_1,001,2020_Feb_06_1316,posner,3.1.5,59.94535381540085,
0.5,180,1,right,2,4,2,0,2,0,4,6,38,7,,,,,,,,,591.1569318999996,591.6570759000001,592.3748236999995,None,591.6737977999996,592.3580363999995,592.8756404999999,None,right,1,0.25887479999983043,592.8756404999999,None,None,591.6737977999996,592.8586613000002,0.5114817999992738,0.5950778999995237,1.713045699999384,1.796696699999302,,,,,,lucie_1,001,2020_Feb_06_1316,posner,3.1.5,59.94535381540085,
0.5,180,1,right,2,4,2,0,2,0,4,7,39,5,,,,,,,,,593.1600960999999,593.6599333999998,594.3774528999998,None,593.6763909999995,594.3608147,594.8781377999999,None,right,1,0.30438299999968876,594.8781377999999,None,None,593.6763909999995,594.8615912999999,0.5116341999992073,0.595095499999843,1.7132768999999826,1.796895499999664,,,,,,lucie_1,001,2020_Feb_06_1316,posner,3.1.5,59.94535381540085,
-0.5,0,1,left,1,3,2,0,2,0,5,0,40,2,,,,,,,,,595.2127693999996,595.7127306999996,596.4302586999997,None,595.7297278000001,596.4137376000003,596.9311907999995,None,left,1,0.10721330000069429,596.9311907999995,None,None,595.7297278000001,596.9146992000001,0.5113236000006509,0.5946544000007634,1.7132669000002352,1.7963563000002978,,,,,,lucie_1,001,2020_Feb_06_1316,posner,3.1.5,59.94535381540085,
-0.5,0,1,left,1,3,2,0,2,0,5,1,41,1,,,,,,,,,597.0652298999998,597.5652546999995,598.2829522999996,None,597.5820122999999,598.2660972999997,598.7836277000001,None,left,1,0.310735900000509,598.7836277000001,None,None,597.5820122999999,598.7668871999999,0.5116384000002654,0.5951934000004258,1.7132571000001917,1.796900000000278,,,,,,lucie_1,001,2020_Feb_06_1316,posner,3.1.5,59.94535381540085,
0.5,180,1,right,2,4,2,0,2,0,5,2,42,5,,,,,,,,,599.1184059000002,599.6182727999999,600.3358112000001,None,599.6347991999996,600.3192065999997,600.8372494,None,right,1,0.19316549999985,600.8372494,None,None,599.6347991999996,600.8197657999995,0.5115860000005341,0.5950136000001294,1.71305940000002,1.7966579000003549,,,,,,lucie_1,001,2020_Feb_06_1316,posner,3.1.5,59.94535381540085,
0.5,180,1,right,2,4,2,0,2,0,5,3,43,6,,,,,,,,,601.0539578000003,601.5542223999996,602.2717104999997,None,601.5710048999995,602.2553727,602.7724469,None,right,1,0.2500230999994528,602.7724469,None,None,601.5710048999995,602.7556794999996,0.5117294000001493,0.5949488000005658,1.7131736000001183,1.7970563000008042,,,,,,lucie_1,001,2020_Feb_06_1316,posner,3.1.5,59.94535381540085,
0.5,180,1,right,2,4,2,0,2,0,5,4,44,7,,,,,,,,,603.0411079999999,603.5402210999996,604.2577952999995,None,603.5568808000003,604.2412723000002,604.7584375000001,None,right,1,0.17600409999977273,604.7584375000001,None,None,603.5568808000003,604.7417773000002,0.5114429999994172,0.5948436999997284,1.7129876999997578,1.7965036999994481,,,,,,lucie_1,001,2020_Feb_06_1316,posner,3.1.5,59.94535381540085,
-0.5,0,1,left,1,3,2,0,2,0,5,5,45,0,,,,,,,,,604.9593418999998,605.4593804000001,606.1771489999996,None,605.4762200999999,606.1604997,606.6779100999997,607.1618524,left,1,0.504567699999825,606.6779100999997,None,None,605.4762200999999,606.6612766000003,0.5116303999993761,0.5953285999994478,1.7134643999997934,1.7968784999993659,,,,,,lucie_1,001,2020_Feb_06_1316,posner,3.1.5,59.94535381540085,
-0.5,180,0,left,2,3,2,0,2,0,5,6,46,4,,,,,,,,,607.2124565999998,607.7126149999999,608.4307633000003,None,607.7294524000004,608.4135388,608.9311887999997,None,left,1,0.2993029999997816,608.9311887999997,None,None,607.7294524000004,608.9146949999999,0.5116040000002613,0.5948775999995632,1.7136663000001136,1.796684599999935,,,,,,lucie_1,001,2020_Feb_06_1316,posner,3.1.5,59.94535381540085,
0.5,0,0,right,1,4,2,0,2,0,5,7,47,3,,,,,,,,,609.2482973000001,609.7487715000002,610.4664152,None,609.7654686000001,610.4498902,610.9669891999997,None,right,1,0.23953660000006494,610.9669891999997,None,None,609.7654686000001,610.9503828000002,0.5114340000000084,0.594884600000114,1.7130259000005026,1.796479300000101,,,,,,lucie_1,001,2020_Feb_06_1316,posner,3.1.5,59.94535381540085,
-0.5,0,1,left,1,3,2,0,2,0,6,0,48,0,,,,,,,,,611.2350081999998,611.7349948999995,612.4525129999997,None,611.7515428000002,612.4356991,612.9531839999995,None,left,1,0.23739040000054956,612.9531839999995,None,None,611.7515428000002,612.9364687000002,0.5117108000004009,0.5949344999999084,1.7131703000004563,1.7968904999997903,,,,,,lucie_1,001,2020_Feb_06_1316,posner,3.1.5,59.94535381540085,
-0.5,0,1,left,1,3,2,0,2,0,6,1,49,1,,,,,,,,,613.2209387999997,613.7209193000003,614.4385883,None,613.7374171999995,614.4218918000001,614.9392027999997,None,left,1,0.2433270999999877,614.9392027999997,None,None,613.7374171999995,614.9226922000003,0.5113647000007404,0.5951279999999315,1.7131146000001536,1.7964071000005788,,,,,,lucie_1,001,2020_Feb_06_1316,posner,3.1.5,59.94535381540085,
0.5,180,1,right,2,4,2,0,2,0,6,2,50,5,,,,,,,,,615.2068132999998,615.7068813000001,616.4245825000003,None,615.7237422000003,616.4078918,616.9254472999996,None,right,1,0.21725200000037148,616.9254472999996,None,None,615.7237422000003,616.9085325000001,0.5115817000005336,0.5952284000004511,1.713212100000419,1.7969276000003447,,,,,,lucie_1,001,2020_Feb_06_1316,posner,3.1.5,59.94535381540085,
-0.5,0,1,left,1,3,2,0,2,0,6,3,51,2,,,,,,,,,617.1598042,617.6596691999998,618.3771855999998,None,617.6762034999997,618.3607331999997,618.8779306000001,None,left,1,0.23256559999936144,618.8779306000001,None,None,617.6762034999997,618.8612769999995,0.511807900000349,0.5947708000003331,1.713092300000426,1.7967893000004551,,,,,,lucie_1,001,2020_Feb_06_1316,posner,3.1.5,59.94535381540085,
-0.5,180,0,left,2,3,2,0,2,0,6,4,52,4,,,,,,,,,619.1285740999997,619.6290226999995,620.3465517,None,619.6457212999999,620.3303558000002,620.8473391000002,None,left,1,0.40728929999932006,620.8473391000002,None,None,619.6457212999999,620.8309151999997,0.5114188999996259,0.5949697999994896,1.7132916000000478,1.7966811999995116,,,,,,lucie_1,001,2020_Feb_06_1316,posner,3.1.5,59.94535381540085,
0.5,180,1,right,2,4,2,0,2,0,6,5,53,7,,,,,,,,,621.2818352999998,621.7821951999999,622.4995954999999,None,621.7986645999995,622.4831657,623.0004635,None,right,1,0.206054000000222,623.0004635,None,None,621.7986645999995,622.9836414999995,0.51214759999948,0.5955082000000402,1.7135822999998709,1.7969469999998182,,,,,,lucie_1,001,2020_Feb_06_1316,posner,3.1.5,59.94535381540085,
0.5,180,1,right,2,4,2,0,2,0,6,6,54,6,,,,,,,,,623.234758,623.7348809,624.4524373999998,None,623.7513881,624.4355535,624.9530873999997,None,right,1,0.4213177999999971,624.9530873999997,None,None,623.7513881,624.9364736000002,0.511921600000278,0.5950775999999678,1.713498800000707,1.7969036000004053,,,,,,lucie_1,001,2020_Feb_06_1316,posner,3.1.5,59.94535381540085,
0.5,0,0,right,1,4,2,0,2,0,6,7,55,3,,,,,,,,,625.4039861999995,625.9046739,626.6221517999998,None,625.9212065999996,626.6057114999999,627.1228587,None,left,0,0.05956019999939599,627.1228587,None,None,625.9212065999996,627.1060847000003,0.51192809999975,0.5949952999999368,1.7133297000000312,1.796774500000538,,,,,,lucie_1,001,2020_Feb_06_1316,posner,3.1.5,59.94535381540085,
-0.5,0,1,left,1,3,2,0,2,0,7,0,56,1,,,,,,,,,627.2066582000002,627.7067512999997,628.4245741,None,627.7235692999998,628.4077677,628.9257229999998,None,left,1,0.11277369999970688,628.9257229999998,None,None,627.7235692999998,628.9084906000003,0.5117147999999361,0.5952395000003889,1.7134375000005093,1.7969646999999895,,,,,,lucie_1,001,2020_Feb_06_1316,posner,3.1.5,59.94535381540085,
0.5,0,0,right,1,4,2,0,2,0,7,1,57,3,,,,,,,,,629.0598089,629.5593119,630.2770231999998,None,629.5760244999997,630.2605368,630.7775584999995,None,right,1,0.3089626999999382,630.7775584999995,None,None,629.5760244999997,630.761062,0.5112698000002638,0.5948129000007611,1.7130015000002459,1.7965881000000081,,,,,,lucie_1,001,2020_Feb_06_1316,posner,3.1.5,59.94535381540085,
-0.5,180,0,left,2,3,2,0,2,0,7,2,58,4,,,,,,,,,631.1123729999995,631.6122832999995,632.3300390999998,None,631.6289954999997,632.3133084999995,632.8306878999997,None,right,0,0.21581510000032722,632.8306878999997,None,None,631.6289954999997,632.8140617000004,0.5112639999997555,0.5947193000001789,1.7130267000002277,1.7962233999996897,,,,,,lucie_1,001,2020_Feb_06_1316,posner,3.1.5,59.94535381540085,
-0.5,0,1,left,1,3,2,0,2,0,7,3,59,0,,,,,,,,,633.0649044999996,633.564922,634.2829194000001,None,633.5818335999998,634.2659840000001,634.7833069000003,None,left,1,0.2791308999994726,634.7833069000003,None,None,633.5818335999998,634.7664579999996,0.5116011999998591,0.5951121999996758,1.7131184999998368,1.7966192999992927,,,,,,lucie_1,001,2020_Feb_06_1316,posner,3.1.5,59.94535381540085,
0.5,180,1,right,2,4,2,0,2,0,7,4,60,7,,,,,,,,,635.0843522,635.5845580999999,636.3021623999998,None,635.6013601,636.2854808999996,636.8027613999998,None,right,1,0.2518268000003445,636.8027613999998,None,None,635.6013601,636.7858855999998,0.5118713000001662,0.595132299999932,1.7131853999999294,1.7968407999996998,,,,,,lucie_1,001,2020_Feb_06_1316,posner,3.1.5,59.94535381540085,
-0.5,0,1,left,1,3,2,0,2,0,7,5,61,2,,,,,,,,,637.0705095999997,637.5705350000003,638.2879441999999,None,637.5870078000003,638.2715301000003,638.7888282999998,None,left,1,0.22576639999988402,638.7888282999998,None,None,637.5870078000003,638.7721307999996,0.5117207000002963,0.5951187000000573,1.713306300000113,1.7968972999997277,,,,,,lucie_1,001,2020_Feb_06_1316,posner,3.1.5,59.94535381540085,
0.5,180,1,right,2,4,2,0,2,0,7,6,62,6,,,,,,,,,639.0399252000002,639.5399462999999,640.257392,None,639.5565398000003,640.2409307000003,640.7582445000003,None,right,1,0.2323071999999229,640.7582445000003,None,None,639.5565398000003,640.7416417999998,0.5115934000004927,0.5950852000005398,1.713266200000362,1.7966378000000987,,,,,,lucie_1,001,2020_Feb_06_1316,posner,3.1.5,59.94535381540085,
0.5,180,1,right,2,4,2,0,2,0,7,7,63,5,,,,,,,,,641.0096240999997,641.5091602999996,642.2269296,None,641.5259645000001,642.2102383999995,642.7274423000003,None,left,0,0.06314839999959077,642.7274423000003,None,None,641.5259645000001,642.7110998000003,0.5115073000006305,0.5950542999999016,1.713380700000016,1.7968605000005482,,,,,,lucie_1,001,2020_Feb_06_1316,posner,3.1.5,59.94535381540085,
0.5,180,1,right,2,4,2,0,2,0,8,0,64,6,,,,,,,,,642.8120355999995,643.3118539000002,644.0295025,None,643.3284976,644.0126974999998,644.5301195999996,None,right,1,0.3643535000001066,644.5301195999996,None,None,643.3284976,644.5136035,0.5115065999998478,0.595006800000192,1.7132481999997253,1.7964485000002242,,,,,,lucie_1,001,2020_Feb_06_1316,posner,3.1.5,59.94535381540085,
-0.5,0,1,left,1,3,2,0,2,0,8,1,65,2,,,,,,,,,644.9147685000003,645.4147968000002,646.1326654,None,645.4315763999998,646.1156508999998,646.6331876999998,None,left,1,0.2852636000006896,646.6331876999998,None,None,645.4315763999998,646.6161449999995,0.5113738000000012,0.594574300000204,1.7127074999998513,1.7965610000001107,,,,,,lucie_1,001,2020_Feb_06_1316,posner,3.1.5,59.94535381540085,
-0.5,180,0,left,2,3,2,0,2,0,8,2,66,4,,,,,,,,,646.9343354999996,647.4342030000003,648.1518646999998,None,647.4508644000002,648.1349710999998,648.6523935,None,left,1,0.42610939999940456,648.6523935,None,None,647.4508644000002,648.6358087000003,0.5117480999997497,0.5950112000000445,1.7133375999992495,1.796639199999845,,,,,,lucie_1,001,2020_Feb_06_1316,posner,3.1.5,59.94535381540085,
-0.5,0,1,left,1,3,2,0,2,0,8,3,67,1,,,,,,,,,649.1037990999998,649.6040036999998,650.3213705000003,None,649.6204680999995,650.3048311999996,650.8222411000002,None,left,1,0.296206600000005,650.8222411000002,None,None,649.6204680999995,650.8053771,0.5118081999999049,0.5949250000003303,1.7131681999999273,1.7967312000000675,,,,,,lucie_1,001,2020_Feb_06_1316,posner,3.1.5,59.94535381540085,
0.5,0,0,right,1,4,2,0,2,0,8,4,68,3,,,,,,,,,651.1403896999996,651.6399385,652.3573749000002,None,651.6565095999999,652.3408846999996,652.8581417999999,None,right,1,0.3644890999994459,652.8581417999999,None,None,651.6565095999999,652.841696,0.5115369999994073,0.5950107999997272,1.7132788999997501,1.7966408000002048,,,,,,lucie_1,001,2020_Feb_06_1316,posner,3.1.5,59.94535381540085,
0.5,180,1,right,2,4,2,0,2,0,8,5,69,5,,,,,,,,,653.2430616999995,653.7428612999997,654.4603978,None,653.7593378999995,654.4439405999997,654.9612611999996,None,right,1,0.2933097999994061,654.9612611999996,None,None,653.7593378999995,654.9447974999998,0.5113455000000613,0.5945191999999224,1.7132665999997698,1.7962201000000277,,,,,,lucie_1,001,2020_Feb_06_1316,posner,3.1.5,59.94535381540085,
0.5,180,1,right,2,4,2,0,2,0,8,6,70,7,,,,,,,,,655.2788796,655.7791074000002,656.4964642999998,None,655.7957990999998,656.4800680000003,656.9972407999999,None,right,1,0.3372177000001102,656.9972407999999,None,None,655.7957990999998,656.9810092000002,0.5118314999999711,0.5950341999996454,1.7137003999996523,1.79680129999997,,,,,,lucie_1,001,2020_Feb_06_1316,posner,3.1.5,59.94535381540085,
-0.5,0,1,left,1,3,2,0,2,0,8,7,71,0,,,,,,,,,657.3647169000001,657.8651919999998,658.5828051000003,None,657.8819747000002,658.5659635999996,659.0837933999996,None,left,1,0.2266194000003452,659.0837933999996,None,None,657.8819747000002,659.0667411,0.5118013999999675,0.5952133999999205,1.7133383000000322,1.7969836000002033,,,,,,lucie_1,001,2020_Feb_06_1316,posner,3.1.5,59.94535381540085,
-0.5,180,0,left,2,3,2,0,2,0,9,0,72,4,,,,,,,,,659.3343831999996,659.8346225999999,660.5521791999995,None,659.8513006999997,660.5355028999998,661.0528942999995,None,right,0,0.04957800000011048,661.0528942999995,None,None,659.8513006999997,661.0360478999996,0.5118627000001652,0.5952954000003956,1.713275000000067,None,,,,,,lucie_1,001,2020_Feb_06_1316,posner,3.1.5,59.94535381540085,
-0.5,0,1,left,1,3,2,0,2,0,9,1,73,0,,,,,,,,,661.1202304000003,661.6205433999999,662.3379117999998,None,661.6369750999997,662.3213899999996,662.8387360000002,None,left,1,0.26381769999989046,662.8387360000002,None,None,661.6369750999997,662.8220653000003,0.5119912000000113,0.5952020000004268,1.7134977000005165,1.7969339000001128,,,,,,lucie_1,001,2020_Feb_06_1316,posner,3.1.5,59.94535381540085,
