targetX,cueOri,congr,corrAns,pin_cue,pin_target,block.thisRepN,block.thisTrialN,block.thisN,block.thisIndex,posner_task.thisRepN,posner_task.thisTrialN,posner_task.thisN,posner_task.thisIndex,port_start_block.started,port_start_block.stopped,text_2.started,text_2.stopped,p_port.started,p_port.stopped,text.started,text.stopped,fixation_1.started,fixation_1.stopped,fixation_2.started,fixation_2.stopped,cue.started,cue.stopped,target.started,target.stopped,correct_key_resp.keys,correct_key_resp.corr,correct_key_resp.rt,correct_key_resp.started,correct_key_resp.stopped,early_resp.keys,early_resp.started,early_resp.stopped,trigger_cue.started,trigger_cue.stopped,trigger_target.started,trigger_target.stopped,break_text.started,break_text.stopped,end_port.started,end_port.stopped,participant,session,date,expName,psychopyVersion,frameRate,
-0.5,0,1,left,1,3,0,0,0,0,0,0,0,0,1.7999999727180693e-05,0.09749349999992774,13.900847299999896,None,1.4899999769113492e-05,0.09945509999988644,15.786377899999934,None,16.12121500000012,16.62100620000001,17.338760000000093,None,16.63770119999981,17.32184189999998,17.839201199999934,None,left,1,0.3169329000002108,17.839201199999934,None,None,16.63770119999981,17.822925099999793,0.5091803000000255,0.5923684999997931,1.7110815000000912,1.7942437000001519,,,,,anne_3,001,2020_Feb_10_1245,posner,3.1.5,60.055371052065794,
-0.5,180,0,left,2,3,0,0,0,0,0,1,1,4,,,,,,,,,18.174202100000002,18.673766200000046,19.391203099999984,None,18.69053040000017,19.374826799999937,19.89214119999997,None,left,1,0.3678837000002204,19.89214119999997,None,None,18.69053040000017,19.875602499999786,0.5107029000000693,0.5941425000000891,1.7125221999999667,1.7956655000002684,,,,,anne_3,001,2020_Feb_10_1245,posner,3.1.5,60.055371052065794,
-0.5,0,1,left,1,3,0,0,0,0,0,2,2,2,,,,,,,,,20.276792699999987,20.77674399999978,21.49444820000008,None,20.79326919999994,21.47757219999994,21.995006300000114,None,left,1,0.30501700000013443,21.995006300000114,None,None,20.79326919999994,21.978377200000068,0.5114644999998745,0.5946815999996033,1.713080899999568,1.7964028999999755,,,,,anne_3,001,2020_Feb_10_1245,posner,3.1.5,60.055371052065794,
-0.5,0,1,left,1,3,0,0,0,0,0,3,3,1,,,,,,,,,22.329382099999748,22.82945689999997,23.54722129999982,None,22.846302399999786,23.530271099999936,24.047832599999765,None,left,1,0.34043409999958385,24.047832599999765,None,None,22.846302399999786,24.031020500000068,0.5116139000001567,0.5948441000000457,1.7131623999998737,1.7966338999999607,,,,,anne_3,001,2020_Feb_10_1245,posner,3.1.5,60.055371052065794,
0.5,180,1,right,2,4,0,0,0,0,0,4,4,5,,,,,,,,,24.4156696,24.915649999999914,25.63334880000002,None,24.932250700000168,25.616471400000137,26.13389649999999,None,right,1,0.2781134000001657,26.13389649999999,None,None,24.932250700000168,26.11743380000007,0.5116726000001108,0.5951475000001665,1.713431700000001,1.796602299999904,,,,,anne_3,001,2020_Feb_10_1245,posner,3.1.5,60.055371052065794,
0.5,180,1,right,2,4,0,0,0,0,0,5,5,7,,,,,,,,,26.43505520000008,26.93504639999992,27.652584699999807,None,26.951720900000055,27.636081099999956,28.153411499999947,None,right,1,0.3467827999998008,28.153411499999947,None,None,26.951720900000055,28.136703699999998,0.5114786999997705,0.5950681999997869,1.7131148999997095,1.7965917999999874,,,,,anne_3,001,2020_Feb_10_1245,posner,3.1.5,60.055371052065794,
0.5,180,1,right,2,4,0,0,0,0,0,6,6,6,,,,,,,,,28.521396000000095,29.021210599999904,29.738819199999853,None,29.03799170000002,29.722198099999787,30.239753599999858,None,right,1,0.36430060000020603,30.239753599999858,None,None,29.03799170000002,30.22293630000013,0.5114164000001438,0.5949973000001592,1.7133858000001965,1.796812100000352,,,,,anne_3,001,2020_Feb_10_1245,posner,3.1.5,60.055371052065794,
0.5,0,0,right,1,4,0,0,0,0,0,7,7,3,,,,,,,,,30.62457829999994,31.12433800000008,31.84175389999973,None,31.14076570000043,31.82504800000015,32.34242839999979,None,right,1,0.437668799999301,32.34242839999979,None,None,31.14076570000043,32.32580459999963,0.511600300000282,0.5949777999994694,1.7130514999998923,1.7964842999999746,,,,,anne_3,001,2020_Feb_10_1245,posner,3.1.5,60.055371052065794,
0.5,180,1,right,2,4,0,0,0,0,1,0,8,5,,,,,,,,,32.80987649999997,33.31044179999981,34.028155499999684,None,33.327313199999935,34.0114595,34.52878920000012,None,right,1,0.3233355999991545,34.52878920000012,None,None,33.327313199999935,34.512193000000025,0.5121926000001622,0.5958122000001822,1.7139241000004404,1.7974420999998983,,,,,anne_3,001,2020_Feb_10_1245,posner,3.1.5,60.055371052065794,
0.5,0,0,right,1,4,0,0,0,0,1,1,9,3,,,,,,,,,34.879644899999676,35.38029919999963,36.09783149999976,None,35.39670640000031,36.081003699999656,36.598488400000406,None,right,1,0.3815635000000839,36.598488400000406,None,None,35.39670640000031,36.5816619000002,0.5123013999991599,0.5955632999994123,1.7136447999992015,1.7973058999996283,,,,,anne_3,001,2020_Feb_10_1245,posner,3.1.5,60.055371052065794,
-0.5,0,1,left,1,3,0,0,0,0,1,2,10,0,,,,,,,,,36.99959699999954,37.50003479999987,38.2173614999997,None,37.5162464,38.20054990000017,38.718106499999976,None,left,1,0.42199579999942216,38.718106499999976,None,None,37.5162464,38.701142999999774,0.5121626999998625,0.5952982999997403,1.7132497999991756,1.7971158999998806,,,,,anne_3,001,2020_Feb_10_1245,posner,3.1.5,60.055371052065794,
-0.5,0,1,left,1,3,0,0,0,0,1,3,11,1,,,,,,,,,39.16905410000027,39.66925020000008,40.38693749999993,None,39.685985900000105,40.37010979999968,40.887682799999766,None,left,1,0.34838829999989684,40.887682799999766,None,None,39.685985900000105,40.87089530000003,0.5117758999995203,0.595317199999954,1.7133873000002495,1.7967736000000514,,,,,anne_3,001,2020_Feb_10_1245,posner,3.1.5,60.055371052065794,
-0.5,180,0,left,2,3,0,0,0,0,1,4,12,4,,,,,,,,,41.255736599999636,41.755563500000335,42.473093699999936,None,41.77188640000031,42.456551699999636,42.974006400000235,43.45797470000025,left,1,0.4859774999995352,42.974006400000235,None,None,41.77188640000031,42.95708909999985,0.5114010999996026,0.5947248000002219,1.7129164999996647,1.7962969999998677,,,,,anne_3,001,2020_Feb_10_1245,posner,3.1.5,60.055371052065794,
0.5,180,1,right,2,4,0,0,0,0,1,5,13,7,,,,,,,,,43.49187949999987,43.9918561999998,44.70953899999995,None,44.00863210000034,44.69286289999991,45.2101975999999,None,right,1,0.2978297999998176,45.2101975999999,None,None,44.00863210000034,45.193709800000306,0.5114559999992707,0.5949866999999358,1.7132885999999417,1.7967008999994505,,,,,anne_3,001,2020_Feb_10_1245,posner,3.1.5,60.055371052065794,
0.5,180,1,right,2,4,0,0,0,0,1,6,14,6,,,,,,,,,45.52814530000023,46.02817499999992,46.74557849999974,None,46.0447293000002,46.729075400000056,47.246531700000105,None,right,1,0.26149569999961386,47.246531700000105,None,None,46.0447293000002,47.229599800000415,0.5118123000002015,0.5950668000004953,1.7132250000004206,1.796636000000035,,,,,anne_3,001,2020_Feb_10_1245,posner,3.1.5,60.055371052065794,
-0.5,0,1,left,1,3,0,0,0,0,1,7,15,2,,,,,,,,,47.530863299999965,48.03073259999974,48.748347100000046,None,48.047549000000345,48.73164990000032,49.24915589999955,None,left,1,0.25882799999999406,49.24915589999955,None,None,48.047549000000345,49.23238040000024,0.5116426999993564,0.5952038999994329,1.7132668999993257,1.79683599999953,,,,,anne_3,001,2020_Feb_10_1245,posner,3.1.5,60.055371052065794,
0.5,180,1,right,2,4,0,0,0,0,2,0,16,5,,,,,,,,,49.53401840000015,50.03359630000023,50.75098509999998,None,50.05024699999967,50.73461710000038,51.25185339999962,None,right,1,0.232216100000187,51.25185339999962,None,None,50.05024699999967,51.23527289999993,0.5115460000006351,0.5948994000000312,1.7132070000006934,1.7966700000006313,,,,,anne_3,001,2020_Feb_10_1245,posner,3.1.5,60.055371052065794,
-0.5,0,1,left,1,3,0,0,0,0,2,1,17,1,,,,,,,,,51.50280729999986,52.002902699999595,52.72051799999963,None,52.01944760000015,52.70389790000036,53.221247400000266,None,left,1,0.19071290000010777,53.221247400000266,None,None,52.01944760000015,53.204562200000055,0.5115552999995998,0.5949542999996993,1.7131627999997363,1.7965821999996479,,,,,anne_3,001,2020_Feb_10_1245,posner,3.1.5,60.055371052065794,
0.5,0,0,right,1,4,0,0,0,0,2,2,18,3,,,,,,,,,53.43856089999963,53.9391013999998,54.656521299999895,None,53.95563329999959,54.63966589999973,55.15724780000028,None,right,1,0.3586801999999807,55.15724780000028,None,None,53.95563329999959,55.14052159999983,0.512024200000269,0.5951900000000023,1.7134296000003815,1.7970666999999594,,,,,anne_3,001,2020_Feb_10_1245,posner,3.1.5,60.055371052065794,
-0.5,0,1,left,1,3,0,0,0,0,2,3,19,0,,,,,,,,,55.54192560000001,56.041705699999966,56.75935290000007,None,56.058574999999564,56.742798499999935,57.25998850000042,None,left,1,0.3840914000002158,57.25998850000042,None,None,56.058574999999564,57.243529699999726,0.5115482000001066,0.5951216000003114,1.7133509000004778,1.7967696000005162,,,,,anne_3,001,2020_Feb_10_1245,posner,3.1.5,60.055371052065794,
0.5,180,1,right,2,4,0,0,0,0,2,4,20,7,,,,,,,,,57.66118560000041,58.161333900000045,58.87902710000026,None,58.17819139999983,58.862248400000226,59.379682799999955,None,right,1,0.23229410000021744,59.379682799999955,None,None,58.17819139999983,59.363099699999566,0.5119195000006584,0.5954888000005667,1.713806100000511,1.7972577000000456,,,,,anne_3,001,2020_Feb_10_1245,posner,3.1.5,60.055371052065794,
-0.5,180,0,left,2,3,0,0,0,0,2,5,21,4,,,,,,,,,59.63095480000038,60.13064330000043,60.84853489999978,None,60.14753189999965,60.8315891999996,61.34902949999969,None,left,1,0.4229856000001746,61.34902949999969,None,None,60.14753189999965,61.33233609999979,0.5113224999995509,0.5950015999997049,1.7130235999993602,1.7964472999992722,,,,,anne_3,001,2020_Feb_10_1245,posner,3.1.5,60.055371052065794,
0.5,180,1,right,2,4,0,0,0,0,2,6,22,6,,,,,,,,,61.79992819999961,62.30029119999972,63.018077000000176,None,62.31719490000023,63.00128960000029,63.51882650000016,None,right,1,0.31747140000061336,63.51882650000016,None,None,62.31719490000023,63.50200019999966,0.5121253999996043,0.5957123999996838,1.71381780000047,1.7973877000003995,,,,,anne_3,001,2020_Feb_10_1245,posner,3.1.5,60.055371052065794,
-0.5,0,1,left,1,3,0,0,0,0,2,7,23,2,,,,,,,,,63.8536167999996,64.35334300000022,65.07071179999957,None,64.3697989999996,65.05430480000041,65.57146429999966,None,left,1,0.2565725999993447,65.57146429999966,None,None,64.3697989999996,65.55496470000026,0.5115956999998161,0.5949533999992127,1.713188199999422,1.7966202999996312,,,,,anne_3,001,2020_Feb_10_1245,posner,3.1.5,60.055371052065794,
-0.5,0,1,left,1,3,0,0,0,0,3,0,24,2,,,,,,,,,65.85591869999962,66.35630840000022,67.07365979999986,None,66.37264220000043,67.0569830999998,67.57439599999952,None,left,1,0.29355840000062017,67.57439599999952,None,None,66.37264220000043,67.55765440000005,0.5119840999996086,0.5950215999991997,1.7133186999999452,1.7965840999995635,,,,,anne_3,001,2020_Feb_10_1245,posner,3.1.5,60.055371052065794,
0.5,180,1,right,2,4,0,0,0,0,3,1,25,5,,,,,,,,,67.8924148000001,68.39199719999988,69.11015840000027,None,68.40899450000006,69.09310529999993,69.61040009999988,None,right,1,0.3056314999994356,69.61040009999988,None,None,68.40899450000006,69.59383649999972,0.5115470000000641,0.5950621000001775,1.7133628999999928,1.7966780999995535,,,,,anne_3,001,2020_Feb_10_1245,posner,3.1.5,60.055371052065794,
0.5,180,1,right,2,4,0,0,0,0,3,2,26,6,,,,,,,,,69.94483400000036,70.44485639999994,71.16250379999974,None,70.4615976,71.14597279999953,71.66330080000034,None,right,1,0.3326563000000533,71.66330080000034,None,None,70.4615976,71.64676069999996,0.511634999999842,0.5951402999999118,1.7135161999995034,1.7967940999997154,,,,,anne_3,001,2020_Feb_10_1245,posner,3.1.5,60.055371052065794,
-0.5,0,1,left,1,3,0,0,0,0,3,3,27,0,,,,,,,,,72.01491690000012,72.51459010000008,73.23205720000033,None,72.53106040000011,73.2153159000004,73.73277050000024,None,left,1,0.28704239999933634,73.73277050000024,None,None,72.53106040000011,73.71609099999978,0.5115596999994523,0.5947854999994888,1.713044699999955,1.7963933999999426,,,,,anne_3,001,2020_Feb_10_1245,posner,3.1.5,60.055371052065794,
-0.5,0,1,left,1,3,0,0,0,0,3,4,28,1,,,,,,,,,74.05005570000003,74.5504705999997,75.26841529999956,None,74.56738220000034,75.25146559999985,75.76908959999992,None,left,1,0.3468728000007104,75.76908959999992,None,None,74.56738220000034,75.75181930000008,0.5119500000000698,0.5955825000000914,1.7133131000000503,1.7971459999998842,,,,,anne_3,001,2020_Feb_10_1245,posner,3.1.5,60.055371052065794,
0.5,180,1,right,2,4,0,0,0,0,3,5,29,7,,,,,,,,,76.13690850000012,76.63685080000005,77.35451160000002,None,76.65347669999983,77.33768550000013,77.85514399999965,None,right,1,0.24469020000015007,77.85514399999965,None,None,76.65347669999983,77.83853979999958,0.5115304000000833,0.5947272000003068,1.7132017000003543,1.7965297000000646,,,,,anne_3,001,2020_Feb_10_1245,posner,3.1.5,60.055371052065794,
0.5,0,0,right,1,4,0,0,0,0,3,6,30,3,,,,,,,,,78.12311989999989,78.6231273999997,79.34041039999966,None,78.6394478999996,79.32386340000039,79.8410442999998,None,right,1,0.39515060000030644,79.8410442999998,None,None,78.6394478999996,79.82458629999974,0.5119232000006377,0.5952735000000757,1.7133651000003738,1.7968065000004572,,,,,anne_3,001,2020_Feb_10_1245,posner,3.1.5,60.055371052065794,
-0.5,180,0,left,2,3,0,0,0,0,3,7,31,4,,,,,,,,,80.25927209999963,80.75916519999964,81.47683430000006,None,80.7759044999998,81.45995230000017,81.9776254000003,None,left,1,0.43420289999994566,81.9776254000003,None,None,80.7759044999998,81.96069120000038,0.5115931000000273,0.5948420000004262,1.7131065000003218,1.7966690000002927,,,,,anne_3,001,2020_Feb_10_1245,posner,3.1.5,60.055371052065794,
0.5,180,1,right,2,4,0,0,0,0,4,0,32,6,,,,,,,,,82.42893440000034,82.92885350000006,83.6465860000003,None,82.9456025000004,83.62956309999981,84.14720580000039,None,right,1,0.29665600000043924,84.14720580000039,None,None,82.9456025000004,84.13028040000017,0.5116619999998875,0.5949727000006533,1.7130720000004658,1.7966010999998616,,,,,anne_3,001,2020_Feb_10_1245,posner,3.1.5,60.055371052065794,
0.5,180,1,right,2,4,0,0,0,0,4,1,33,7,,,,,,,,,84.4652774000001,84.96508820000008,85.68250209999997,None,84.98154690000001,85.66587750000008,86.18326990000014,None,right,1,0.4365969000000405,86.18326990000014,None,None,84.98154690000001,86.16662729999962,0.5114457999998194,0.5946761000004699,1.7129751000002216,1.7962483000001157,,,,,anne_3,001,2020_Feb_10_1245,posner,3.1.5,60.055371052065794,
-0.5,0,1,left,1,3,0,0,0,0,4,2,34,0,,,,,,,,,86.6507058000002,87.15115120000019,87.86889209999981,None,87.1679938000002,87.85213270000031,88.36942779999981,None,left,1,0.33841000000029453,88.36942779999981,None,None,87.1679938000002,88.3528282000002,0.5117547999998351,0.5950969000004989,1.7134095999999772,1.7970076000001427,,,,,anne_3,001,2020_Feb_10_1245,posner,3.1.5,60.055371052065794,
-0.5,180,0,left,2,3,0,0,0,0,4,3,35,4,,,,,,,,,88.73733690000017,89.23743869999953,89.95522140000003,None,89.25413580000031,89.93839179999986,90.45583099999976,None,left,1,0.44405229999938456,90.45583099999976,None,None,89.25413580000031,90.43890409999995,0.5117499999996653,0.5951199000000997,1.7131953999996767,1.7970537999999578,,,,,anne_3,001,2020_Feb_10_1245,posner,3.1.5,60.055371052065794,
-0.5,0,1,left,1,3,0,0,0,0,4,4,36,2,,,,,,,,,90.92415449999999,91.4237490999999,92.14134960000001,None,91.44036740000001,92.12474169999996,92.64215490000015,None,left,1,0.35369970000010653,92.64215490000015,None,None,91.44036740000001,92.62547899999981,0.5115064000001439,0.5951070000000982,1.7132213999993837,1.796560199999476,,,,,anne_3,001,2020_Feb_10_1245,posner,3.1.5,60.055371052065794,
0.5,0,0,right,1,4,0,0,0,0,4,5,37,3,,,,,,,,,93.0263571999999,93.52676839999958,94.24436699999978,None,93.54351689999976,94.22785950000025,94.74505199999976,None,right,1,0.4027332000005117,94.74505199999976,None,None,93.54351689999976,94.72832319999952,0.5118478999993386,0.5950302999999622,1.7133852999995725,1.7968025999998645,,,,,anne_3,001,2020_Feb_10_1245,posner,3.1.5,60.055371052065794,
-0.5,0,1,left,1,3,0,0,0,0,4,6,38,1,,,,,,,,,95.17949389999967,95.67954510000027,96.39740630000006,None,95.69627009999977,96.38054229999989,96.89804190000041,None,left,1,0.32974489999924117,96.89804190000041,None,None,95.69627009999977,96.88118780000013,0.5115859999996246,0.5951491999994687,1.7132142999998905,1.796849999999722,,,,,anne_3,001,2020_Feb_10_1245,posner,3.1.5,60.055371052065794,
0.5,180,1,right,2,4,0,0,0,0,4,7,39,5,,,,,,,,,97.24928179999961,97.74906200000032,98.46669319999955,None,97.76589589999958,98.4500094,98.96758399999953,None,right,1,0.3243001999999251,98.96758399999953,None,None,97.76589589999958,98.95067640000025,0.5114859000004799,0.5952370000004521,1.7130827999999383,1.796613399999842,,,,,anne_3,001,2020_Feb_10_1245,posner,3.1.5,60.055371052065794,
-0.5,0,1,left,1,3,0,0,0,0,5,0,40,2,,,,,,,,,99.31877610000038,99.81890869999961,100.53642239999999,None,99.83530279999968,100.51940880000029,101.03699040000038,None,left,1,0.2789803000005122,101.03699040000038,None,None,99.83530279999968,101.02027669999961,0.5119220999995377,0.595093299999462,1.7132719000001089,1.7968194999994012,,,,,anne_3,001,2020_Feb_10_1245,posner,3.1.5,60.055371052065794,
-0.5,0,1,left,1,3,0,0,0,0,5,1,41,0,,,,,,,,,101.3374375999997,101.83821719999969,102.55575199999976,None,101.85481969999955,102.53904029999967,103.05636389999972,None,left,1,0.3315281999994113,103.05636389999972,None,None,101.85481969999955,103.03951749999987,0.5119813999999678,0.5953368999998929,1.7132656000003408,1.7971043999996255,,,,,anne_3,001,2020_Feb_10_1245,posner,3.1.5,60.055371052065794,
-0.5,0,1,left,1,3,0,0,0,0,5,2,42,1,,,,,,,,,103.40776249999954,103.90770099999963,104.62537730000031,None,103.9243418000001,104.60846100000026,105.12602409999954,None,left,1,0.4297471999998379,105.12602409999954,None,None,103.9243418000001,105.10914019999973,0.5116076000003886,0.5948789000003671,1.7130318999998053,1.7964812999998685,,,,,anne_3,001,2020_Feb_10_1245,posner,3.1.5,60.055371052065794,
0.5,0,0,right,1,4,0,0,0,0,5,3,43,3,,,,,,,,,105.57735939999975,106.07745209999985,106.79483019999998,None,106.09411950000003,106.77851890000011,107.29572489999964,None,right,1,0.42006189999938215,107.29572489999964,None,None,106.09411950000003,107.27878529999953,0.5118137999997998,0.5949275000002672,1.713133299999754,1.7966177999996944,,,,,anne_3,001,2020_Feb_10_1245,posner,3.1.5,60.055371052065794,
-0.5,180,0,left,2,3,0,0,0,0,5,4,44,4,,,,,,,,,107.74661839999999,108.24699949999967,108.96464220000007,None,108.26372459999993,108.94789170000013,109.46521760000041,None,left,1,0.42651670000032027,109.46521760000041,None,None,108.26372459999993,109.44860110000036,0.5118962999995347,0.595084799999313,1.7134832000001552,1.796815400000014,,,,,anne_3,001,2020_Feb_10_1245,posner,3.1.5,60.055371052065794,
0.5,180,1,right,2,4,0,0,0,0,5,5,45,6,,,,,,,,,109.91634959999965,110.41667139999981,111.1342268000003,None,110.43330790000027,111.11762409999983,111.6349908999996,None,right,1,0.280746000000363,111.6349908999996,None,None,110.43330790000027,111.61824360000037,0.5119199999999182,0.5952813999992941,1.7134786999995413,1.7969055999992634,,,,,anne_3,001,2020_Feb_10_1245,posner,3.1.5,60.055371052065794,
0.5,180,1,right,2,4,0,0,0,0,5,6,46,5,,,,,,,,,111.93607920000022,112.43611959999953,113.15361050000001,None,112.45269880000023,113.13704149999967,113.65440629999966,None,right,1,0.3653633000003538,113.65440629999966,None,None,112.45269880000023,113.63779060000024,0.5115916999993715,0.5948220999998739,1.7132464999995136,1.796539899999516,,,,,anne_3,001,2020_Feb_10_1245,posner,3.1.5,60.055371052065794,
0.5,180,1,right,2,4,0,0,0,0,5,7,47,7,,,,,,,,,114.03856719999976,114.53903440000022,115.25652920000039,None,114.55564360000017,115.23989969999957,115.75737530000015,None,right,1,0.29452390000005835,115.75737530000015,None,None,114.55564360000017,115.74049760000025,0.5122065999994447,0.5956183999996938,1.7136546000001545,1.7971393999996508,,,,,anne_3,001,2020_Feb_10_1245,posner,3.1.5,60.055371052065794,
0.5,0,0,right,1,4,0,0,0,0,6,0,48,3,,,,,,,,,116.07538340000019,116.57515339999964,117.29273020000028,None,116.59166760000016,117.27597089999972,117.79336939999985,None,right,1,0.4422999999997046,117.79336939999985,None,None,116.59166760000016,117.77685429999974,0.5114246999992247,0.5948894999992262,1.7131100999995397,1.796403199999986,,,,,anne_3,001,2020_Feb_10_1245,posner,3.1.5,60.055371052065794,
0.5,180,1,right,2,4,0,0,0,0,6,1,49,5,,,,,,,,,118.26143879999972,118.76122859999987,119.47899989999996,None,118.77807170000005,119.46229259999973,119.97956399999975,None,right,1,0.35214260000066133,119.97956399999975,None,None,118.77807170000005,119.96306460000005,0.5116287999999258,0.5952215999996042,1.7134278999992603,1.7968059999993784,,,,,anne_3,001,2020_Feb_10_1245,posner,3.1.5,60.055371052065794,
-0.5,0,1,left,1,3,0,0,0,0,6,2,50,1,,,,,,,,,120.34746080000014,120.8476684000002,121.56539399999974,None,120.86436519999961,121.54866449999963,122.06584379999958,None,left,1,0.4578281000003699,122.06584379999958,None,None,120.86436519999961,122.04916060000005,0.5118701999999757,0.5951494000000821,1.7133413999999902,1.7969848000002457,,,,,anne_3,001,2020_Feb_10_1245,posner,3.1.5,60.055371052065794,
0.5,180,1,right,2,4,0,0,0,0,6,3,51,6,,,,,,,,,122.55080210000006,123.0505003000003,123.76837399999977,None,123.06736020000017,123.75166529999979,124.26912099999981,122.55080210000006,right,1,0.18265920000067126,124.26912099999981,None,None,123.06736020000017,124.25231599999961,0.5114284999999654,0.5949663000001237,1.7132246000001032,1.796576300000197,,,,,anne_3,001,2020_Feb_10_1245,posner,3.1.5,60.055371052065794,
-0.5,180,0,left,2,3,0,0,0,0,6,4,52,4,,,,,,,,,124.4701186999996,124.9698658000002,125.68766379999988,None,124.98678809999956,125.67072320000034,126.18821290000005,None,right,0,0.1754665999997087,126.18821290000005,None,None,124.98678809999956,126.17158530000006,0.511461899999631,0.5949424999998882,1.713178799999696,1.7967371999993702,,,,,anne_3,001,2020_Feb_10_1245,posner,3.1.5,60.055371052065794,
-0.5,0,1,left,1,3,0,0,0,0,6,5,53,2,,,,,,,,,126.38870280000037,126.88901140000007,127.60698610000009,None,126.90607310000041,127.59024540000019,128.10772150000003,None,left,1,0.303947700000208,128.10772150000003,None,None,126.90607310000041,128.09074809999993,0.5122619999992821,0.5960230000000593,1.7139829999996437,1.797703399999591,,,,,anne_3,001,2020_Feb_10_1245,posner,3.1.5,60.055371052065794,
-0.5,0,1,left,1,3,0,0,0,0,6,6,54,0,,,,,,,,,128.44173420000016,128.94195739999986,129.65958360000013,None,128.95876519999956,129.64322579999998,130.16033130000005,None,left,1,0.37932890000047337,130.16033130000005,None,None,128.95876519999956,130.14366569999993,0.5114952999992965,0.5951104999994641,1.713181999999506,1.7967383999994126,,,,,anne_3,001,2020_Feb_10_1245,posner,3.1.5,60.055371052065794,
0.5,180,1,right,2,4,0,0,0,0,6,7,55,7,,,,,,,,,130.56165629999987,131.06144819999963,131.77917260000004,None,131.07838630000015,131.76250560000017,132.27989959999968,None,right,1,0.4197318999995332,132.27989959999968,None,None,131.07838630000015,132.26328839999996,0.5112269000001106,0.594847899999877,1.7130507000001671,1.796579500000007,,,,,anne_3,001,2020_Feb_10_1245,posner,3.1.5,60.055371052065794,
-0.5,0,1,left,1,3,0,0,0,0,7,0,56,0,,,,,,,,,132.73132039999973,133.2311969999996,133.94897850000007,None,133.24803719999954,133.9322073999997,134.44958199999974,None,left,1,0.3379473999993934,134.44958199999974,None,None,133.24803719999954,134.43307479999976,0.511643499999991,0.5952808000001824,1.7134985000002416,1.796747200000027,,,,,anne_3,001,2020_Feb_10_1245,posner,3.1.5,60.055371052065794,
-0.5,0,1,left,1,3,0,0,0,0,7,1,57,1,,,,,,,,,134.81733479999957,135.3174530000001,136.0354712000003,None,135.3341322000001,136.0184135000004,136.5359112000001,None,left,1,0.435719699999936,136.5359112000001,None,None,135.3341322000001,136.51921770000035,0.5116993000001457,0.5949839000004431,1.7134450000003199,1.7968275000002905,,,,,anne_3,001,2020_Feb_10_1245,posner,3.1.5,60.055371052065794,
-0.5,180,0,left,2,3,0,0,0,0,7,2,58,4,,,,,,,,,136.98707729999978,137.4872862999996,138.20492690000037,None,137.50367020000022,138.18819080000003,138.7056037999996,None,left,1,0.3860575999997309,138.7056037999996,None,None,137.50367020000022,138.68871040000022,0.5118486000001212,0.5950565000002825,1.7132597999998325,1.7966614999995727,,,,,anne_3,001,2020_Feb_10_1245,posner,3.1.5,60.055371052065794,
0.5,0,0,right,1,4,0,0,0,0,7,3,59,3,,,,,,,,,139.12323640000022,139.62352039999996,140.34097950000023,None,139.64007919999995,140.32437859999982,140.84173669999973,None,right,1,0.34588410000014846,140.84173669999973,None,None,139.64007919999995,140.8251664000004,0.5117268000003605,0.5949921000001268,1.713349599999674,1.796891300000425,,,,,anne_3,001,2020_Feb_10_1245,posner,3.1.5,60.055371052065794,
-0.5,0,1,left,1,3,0,0,0,0,7,4,60,2,,,,,,,,,141.20943620000025,141.70959110000013,142.42729970000028,None,141.72635769999988,142.41061599999966,142.92799989999958,None,left,1,0.3156960000005711,142.92799989999958,None,None,141.72635769999988,142.91127499999993,0.5117147000000841,0.595356300000276,1.713382800000545,1.796766800000114,,,,,anne_3,001,2020_Feb_10_1245,posner,3.1.5,60.055371052065794,
0.5,180,1,right,2,4,0,0,0,0,7,5,61,7,,,,,,,,,143.26286310000023,143.76244869999982,144.4799396000003,None,143.77904199999966,144.46352259999958,144.98069600000008,None,right,1,0.3429182999998375,144.98069600000008,None,None,143.77904199999966,144.96390850000034,0.5115056999993612,0.594993899999281,1.7129549999999654,1.7966820000001462,,,,,anne_3,001,2020_Feb_10_1245,posner,3.1.5,60.055371052065794,
0.5,180,1,right,2,4,0,0,0,0,7,6,62,6,,,,,,,,,145.34882770000013,145.84875870000042,146.56633939999983,None,145.86532940000006,146.54937839999957,147.06711979999955,None,right,1,0.37657149999995454,147.06711979999955,None,None,145.86532940000006,147.05034620000015,0.5117381999998543,0.5949342000003526,1.713312500000029,1.7967466000000059,,,,,anne_3,001,2020_Feb_10_1245,posner,3.1.5,60.055371052065794,
0.5,180,1,right,2,4,0,0,0,0,7,7,63,5,,,,,,,,,147.4683971999998,147.96837819999973,148.68592519999993,None,147.98484039999994,148.66916139999967,149.1865832999997,None,right,1,0.344952700000249,149.1865832999997,None,None,147.98484039999994,149.16983070000015,0.5118775000000824,0.5951187999999092,1.713317100000495,1.7968021000006047,,,,,anne_3,001,2020_Feb_10_1245,posner,3.1.5,60.055371052065794,
0.5,0,0,right,1,4,0,0,0,0,8,0,64,3,,,,,,,,,149.55452139999989,150.05445420000024,150.77205149999963,None,150.07106609999983,150.75579890000017,151.2729446999997,None,right,1,0.4106302999998661,151.2729446999997,None,None,150.07106609999983,151.25617019999981,0.5115749999995387,0.5950051999998323,1.7132744999998977,1.7964960999997857,,,,,anne_3,001,2020_Feb_10_1245,posner,3.1.5,60.055371052065794,
-0.5,0,1,left,1,3,0,0,0,0,8,1,65,2,,,,,,,,,151.70765869999968,152.20739079999976,152.92512450000004,None,152.22417780000023,152.9083354999998,153.42573399999992,None,left,1,0.34578330000022106,153.42573399999992,None,None,152.22417780000023,153.40913890000002,0.5116462999994837,0.594896599999629,1.713357300000098,1.7968159000001833,,,,,anne_3,001,2020_Feb_10_1245,posner,3.1.5,60.055371052065794,
0.5,180,1,right,2,4,0,0,0,0,8,2,66,5,,,,,,,,,153.79389260000016,154.29354879999983,155.01114279999956,None,154.3101657000002,154.9944934,155.51180199999953,None,right,1,0.26767779999954655,155.51180199999953,None,None,154.3101657000002,155.49525589999985,0.5111867000005077,0.594608700000208,1.7128708000000188,1.796343699999852,,,,,anne_3,001,2020_Feb_10_1245,posner,3.1.5,60.055371052065794,
-0.5,0,1,left,1,3,0,0,0,0,8,3,67,0,,,,,,,,,155.7963397999997,156.29647479999994,157.01406319999978,None,156.31298039999956,156.99727740000026,157.51474370000005,None,left,1,0.37684040000021923,157.51474370000005,None,None,156.31298039999956,157.49803519999978,0.5119569999997111,0.595191800000066,1.7135025999996287,1.79704270000002,,,,,anne_3,001,2020_Feb_10_1245,posner,3.1.5,60.055371052065794,
0.5,180,1,right,2,4,0,0,0,0,8,4,68,6,,,,,,,,,157.91600809999954,158.4159295000004,159.13374820000035,None,158.43258430000014,159.11682940000037,159.63419879999992,None,right,1,0.24942559999999503,159.63419879999992,None,None,158.43258430000014,159.61764280000034,0.5116397000001598,0.5949153999999908,1.7133382000001802,1.7966714000003776,,,,,anne_3,001,2020_Feb_10_1245,posner,3.1.5,60.055371052065794,
0.5,180,1,right,2,4,0,0,0,0,8,5,69,7,,,,,,,,,159.90155100000038,160.40205230000038,161.11943589999964,None,160.41868329999988,161.1031349,161.62027340000031,None,right,1,0.3911356999997224,161.62027340000031,None,None,160.41868329999988,161.6037398000003,0.5115298000000621,0.5948661000002176,1.7131734000004144,1.7965375000003405,,,,,anne_3,001,2020_Feb_10_1245,posner,3.1.5,60.055371052065794,
-0.5,0,1,left,1,3,0,0,0,0,8,6,70,1,,,,,,,,,162.03828459999977,162.5384009000004,163.2560983999997,None,162.55502839999963,163.23910279999973,163.75665939999953,None,left,1,0.26282030000038503,163.75665939999953,None,None,162.55502839999963,163.73983679999992,0.5117285999995147,0.5950181999996857,1.713150499999756,1.7968042999991667,,,,,anne_3,001,2020_Feb_10_1245,posner,3.1.5,60.055371052065794,
-0.5,180,0,left,2,3,0,0,0,0,8,7,71,4,,,,,,,,,164.0410049999996,164.54095869999992,165.25853810000035,None,164.55773670000008,165.24182189999965,165.7592480999997,None,left,1,0.46024230000057287,165.7592480999997,None,None,164.55773670000008,165.7425621999996,0.5114513999997143,0.5950168999997913,1.7130386999997427,1.7965675000004921,,,,,anne_3,001,2020_Feb_10_1245,posner,3.1.5,60.055371052065794,
-0.5,180,0,left,2,3,0,0,0,0,9,0,72,4,,,,,,,,,166.2444158000003,166.74422780000032,167.46155299999964,None,166.76069529999995,167.44485750000013,167.96235389999993,166.2444158000003,left,1,0.4251529000002847,167.96235389999993,None,None,166.76069529999995,167.94569739999997,0.5117510000000038,0.5951915999994526,1.7132051999997202,1.7965870999996696,,,,,anne_3,001,2020_Feb_10_1245,posner,3.1.5,60.055371052065794,
-0.5,0,1,left,1,3,0,0,0,0,9,1,73,0,,,,,,,,,168.41320399999995,168.91386209999973,169.63123099999984,None,168.9303906,169.61479689999987,170.13198390000025,None,left,1,0.25549920000048587,170.13198390000025,None,None,168.9303906,170.11519670000007,0.5124999999998181,0.5957385000001523,1.7138224000000264,1.797337900000457,,,,,anne_3,001,2020_Feb_10_1245,posner,3.1.5,60.055371052065794,
0.5,180,1,right,2,4,0,0,0,0,9,2,74,7,,,,,,,,,170.41643259999955,170.91629090000015,171.6342249000004,None,170.9331817999996,171.61752269999988,172.13473790000035,None,right,1,0.3167790999996214,172.13473790000035,None,None,170.9331817999996,172.11800170000015,0.5115661999998338,0.5949994000002334,1.7132580999996208,1.7966378000000987,,,,,anne_3,001,2020_Feb_10_1245,posner,3.1.5,60.055371052065794,
-0.5,0,1,left,1,3,0,0,0,0,9,3,75,1,,,,,,,,,172.46925950000013,172.9692342000003,173.68706659999998,None,172.98604000000023,173.67010999999957,174.1876970999997,None,left,1,0.28782240000055026,174.1876970999997,None,None,172.98604000000023,174.17088970000032,0.5116300999998202,0.5951052999998865,1.713270399999601,1.7968479000001025,,,,,anne_3,001,2020_Feb_10_1245,posner,3.1.5,60.055371052065794,
0.5,180,1,right,2,4,0,0,0,0,9,4,76,5,,,,,,,,,174.50519930000019,175.00550969999995,175.72316420000016,None,175.02214260000028,175.70650760000035,176.22376310000027,None,right,1,0.3157254000007015,176.22376310000027,None,None,175.02214260000028,176.20709699999998,0.5117536000007021,0.5948181000003387,1.7133183000005374,1.7966301000005842,,,,,anne_3,001,2020_Feb_10_1245,posner,3.1.5,60.055371052065794,
0.5,180,1,right,2,4,0,0,0,0,9,5,77,6,,,,,,,,,176.55841110000028,177.05831360000002,177.7759216999998,None,177.0749450999997,177.75905620000003,178.2765218999998,None,right,1,0.39088819999960833,178.2765218999998,None,None,177.0749450999997,178.25972469999988,0.51146719999997,0.5947847000006732,1.7128652999999758,1.796476800000164,,,,,anne_3,001,2020_Feb_10_1245,posner,3.1.5,60.055371052065794,
-0.5,0,1,left,1,3,0,0,0,0,9,6,78,2,,,,,,,,,178.69468240000015,179.1945652999998,179.91218720000006,None,179.2111802000004,179.8954292000003,180.41290809999964,None,left,1,0.31850410000060947,180.41290809999964,None,None,179.2111802000004,180.3961893999999,0.5114745999999286,0.5948549000004277,1.7130833000001076,1.796360100000129,,,,,anne_3,001,2020_Feb_10_1245,posner,3.1.5,60.055371052065794,
0.5,0,0,right,1,4,0,0,0,0,9,7,79,3,,,,,,,,,180.7473113000001,181.24745329999996,181.96494060000032,None,181.2641337,181.94817099999955,182.4656104999999,None,right,1,0.38582880000012665,182.4656104999999,None,None,181.2641337,182.4487981999996,0.5118640999999116,0.5951146999996126,1.7131883000001835,1.7968997999996645,,,,,anne_3,001,2020_Feb_10_1245,posner,3.1.5,60.055371052065794,
-0.5,0,1,left,1,3,0,0,0,0,10,0,80,0,,,,,,,,,182.86695680000003,183.36695660000032,184.08463840000013,None,183.3837367000001,184.0679799000004,184.58516989999998,None,left,1,0.35426660000030097,184.58516989999998,None,None,183.3837367000001,184.56862859999956,0.5117703999994774,0.5949474999997619,1.7134218999999575,1.7968144999995275,,,,,anne_3,001,2020_Feb_10_1245,posner,3.1.5,60.055371052065794,
0.5,180,1,right,2,4,0,0,0,0,10,1,81,5,,,,,,,,,184.96953989999975,185.4697172000001,186.18758260000004,None,185.48645559999977,186.17076880000013,186.68811030000006,None,right,1,0.24332400000002963,186.68811030000006,None,None,185.48645559999977,186.67139989999987,0.5118487999998251,0.5953011000001425,1.713514099999884,1.7971414000003278,,,,,anne_3,001,2020_Feb_10_1245,posner,3.1.5,60.055371052065794,
-0.5,180,0,left,2,3,0,0,0,0,10,2,82,4,,,,,,,,,186.95581939999965,187.4558916000001,188.17361719999963,None,187.47265540000035,188.15679659999978,188.67430290000038,None,left,1,0.3851342999996632,188.67430290000038,None,None,187.47265540000035,188.65758400000004,0.5117466000001514,0.595194999999876,1.713423999999577,1.7966253999993569,,,,,anne_3,001,2020_Feb_10_1245,posner,3.1.5,60.055371052065794,
-0.5,0,1,left,1,3,0,0,0,0,10,3,83,1,,,,,,,,,189.07551860000012,189.57542899999999,190.29311180000013,None,189.59230909999997,190.27642309999965,190.79369519999955,None,left,1,0.3137399999995978,190.79369519999955,None,None,189.59230909999997,190.7770888,0.5117253999997047,0.5951661999997668,1.7133628000001409,1.7967962000002444,,,,,anne_3,001,2020_Feb_10_1245,posner,3.1.5,60.055371052065794,
0.5,180,1,right,2,4,0,0,0,0,10,4,84,6,,,,,,,,,191.12837960000024,191.62824090000004,192.3460173999997,None,191.6451218999996,192.32903719999968,192.8466870999996,None,right,1,0.1647679000006974,192.8466870999996,None,None,191.6451218999996,192.82980240000006,0.5116250000000946,0.5950845000006666,1.7131728000003932,1.7967955000003712,,,,,anne_3,001,2020_Feb_10_1245,posner,3.1.5,60.055371052065794,
-0.5,0,1,left,1,3,0,0,0,0,10,5,85,2,,,,,,,,,193.03107169999976,193.5307197999996,194.2487632999996,None,193.5477403,194.23184189999984,194.74932659999968,None,left,1,0.262132500000007,194.74932659999968,None,None,193.5477403,194.73256509999965,0.5113730000002761,0.5950579000000289,1.7131985999994868,1.7965727000000697,,,,,anne_3,001,2020_Feb_10_1245,posner,3.1.5,60.055371052065794,
0.5,0,0,right,1,4,0,0,0,0,10,6,86,3,,,,,,,,,195.03420770000002,195.53380499999957,196.2512615999999,None,195.5502375000001,196.23456459999989,196.75230109999984,None,right,1,0.37901420000071084,196.75230109999984,None,None,195.5502375000001,196.73521560000017,0.5113292000005458,0.5946444000001065,1.7127181000005294,1.7962658000005831,,,,,anne_3,001,2020_Feb_10_1245,posner,3.1.5,60.055371052065794,
0.5,180,1,right,2,4,0,0,0,0,10,7,87,7,,,,,,,,,197.15366140000015,197.65329189999966,198.37086210000007,None,197.66999520000036,198.35412640000004,198.87138790000017,None,right,1,0.2920187999998234,198.87138790000017,None,None,197.66999520000036,198.85489889999963,0.5115937000000486,0.595066400000178,1.7131853000000774,1.796510500000295,,,,,anne_3,001,2020_Feb_10_1245,posner,3.1.5,60.055371052065794,
,,,,,,0,0,0,0,,,,,,,,,,,,,,,,,,,,,,,,,,,,,,,,,199.1896769,None,1.810000048863003e-05,0.9958034999999654,anne_3,001,2020_Feb_10_1245,posner,3.1.5,60.055371052065794,
0.5,180,1,right,2,4,1,0,1,0,0,0,0,7,1.120000069931848e-05,0.0974011000007522,260.20606629999975,None,1.4100000043981709e-05,0.09844320000047446,262.30882969999993,None,262.58416369999986,263.09326550000014,263.79430249999996,None,263.09326550000014,263.79430249999996,264.2949622000001,None,right,1,0.28407900000001973,264.2949622000001,None,None,263.09326550000014,264.2949622000001,0.5020872999994026,0.6021830999998201,1.7036244999999326,1.8037180000001172,,,,,anne_3,001,2020_Feb_10_1245,posner,3.1.5,60.055371052065794,
-0.5,0,1,left,1,3,1,0,1,0,0,1,1,0,,,,,,,,,264.5959306999998,265.09604439999976,265.81384300000036,None,265.11268580000024,265.79698419999977,266.3146327999998,None,left,1,0.40848800000003394,266.3146327999998,None,None,265.11268580000024,266.29774339999994,0.5110485000004701,0.5942733000001681,1.712732099999812,1.7959756000000198,,,,,anne_3,001,2020_Feb_10_1245,posner,3.1.5,60.055371052065794,
0.5,180,1,right,2,4,1,0,1,0,0,2,2,5,,,,,,,,,266.74906599999986,267.2488193000004,267.9666986999996,None,267.2657505000002,267.9497215999995,268.46725490000017,None,right,1,0.3517830999999205,268.46725490000017,None,None,267.2657505000002,268.45049210000025,0.5116501000002245,0.5951363000003767,1.7133041000006415,1.796863100000337,,,,,anne_3,001,2020_Feb_10_1245,posner,3.1.5,60.055371052065794,
-0.5,0,1,left,1,3,1,0,1,0,0,3,3,2,,,,,,,,,268.8352792999999,269.33510460000025,270.0527090999999,None,269.35195799999974,270.03610509999953,270.5533496000003,None,left,1,0.29777130000002217,270.5533496000003,None,None,269.35195799999974,270.5369857999999,0.5115025000004607,0.5948215999997046,1.713361299999633,1.796521500000381,,,,,anne_3,001,2020_Feb_10_1245,posner,3.1.5,60.055371052065794,
-0.5,0,1,left,1,3,1,0,1,0,0,4,4,1,,,,,,,,,270.8714863,271.3710804999996,272.0887447,None,271.3877752000003,272.07227589999957,272.5895168000002,None,left,1,0.3336517999996431,272.5895168000002,None,None,271.3877752000003,272.5730553999997,0.511299599999802,0.5948361999999179,1.7132576999993034,1.7967089999992822,,,,,anne_3,001,2020_Feb_10_1245,posner,3.1.5,60.055371052065794,
0.5,180,1,right,2,4,1,0,1,0,0,5,5,6,,,,,,,,,272.94034469999997,273.44078070000023,274.1584065000002,None,273.45755489999965,274.14164409999967,274.6590248999996,None,right,1,0.3285164999997505,274.6590248999996,None,None,273.45755489999965,274.64258930000005,0.5120539999998073,0.5955618999996659,1.7138403999997536,1.7972492999997485,,,,,anne_3,001,2020_Feb_10_1245,posner,3.1.5,60.055371052065794,
-0.5,180,0,left,2,3,1,0,1,0,0,6,6,4,,,,,,,,,275.0105189000001,275.51024709999956,276.2280364000003,None,275.52719169999955,276.2111785000002,276.7284684000001,277.2126337000004,left,1,0.4906958999999915,276.7284684000001,None,None,275.52719169999955,276.71192370000017,0.5113891000000876,0.594976599999427,1.7133374999993976,1.7965281999995568,,,,,anne_3,001,2020_Feb_10_1245,posner,3.1.5,60.055371052065794,
0.5,0,0,right,1,4,1,0,1,0,0,7,7,3,,,,,,,,,277.2467402999996,277.7467644000003,278.4643822000003,None,277.7634264000003,278.4478731000004,278.9650211000003,None,right,1,0.36611029999949096,278.9650211000003,None,None,277.7634264000003,278.9482364999999,0.5116845000002286,0.5950494000007893,1.71314380000058,1.7966237000000547,,,,,anne_3,001,2020_Feb_10_1245,posner,3.1.5,60.055371052065794,
0.5,180,1,right,2,4,1,0,1,0,1,0,8,7,,,,,,,,,279.3498774000004,279.8495627999996,280.56728650000014,None,279.8663666999996,280.55053029999954,281.0679763000003,281.5519796000003,right,1,0.48704319999978907,281.0679763000003,None,None,279.8663666999996,281.05120829999987,0.5113693000002968,0.5950258000002577,1.7130027000002883,1.796419400000559,,,,,anne_3,001,2020_Feb_10_1245,posner,3.1.5,60.055371052065794,
0.5,180,1,right,2,4,1,0,1,0,1,1,9,6,,,,,,,,,281.5856273000004,282.0860219000001,282.8036205000003,None,282.1028560999998,282.78722510000034,283.3043491000003,None,right,1,0.2987914000004821,283.3043491000003,None,None,282.1028560999998,283.28770080000004,0.5113977000000887,0.5947409000000334,1.7130628000004435,1.796491099999912,,,,,anne_3,001,2020_Feb_10_1245,posner,3.1.5,60.055371052065794,
-0.5,0,1,left,1,3,1,0,1,0,1,2,10,0,,,,,,,,,283.62232170000016,284.12214209999956,284.8397071000004,None,284.1386827000001,284.82338560000017,285.3404121999997,None,left,1,0.3908532000004925,285.3404121999997,None,None,284.1386827000001,285.32380520000015,0.5115801000001738,0.5951914999996006,1.7132206999995105,1.7966840999997657,,,,,anne_3,001,2020_Feb_10_1245,posner,3.1.5,60.055371052065794,
-0.5,0,1,left,1,3,1,0,1,0,1,3,11,2,,,,,,,,,285.7585383999999,286.25855290000027,286.97604829999955,None,286.27515170000015,286.9593173999997,287.4768656000001,None,left,1,0.3340836000006675,287.4768656000001,None,None,286.27515170000015,287.46002180000005,0.5116767999998046,0.5948982999998407,1.7131304999993517,1.7966882999999143,,,,,anne_3,001,2020_Feb_10_1245,posner,3.1.5,60.055371052065794,
-0.5,0,1,left,1,3,1,0,1,0,1,4,12,1,,,,,,,,,287.8280311000003,288.32805640000015,289.0456749,None,288.34467369999993,289.0287401999999,289.54638899999964,None,left,1,0.39261549999991985,289.54638899999964,None,None,288.34467369999993,289.52952330000016,0.5117483000003631,0.5948934999996709,1.7132025000000795,1.7967534999997952,,,,,anne_3,001,2020_Feb_10_1245,posner,3.1.5,60.055371052065794,
0.5,180,1,right,2,4,1,0,1,0,1,5,13,5,,,,,,,,,289.96421750000036,290.46433430000025,291.18195289999994,None,290.4808111999996,291.1651843000004,291.68257829999993,None,right,1,0.272570099999939,291.68257829999993,None,None,290.4808111999996,291.66587409999966,0.5116825999994035,0.5951173999992534,1.7131988999999521,1.796466299999338,,,,,anne_3,001,2020_Feb_10_1245,posner,3.1.5,60.055371052065794,
-0.5,180,0,left,2,3,1,0,1,0,1,6,14,4,,,,,,,,,291.9836760000003,292.48359409999966,293.2011901999999,None,292.50029740000036,293.1846085000002,293.7019962999998,None,left,1,0.3970156000004863,293.7019962999998,None,None,292.50029740000036,293.6853476000001,0.511560300000383,0.5949780000000828,1.7132893999996668,1.7966938999998092,,,,,anne_3,001,2020_Feb_10_1245,posner,3.1.5,60.055371052065794,
0.5,0,0,right,1,4,1,0,1,0,1,7,15,3,,,,,,,,,294.12012360000017,294.61983310000005,295.33769410000014,None,294.6368129999996,295.32081940000035,295.8380406000001,None,right,1,0.39697590000014316,295.8380406000001,None,None,294.6368129999996,295.8217987000003,0.511315800000375,0.5947439999999915,1.7132615999998961,1.7966261999999915,,,,,anne_3,001,2020_Feb_10_1245,posner,3.1.5,60.055371052065794,
0.5,0,0,right,1,4,1,0,1,0,2,0,16,3,,,,,,,,,296.25611079999953,296.75628389999974,297.4739451999999,None,296.7729360999997,297.4572240000002,297.97463050000033,None,right,1,0.44434910000018135,297.97463050000033,None,None,296.7729360999997,297.9577768000004,0.5117551000003004,0.5948558000000048,1.7132346999997026,1.7967036999998527,,,,,anne_3,001,2020_Feb_10_1245,posner,3.1.5,60.055371052065794,
0.5,180,1,right,2,4,1,0,1,0,2,1,17,5,,,,,,,,,298.44281720000026,298.94264520000024,299.66009220000024,None,298.95915600000035,299.64355659999956,300.1606886000004,None,right,1,0.3944285999996282,300.1606886000004,None,None,298.95915600000035,300.14410590000034,0.5115693999996438,0.5947581000000355,1.7130051999993157,1.7966031999994811,,,,,anne_3,001,2020_Feb_10_1245,posner,3.1.5,60.055371052065794,
-0.5,0,1,left,1,3,1,0,1,0,2,2,18,2,,,,,,,,,300.57898479999994,301.07875790000026,301.7965729000002,None,301.09556959999964,301.7797373999997,302.2972155000002,None,left,1,0.2739000000001397,302.2972155000002,None,None,301.09556959999964,302.28046459999996,0.5115163000000393,0.5949992000005295,1.713218400000187,1.7967108000002554,,,,,anne_3,001,2020_Feb_10_1245,posner,3.1.5,60.055371052065794,
0.5,180,1,right,2,4,1,0,1,0,2,3,19,7,,,,,,,,,302.59809300000006,303.09827559999985,303.8160273999997,None,303.1151339000003,303.79909759999964,304.3166806000004,None,right,1,0.32622579999951995,304.3166806000004,None,None,303.1151339000003,304.2998641999998,0.5117121000002953,0.5951590000004217,1.7132879999999204,1.7967446000002383,,,,,anne_3,001,2020_Feb_10_1245,posner,3.1.5,60.055371052065794,
0.5,180,1,right,2,4,1,0,1,0,2,4,20,6,,,,,,,,,304.6678053999999,305.1677834999996,305.8855159999998,None,305.18447960000003,305.8685663000001,306.3861592999997,None,right,1,0.32081209999978455,306.3861592999997,None,None,305.18447960000003,306.3693793999996,0.5117079000001468,0.5949504000000161,1.7132910000000265,1.796855300000061,,,,,anne_3,001,2020_Feb_10_1245,posner,3.1.5,60.055371052065794,
-0.5,180,0,left,2,3,1,0,1,0,2,5,21,4,,,,,,,,,306.73672229999966,307.23735689999967,307.95487639999965,None,307.25400260000015,307.93829959999994,308.4557579999996,None,left,1,0.3711523000001762,308.4557579999996,None,None,307.25400260000015,308.43877099999963,0.5122871000003215,0.5955580999998347,1.7136895000003278,1.797494600000391,,,,,anne_3,001,2020_Feb_10_1245,posner,3.1.5,60.055371052065794,
-0.5,0,1,left,1,3,1,0,1,0,2,6,22,0,,,,,,,,,308.85664849999966,309.35689409999986,310.0744384000004,None,309.3736850999999,310.0579628999999,310.57526819999975,None,left,1,0.42765459999918676,310.57526819999975,None,None,309.3736850999999,310.55842879999955,0.5117504999998346,0.5949940000000424,1.7132712000002357,1.797034100000019,,,,,anne_3,001,2020_Feb_10_1245,posner,3.1.5,60.055371052065794,
-0.5,0,1,left,1,3,1,0,1,0,2,7,23,1,,,,,,,,,311.0264689999999,311.5265069000002,312.2442053,None,311.54325480000034,312.22760979999975,312.74490149999974,None,left,1,0.40205040000000736,312.74490149999974,None,None,311.54325480000034,312.72815709999986,0.5117379000002984,0.5950563999995211,1.7133647999999084,1.7968559000000823,,,,,anne_3,001,2020_Feb_10_1245,posner,3.1.5,60.055371052065794,
-0.5,0,1,left,1,3,1,0,1,0,3,0,24,0,,,,,,,,,313.16302250000035,313.66272309999977,314.3803641999998,None,313.67941349999955,314.3638298999999,314.8810634999995,None,left,1,0.3537824000004548,314.8810634999995,None,None,313.67941349999955,314.8645469999997,0.5114362000003894,0.594935400000395,1.713246700000127,1.7964817000001858,,,,,anne_3,001,2020_Feb_10_1245,posner,3.1.5,60.055371052065794,
-0.5,0,1,left,1,3,1,0,1,0,3,1,25,1,,,,,,,,,315.26553899999954,315.7658078999998,316.48343479999994,None,315.78262049999967,316.46665879999955,316.98406250000016,None,left,1,0.26695440000003146,316.98406250000016,None,None,315.78262049999967,316.96727359999977,0.511789499999395,0.5949667999993835,1.7132424000001265,1.796965999999884,,,,,anne_3,001,2020_Feb_10_1245,posner,3.1.5,60.055371052065794,
0.5,180,1,right,2,4,1,0,1,0,3,2,26,5,,,,,,,,,317.26817100000017,317.7684261999998,318.48618920000035,None,317.78540639999983,318.4692938000003,318.98675779999985,None,right,1,0.3201062999996793,318.98675779999985,None,None,317.78540639999983,318.9699316000001,0.5115490999996837,0.59520590000011,1.7130385999998907,1.7965739999999641,,,,,anne_3,001,2020_Feb_10_1245,posner,3.1.5,60.055371052065794,
0.5,180,1,right,2,4,1,0,1,0,3,3,27,6,,,,,,,,,319.3379110000001,319.83786439999994,320.5555873999997,None,319.85459500000024,320.53872739999997,321.0562501999998,None,right,1,0.2826448999994682,321.0562501999998,None,None,319.85459500000024,321.0394634999998,0.5115630999998757,0.5951247000002695,1.713150300000052,1.7968679999994492,,,,,anne_3,001,2020_Feb_10_1245,posner,3.1.5,60.055371052065794,
-0.5,0,1,left,1,3,1,0,1,0,3,4,28,2,,,,,,,,,321.3576478,321.8575383000002,322.5751083,None,321.8742037999996,322.5582218000004,323.07574780000004,None,left,1,0.39106580000043323,323.07574780000004,None,None,321.8742037999996,323.0589206999998,0.5117240999998103,0.5949336999992738,1.7130966999993689,1.7967521000000488,,,,,anne_3,001,2020_Feb_10_1245,posner,3.1.5,60.055371052065794,
-0.5,180,0,left,2,3,1,0,1,0,3,5,29,4,,,,,,,,,323.49388769999996,323.9936917,324.71125939999956,None,324.0103893999999,324.69468670000015,325.2120211999995,325.6961014000003,left,1,0.5188202999997884,325.2120211999995,None,None,324.0103893999999,325.19523530000015,0.5114977999992334,0.5950243999996019,1.7130300999997417,1.7963042999999743,,,,,anne_3,001,2020_Feb_10_1245,posner,3.1.5,60.055371052065794,
0.5,0,0,right,1,4,1,0,1,0,3,6,30,3,,,,,,,,,325.7466349000001,326.2468506,326.9645144000001,None,326.2636157000002,326.94777380000005,327.4652368000002,None,right,1,0.4096736999999848,327.4652368000002,None,None,326.2636157000002,327.4482584000002,0.5117898999997124,0.595109699999739,1.7131843999995908,1.7968811000000642,,,,,anne_3,001,2020_Feb_10_1245,posner,3.1.5,60.055371052065794,
0.5,180,1,right,2,4,1,0,1,0,3,7,31,7,,,,,,,,,327.89921900000036,328.39954460000035,329.11742579999964,None,328.4164275999997,329.10053730000027,329.6181273999996,None,right,1,0.2728496999998242,329.6181273999996,None,None,328.4164275999997,329.6012834999997,0.5119660000000295,0.5956579999992755,1.713716199999908,1.7972105999997439,,,,,anne_3,001,2020_Feb_10_1245,posner,3.1.5,60.055371052065794,
0.5,180,1,right,2,4,1,0,1,0,4,0,32,5,,,,,,,,,329.9188729000002,330.4191089000001,331.13692390000006,None,330.4358470000002,331.1200180999999,331.6375872000003,None,right,1,0.3092365000002246,331.6375872000003,None,None,330.4358470000002,331.62076509999997,0.5121863999993366,0.5956454999995913,1.7138218000000052,1.7972682999998142,,,,,anne_3,001,2020_Feb_10_1245,posner,3.1.5,60.055371052065794,
-0.5,0,1,left,1,3,1,0,1,0,4,1,33,1,,,,,,,,,331.97186829999964,332.47201300000006,333.1895080999998,None,332.4886369999999,333.17281839999987,333.6904485,None,left,1,0.31234000000040396,333.6904485,None,None,332.4886369999999,333.6737326999996,0.5117807999995421,0.595090099999652,1.7134842999994362,1.796881299999768,,,,,anne_3,001,2020_Feb_10_1245,posner,3.1.5,60.055371052065794,
-0.5,180,0,left,2,3,1,0,1,0,4,2,34,4,,,,,,,,,334.0249869000004,334.5248815,335.24240260000033,None,334.5414423999996,335.2258297000003,335.7430688999998,None,left,1,0.4598367999997208,335.7430688999998,None,None,334.5414423999996,335.7266000000004,0.5112374999998792,0.5945117999999638,1.7129328000000896,1.7960198000000673,,,,,anne_3,001,2020_Feb_10_1245,posner,3.1.5,60.055371052065794,
0.5,180,1,right,2,4,1,0,1,0,4,3,35,6,,,,,,,,,336.2289426000002,336.72787670000025,337.4454804000002,None,336.7444836999998,337.4286838000003,337.94620580000037,336.2289426000002,right,1,0.2966076000002431,337.94620580000037,None,None,336.7444836999998,337.92937630000006,0.511162200000399,0.5944291000005251,1.7126490000000558,1.7962463000003481,,,,,anne_3,001,2020_Feb_10_1245,posner,3.1.5,60.055371052065794,
-0.5,0,1,left,1,3,1,0,1,0,4,4,36,2,,,,,,,,,338.2641778000002,338.76383880000003,339.48159650000025,None,338.78051749999986,339.4648229999998,339.98233070000015,None,left,1,0.3005895000005694,339.98233070000015,None,None,338.78051749999986,339.96568720000005,0.5113116000002265,0.595020900000236,1.713135100000727,1.7966503000006924,,,,,anne_3,001,2020_Feb_10_1245,posner,3.1.5,60.055371052065794,
-0.5,0,1,left,1,3,1,0,1,0,4,5,37,0,,,,,,,,,340.30001440000024,340.80013259999987,341.5176078999998,None,340.8168827000004,341.5008998999997,342.01840310000034,None,left,1,0.2724377000004097,342.01840310000034,None,None,340.8168827000004,342.0017663000003,0.5118172000002232,0.5951973999999609,1.7134609000004275,1.796886699999959,,,,,anne_3,001,2020_Feb_10_1245,posner,3.1.5,60.055371052065794,
0.5,0,0,right,1,4,1,0,1,0,4,6,38,3,,,,,,,,,342.31963609999957,342.8194844000004,343.5374195999998,None,342.83637489999956,343.52047280000033,344.0378992000001,None,right,1,0.41292109999994864,344.0378992000001,None,None,342.83637489999956,344.0211758999999,0.5115428999997675,0.5951105000003736,1.7132173999998486,1.796590699999797,,,,,anne_3,001,2020_Feb_10_1245,posner,3.1.5,60.055371052065794,
0.5,180,1,right,2,4,1,0,1,0,4,7,39,7,,,,,,,,,344.4733124999998,344.9725397999996,345.69019030000027,None,344.9893610000004,345.67353779999985,346.1907538999999,None,right,1,0.43599820000054024,346.1907538999999,None,None,344.9893610000004,346.17427160000034,0.5113919000004898,0.5949395000006916,1.7131022000003213,1.7963260000005903,,,,,anne_3,001,2020_Feb_10_1245,posner,3.1.5,60.055371052065794,
-0.5,180,0,left,2,3,1,0,1,0,5,0,40,4,,,,,,,,,346.64239940000016,347.14230499999985,347.8596199999997,None,347.1588445000002,347.8430831999999,348.36036939999985,None,left,1,0.3864685999997164,348.36036939999985,None,None,347.1588445000002,348.3438236999996,0.5116925000002084,0.59517120000055,1.7132005000003119,1.7966140000007726,,,,,anne_3,001,2020_Feb_10_1245,posner,3.1.5,60.055371052065794,
0.5,180,1,right,2,4,1,0,1,0,5,1,41,6,,,,,,,,,348.7780551999999,349.2784237000001,349.99606170000015,None,349.2951281999999,349.97929299999987,350.49687380000023,None,right,1,0.30606129999978293,350.49687380000023,None,None,349.2951281999999,350.4799743999997,0.5118102999995244,0.5952514999999039,1.713340899999821,1.7969525999997131,,,,,anne_3,001,2020_Feb_10_1245,posner,3.1.5,60.055371052065794,
-0.5,0,1,left,1,3,1,0,1,0,5,2,42,1,,,,,,,,,350.8311483000002,351.33118799999966,352.0489160000002,None,351.3478749000001,352.0322916,352.5495152999997,353.03370159999986,left,1,0.5332225000001927,352.5495152999997,None,None,351.3478749000001,352.5329479999996,0.5115802000000258,0.5950523999999859,1.7132925000005343,1.796773199999734,,,,,anne_3,001,2020_Feb_10_1245,posner,3.1.5,60.055371052065794,
-0.5,0,1,left,1,3,1,0,1,0,5,3,43,0,,,,,,,,,353.10140569999976,353.60094359999994,354.3185797000001,None,353.6177716999996,354.3019325,354.8192531999998,None,left,1,0.3194979999998395,354.8192531999998,None,None,353.6177716999996,354.80279310000014,0.5113815000004251,0.5948662999999215,1.7132085000002917,1.7966426000002684,,,,,anne_3,001,2020_Feb_10_1245,posner,3.1.5,60.055371052065794,
0.5,0,0,right,1,4,1,0,1,0,5,4,44,3,,,,,,,,,355.1703518999998,355.67055029999983,356.3881653000003,None,355.68731009999965,356.3717257000003,356.88880779999954,None,right,1,0.2979627000004257,356.88880779999954,None,None,355.68731009999965,356.8723273999999,0.5115020000002914,0.5948717999999644,1.713260600000467,1.7966167000004134,,,,,anne_3,001,2020_Feb_10_1245,posner,3.1.5,60.055371052065794,
0.5,180,1,right,2,4,1,0,1,0,5,5,45,5,,,,,,,,,357.2067527000004,357.70668720000003,358.4244749000004,None,357.7235667,358.40771689999974,358.92506249999997,None,right,1,0.357818500000576,358.92506249999997,None,None,357.7235667,358.9084577999997,0.5116799999996147,0.5949493999996776,1.7134274999998524,1.7967494999993505,,,,,anne_3,001,2020_Feb_10_1245,posner,3.1.5,60.055371052065794,
0.5,180,1,right,2,4,1,0,1,0,5,6,46,7,,,,,,,,,359.3092023000004,359.8094845999999,360.52729620000036,None,359.82651829999986,360.5104593000001,361.0277834000003,None,right,1,0.3510674999997718,361.0277834000003,None,None,359.82651829999986,361.01117120000026,0.5120640999994066,0.5956575999998677,1.713727999999719,1.7973731999991287,,,,,anne_3,001,2020_Feb_10_1245,posner,3.1.5,60.055371052065794,
-0.5,0,1,left,1,3,1,0,1,0,5,7,47,2,,,,,,,,,361.3959461999998,361.8958250999999,362.61353649999955,None,361.91269390000025,362.5969,363.11405739999964,363.5982006999998,None,0,,363.11405739999964,None,None,361.91269390000025,363.0976947000004,0.5116556000002674,0.5948931000002631,1.7135082000004331,1.7965997999999672,,,,,anne_3,001,2020_Feb_10_1245,posner,3.1.5,60.055371052065794,
0.5,0,0,right,1,4,1,0,1,0,6,0,48,3,,,,,,,,,364.0989602000004,364.59959469999967,365.3172933999999,364.0989602000004,364.6162344999998,365.3005009000003,365.8177762,None,right,1,0.37691629999972065,365.8177762,None,None,364.6162344999998,365.8013901999998,0.5136728999996194,0.596989399999984,1.7154267999994772,1.7986687999991773,,,,,anne_3,001,2020_Feb_10_1245,posner,3.1.5,60.055371052065794,
-0.5,180,0,left,2,3,1,0,1,0,6,1,49,4,,,,,,,,,366.2186091999997,366.71902569999975,367.4369197000001,None,366.7360377,367.42004289999977,367.93762769999967,None,left,1,0.42508989999987534,367.93762769999967,None,None,366.7360377,367.92075390000036,0.5122482999995555,0.5959137999998347,1.713957599999958,1.7973471999994217,,,,,anne_3,001,2020_Feb_10_1245,posner,3.1.5,60.055371052065794,
0.5,180,1,right,2,4,1,0,1,0,6,2,50,5,,,,,,,,,368.3883283,368.88866029999963,369.6063728000004,None,368.9054821000004,369.58961690000024,370.1072240999997,None,right,1,0.24756059999981517,370.1072240999997,None,None,368.9054821000004,370.0903516000003,0.5115768000005119,0.5951427999998486,1.7132476000006136,1.7969183000004705,,,,,anne_3,001,2020_Feb_10_1245,posner,3.1.5,60.055371052065794,
-0.5,0,1,left,1,3,1,0,1,0,6,3,51,2,,,,,,,,,370.3748806999997,370.87479159999975,371.5926222000003,None,370.89146909999954,371.5758351999998,372.09319339999956,None,left,1,0.2854620000007344,372.09319339999956,None,None,370.89146909999954,372.0765567000003,0.5114552000004551,0.5948139000001902,1.713204399999995,1.7965253000002122,,,,,anne_3,001,2020_Feb_10_1245,posner,3.1.5,60.055371052065794,
-0.5,0,1,left,1,3,1,0,1,0,6,4,52,1,,,,,,,,,372.394624,372.8943049000004,373.6119885000003,None,372.91080529999954,373.59502680000014,374.1125238999998,None,left,1,0.33014079999975365,374.1125238999998,None,None,372.91080529999954,374.0959756999996,0.5115914999996676,0.5950941999999486,1.713247699999556,1.7966217999992296,,,,,anne_3,001,2020_Feb_10_1245,posner,3.1.5,60.055371052065794,
0.5,180,1,right,2,4,1,0,1,0,6,5,53,7,,,,,,,,,374.4639562999996,374.9637607999998,375.6814098,None,374.9804416000002,375.66479819999995,376.1821764000001,None,right,1,0.30097720000048866,376.1821764000001,None,None,374.9804416000002,376.16533709999976,0.5114401000000726,0.594828399999642,1.7130053000000771,1.796393900000112,,,,,anne_3,001,2020_Feb_10_1245,posner,3.1.5,60.055371052065794,
0.5,180,1,right,2,4,1,0,1,0,6,6,54,6,,,,,,,,,376.49950620000027,376.9998035000003,377.71736740000006,None,377.0165247,377.7008514000004,378.21827239999993,None,right,1,0.24056230000041978,378.21827239999993,None,None,377.0165247,378.20149249999986,0.5117954000006648,0.5954364000008354,1.7134690000002593,1.7971352000004117,,,,,anne_3,001,2020_Feb_10_1245,posner,3.1.5,60.055371052065794,
-0.5,0,1,left,1,3,1,0,1,0,6,7,55,0,,,,,,,,,378.4858393999998,378.98607570000013,379.7034682999997,None,379.0028371000003,379.68703779999987,380.2043503,None,left,1,0.3503491999999824,380.2043503,None,None,379.0028371000003,380.18764669999973,0.5117838999995001,0.5950228000001516,1.7133415999996942,1.796747599999435,,,,,anne_3,001,2020_Feb_10_1245,posner,3.1.5,60.055371052065794,
-0.5,0,1,left,1,3,1,0,1,0,7,0,56,2,,,,,,,,,380.5727066000004,381.07228520000035,381.78969629999983,None,381.0886894999999,381.7731123999997,382.29034550000006,None,left,1,0.3204115999997157,382.29034550000006,None,None,381.0886894999999,382.27399110000033,0.5114323000007062,0.5947466000006898,1.713124300000345,1.7964749000002485,,,,,anne_3,001,2020_Feb_10_1245,posner,3.1.5,60.055371052065794,
0.5,0,0,right,1,4,1,0,1,0,7,1,57,3,,,,,,,,,382.6413367,383.14158259999977,383.8593642999999,None,383.1584895000001,383.84286329999986,384.35989389999986,None,right,1,0.3866698000001634,384.35989389999986,None,None,383.1584895000001,384.34346570000025,0.5115534999995361,0.595090099999652,1.7134141999995336,1.7969106999998985,,,,,anne_3,001,2020_Feb_10_1245,posner,3.1.5,60.055371052065794,
-0.5,0,1,left,1,3,1,0,1,0,7,2,58,0,,,,,,,,,384.77789470000016,385.27781920000007,385.99566319999985,None,385.29464229999985,385.9787817000001,386.49630240000033,None,left,1,0.34632890000011685,386.49630240000033,None,None,385.29464229999985,386.4795011000001,0.5115384999999151,0.5950748999994175,1.7132041999993817,1.79683279999972,,,,,anne_3,001,2020_Feb_10_1245,posner,3.1.5,60.055371052065794,
-0.5,180,0,left,2,3,1,0,1,0,7,3,59,4,,,,,,,,,386.8639896999998,387.3640319000001,388.0818161000002,None,387.3807625000004,388.0650780000001,388.5823601999996,None,left,1,0.35633659999984957,388.5823601999996,None,None,387.3807625000004,388.5659013999998,0.511845799999719,0.5955523000002358,1.7136931999993976,1.7969396999997116,,,,,anne_3,001,2020_Feb_10_1245,posner,3.1.5,60.055371052065794,
0.5,180,1,right,2,4,1,0,1,0,7,4,60,6,,,,,,,,,388.9669866999998,389.4671433999997,390.1848567000002,None,389.4837997999998,390.1677979000001,390.68544150000025,None,right,1,0.3893167000005633,390.68544150000025,None,None,389.4837997999998,390.6685771999996,0.511831699999675,0.5951671000002534,1.7132510999999795,1.7969284000000698,,,,,anne_3,001,2020_Feb_10_1245,posner,3.1.5,60.055371052065794,
0.5,180,1,right,2,4,1,0,1,0,7,5,61,5,,,,,,,,,391.1033183000004,391.60339780000004,392.3209281000004,None,391.61979910000036,392.3043325000003,392.8217061999999,None,right,1,0.3969310000002224,392.8217061999999,None,None,391.61979910000036,392.8050979000004,0.511657699999887,0.5952993999999308,1.7133358000000953,1.796664000000419,,,,,anne_3,001,2020_Feb_10_1245,posner,3.1.5,60.055371052065794,
-0.5,0,1,left,1,3,1,0,1,0,7,6,62,1,,,,,,,,,393.23880640000016,393.7394380999999,394.45745149999993,None,393.75622150000027,394.4405334999997,394.9577882999997,None,left,1,0.30876840000019,394.9577882999997,None,None,393.75622150000027,394.9414400999999,0.5117753000004086,0.5954361000003701,1.7137543999997433,1.797108599999774,,,,,anne_3,001,2020_Feb_10_1245,posner,3.1.5,60.055371052065794,
0.5,180,1,right,2,4,1,0,1,0,7,7,63,7,,,,,,,,,395.29253649999964,395.79251669999985,396.51004109999985,None,395.8090618000001,396.4933249999999,397.01080299999967,None,right,1,0.23995990000003076,397.01080299999967,None,None,395.8090618000001,396.99412859999984,0.5117802000004303,0.595307600000524,1.713376600000629,1.7966019000004962,,,,,anne_3,001,2020_Feb_10_1245,posner,3.1.5,60.055371052065794,
-0.5,0,1,left,1,3,1,0,1,0,8,0,64,0,,,,,,,,,397.2784539999998,397.7784094000003,398.49610280000024,None,397.7952201000003,398.47927370000025,398.9969543000002,None,left,1,0.30961540000043897,398.9969543000002,None,None,397.7952201000003,398.9800319000001,0.5117189000002327,0.595237200000156,1.7133269000005384,1.7967043000007834,,,,,anne_3,001,2020_Feb_10_1245,posner,3.1.5,60.055371052065794,
-0.5,180,0,left,2,3,1,0,1,0,8,1,65,4,,,,,,,,,399.3314339000003,399.83145399999967,400.5488078000003,None,399.84797409999965,400.53234889999976,401.04940599999964,None,left,1,0.3531782000000021,401.04940599999964,None,None,399.84797409999965,401.0330617000004,0.5121676999997362,0.5951688999994076,1.713489199999458,1.796892499999558,,,,,anne_3,001,2020_Feb_10_1245,posner,3.1.5,60.055371052065794,
0.5,180,1,right,2,4,1,0,1,0,8,2,66,5,,,,,,,,,401.43406319999985,401.93429309999965,402.6518645000001,None,401.9509218999997,402.63509810000005,403.15241490000017,None,right,1,0.3380575000001045,403.15241490000017,None,None,401.9509218999997,403.13604950000035,0.5117519999994329,0.5952158999998574,1.7134932999997545,1.7967196999998123,,,,,anne_3,001,2020_Feb_10_1245,posner,3.1.5,60.055371052065794,
0.5,180,1,right,2,4,1,0,1,0,8,3,67,6,,,,,,,,,403.5199885999996,404.0203499000004,404.73809570000003,None,404.03719950000004,404.72158269999954,405.23861050000005,None,right,1,0.3718507999992653,405.23861050000005,None,None,404.03719950000004,405.22241729999996,0.511797099999967,0.5953114000003552,1.7138426000001346,1.7969873000001826,,,,,anne_3,001,2020_Feb_10_1245,posner,3.1.5,60.055371052065794,
0.5,180,1,right,2,4,1,0,1,0,8,4,68,7,,,,,,,,,405.63998870000023,406.1399634000004,406.8574927000004,None,406.15665000000035,406.84085430000005,407.3580310000002,None,right,1,0.31651309999961086,407.3580310000002,None,None,406.15665000000035,407.3417635999999,0.5115206000000398,0.5951408000000811,1.7132980999995198,1.7967121000001498,,,,,anne_3,001,2020_Feb_10_1245,posner,3.1.5,60.055371052065794,
-0.5,0,1,left,1,3,1,0,1,0,8,5,69,2,,,,,,,,,407.6924178000004,408.19287459999987,408.9103583000001,None,408.20940010000004,408.8939618999998,409.4110618999998,None,left,1,0.3354568000004292,409.4110618999998,None,None,408.20940010000004,409.39434670000037,0.5115624000000025,0.5950086999991981,1.713022699999783,1.7966215999995256,,,,,anne_3,001,2020_Feb_10_1245,posner,3.1.5,60.055371052065794,
0.5,0,0,right,1,4,1,0,1,0,8,6,70,3,,,,,,,,,409.7783347999998,410.2788247000003,410.9967058999996,None,410.29566550000027,410.9798894999999,411.4974239999997,None,right,1,0.28925600000002305,411.4974239999997,None,None,410.29566550000027,411.48054699999966,0.5120825000003606,0.5957789000003686,1.7137904999999591,1.7974022000007608,,,,,anne_3,001,2020_Feb_10_1245,posner,3.1.5,60.055371052065794,
-0.5,0,1,left,1,3,1,0,1,0,8,7,71,1,,,,,,,,,411.8149490999999,412.3150499999997,413.0330020999995,None,412.3319489999999,413.01617789999955,413.5334707999996,None,left,1,0.34910540000055335,413.5334707999996,None,None,412.3319489999999,413.51695169999994,0.5115519000000859,0.5949233000001186,1.713430800000424,1.796609900000476,,,,,anne_3,001,2020_Feb_10_1245,posner,3.1.5,60.055371052065794,
-0.5,0,1,left,1,3,1,0,1,0,9,0,72,1,,,,,,,,,413.9015420999999,414.4013071000004,415.118841,None,414.4179519000004,415.10224719999997,415.61952969999993,None,left,1,0.24697530000048573,415.61952969999993,None,None,414.4179519000004,415.60300229999984,0.5114735000006476,0.5948889000001145,1.71314700000039,1.796507100000781,,,,,anne_3,001,2020_Feb_10_1245,posner,3.1.5,60.055371052065794,
0.5,180,1,right,2,4,1,0,1,0,9,1,73,5,,,,,,,,,415.88756030000013,416.38737770000034,417.1051916000001,None,416.4040742000002,417.08816309999975,417.6058750999996,None,right,1,0.29257069999948726,417.6058750999996,None,None,416.4040742000002,417.5889543999997,0.5116477000001396,0.595097600000372,1.7132105000000593,1.7969066000005114,,,,,anne_3,001,2020_Feb_10_1245,posner,3.1.5,60.055371052065794,
0.5,180,1,right,2,4,1,0,1,0,9,2,74,6,,,,,,,,,417.9235641999999,418.4235334,419.1411070999998,None,418.44020450000016,419.1246221999995,419.6420211999998,None,right,1,0.32053459999951883,419.6420211999998,None,None,418.44020450000016,419.6252152000002,0.5114951999994446,0.5948117999996612,1.7131546000000526,1.7965933999994377,,,,,anne_3,001,2020_Feb_10_1245,posner,3.1.5,60.055371052065794,
-0.5,0,1,left,1,3,1,0,1,0,9,3,75,2,,,,,,,,,419.99311139999963,420.49305219999997,421.21063639999966,None,420.5094855000002,421.19392149999976,421.7113535000003,None,left,1,0.22718989999975747,421.7113535000003,None,None,420.5094855000002,421.6947074000004,0.5114611999997578,0.5949762999998711,1.7131009999993694,1.7966630999999325,,,,,anne_3,001,2020_Feb_10_1245,posner,3.1.5,60.055371052065794,
0.5,0,0,right,1,4,1,0,1,0,9,4,76,3,,,,,,,,,421.9621817000002,422.4624767,423.1800838000004,None,422.47904439999957,423.1634079999999,423.6807445999998,None,right,1,0.3696982000001299,423.6807445999998,None,None,422.47904439999957,423.6641205000001,0.5120541000005687,0.5955085000005056,1.7136816000002,1.7970869999999195,,,,,anne_3,001,2020_Feb_10_1245,posner,3.1.5,60.055371052065794,
-0.5,0,1,left,1,3,1,0,1,0,9,5,77,0,,,,,,,,,424.0821756,424.5819528999996,425.29963199999975,None,424.5986359000003,425.2829876999999,425.8003805000003,None,left,1,0.3140819999998712,425.8003805000003,None,None,424.5986359000003,425.7838981,0.5113672000006773,0.5948228000006566,1.7132901000004495,1.7965399000004254,,,,,anne_3,001,2020_Feb_10_1245,posner,3.1.5,60.055371052065794,
0.5,180,1,right,2,4,1,0,1,0,9,6,78,7,,,,,,,,,426.1348936999998,426.6348439999997,427.35242940000035,None,426.6516741999999,427.33586799999966,427.8531323000002,None,right,1,0.31752119999964634,427.8531323000002,None,None,426.6516741999999,427.8366295000001,0.5115835999995397,0.5949491000001217,1.7133696000000782,1.7966148999994402,,,,,anne_3,001,2020_Feb_10_1245,posner,3.1.5,60.055371052065794,
-0.5,180,0,left,2,3,1,0,1,0,9,7,79,4,,,,,,,,,428.1876449999995,428.68752220000033,429.40546849999964,None,428.70432310000024,429.3885243,429.9061435999997,None,left,1,0.3843148000005385,429.9061435999997,None,None,428.70432310000024,429.88917420000007,0.5116360000001805,0.5950493000000279,1.713271500000701,1.7968310000005658,,,,,anne_3,001,2020_Feb_10_1245,posner,3.1.5,60.055371052065794,
-0.5,0,1,left,1,3,1,0,1,0,10,0,80,1,,,,,,,,,430.3069774999999,430.80723910000006,431.5248790999999,None,430.8239405999998,431.508053,432.02574400000003,None,left,1,0.38471910000043863,432.02574400000003,None,None,430.8239405999998,432.0087705000001,0.5118846999994275,0.5951688999994076,1.713378699999339,1.7968917999996847,,,,,anne_3,001,2020_Feb_10_1245,posner,3.1.5,60.055371052065794,
-0.5,180,0,left,2,3,1,0,1,0,10,1,81,4,,,,,,,,,432.42672059999995,432.9269582000002,433.6443602000004,None,432.9437175999997,433.62789250000014,434.14522030000035,None,right,0,0.2012408000000505,434.14522030000035,None,None,432.9437175999997,434.12836279999965,0.511907500000234,0.5950395999998364,1.7133001000001968,1.7968872000001284,,,,,anne_3,001,2020_Feb_10_1245,posner,3.1.5,60.055371052065794,
0.5,180,1,right,2,4,1,0,1,0,10,2,82,5,,,,,,,,,434.36305589999984,434.86273570000003,435.58061380000026,None,434.87944879999986,435.5638058999998,436.0811775999996,None,right,1,0.32118070000069565,436.0811775999996,None,None,434.87944879999986,436.06461999999965,0.5114766000006057,0.5949815000003582,1.713337500000307,1.7964611000006698,,,,,anne_3,001,2020_Feb_10_1245,posner,3.1.5,60.055371052065794,
-0.5,0,1,left,1,3,1,0,1,0,10,3,83,2,,,,,,,,,436.43226170000025,436.93230259999973,437.6503015000003,None,436.9488597000004,437.63338650000014,438.15059129999963,None,left,1,0.29179949999979726,438.15059129999963,None,None,436.9488597000004,438.13402199999973,0.5116229000004751,0.5950402999997095,1.7133276000004116,1.796737800000301,,,,,anne_3,001,2020_Feb_10_1245,posner,3.1.5,60.055371052065794,
-0.5,0,1,left,1,3,1,0,1,0,10,4,84,0,,,,,,,,,438.46849520000023,438.96846529999993,439.68607480000037,None,438.9852581,439.6693522999999,440.1870428999996,None,left,1,0.311461700000109,440.1870428999996,None,None,438.9852581,440.1700635000002,0.5118148000001383,0.5952521999997771,1.7133941000001869,1.796911800000089,,,,,anne_3,001,2020_Feb_10_1245,posner,3.1.5,60.055371052065794,
0.5,0,0,right,1,4,1,0,1,0,10,5,85,3,,,,,,,,,440.5215529000002,441.0212679000001,441.73888659999966,None,441.0378843000003,441.72234009999966,442.2394344999998,None,right,1,0.3708911999992779,442.2394344999998,None,None,441.0378843000003,442.22284720000016,0.5115129000005254,0.5948368000008486,1.7130808000001707,1.7965445000008913,,,,,anne_3,001,2020_Feb_10_1245,posner,3.1.5,60.055371052065794,
0.5,180,1,right,2,4,1,0,1,0,10,6,86,6,,,,,,,,,442.64082240000016,443.1408972000004,443.85854249999966,None,443.15744979999954,443.84199729999955,444.35921720000033,None,right,1,0.29922160000023723,444.35921720000033,None,None,443.15744979999954,444.3425725000002,0.511603500000092,0.5950428000005559,1.7132563000004666,1.7967633999996906,,,,,anne_3,001,2020_Feb_10_1245,posner,3.1.5,60.055371052065794,
0.5,180,1,right,2,4,1,0,1,0,10,7,87,7,,,,,,,,,444.6771899999999,445.1770812,445.8945514000002,None,445.19387770000003,445.8778496,446.39541150000014,None,right,1,0.2950533000002906,446.39541150000014,None,None,445.19387770000003,446.37847509999983,0.5116714000005231,0.5949749999999767,1.7130527999997867,1.7967178999997486,,,,,anne_3,001,2020_Feb_10_1245,posner,3.1.5,60.055371052065794,
,,,,,,1,0,1,0,,,,,,,,,,,,,,,,,,,,,,,,,,,,,,,,,446.7126738000002,None,1.6400000276917126e-05,0.9956670000001395,anne_3,001,2020_Feb_10_1245,posner,3.1.5,60.055371052065794,
-0.5,0,1,left,1,3,2,0,2,0,0,0,0,0,1.249999968422344e-05,0.09745179999936227,507.72946290000027,None,1.4199999895936344e-05,0.09777470000062749,509.83256109999957,None,510.1228935000004,510.6336527999997,511.3346634000004,None,510.6336527999997,511.3178903000003,511.83537730000035,None,left,1,0.3828084000006129,511.83537730000035,None,None,510.6336527999997,511.8185204999995,0.5037084999994477,0.6036653999999544,1.705189999999675,1.7889289999993707,,,,,anne_3,001,2020_Feb_10_1245,posner,3.1.5,60.055371052065794,
0.5,0,0,right,1,4,2,0,2,0,0,1,1,3,,,,,,,,,512.2371066999999,512.7365611999999,513.4541894999998,None,512.7532579000003,513.4375193000001,513.9549622,None,right,1,0.37516779999987193,513.9549622,None,None,512.7532579000003,513.9380944999998,0.511233600000196,0.5945830999999089,1.7127694999999221,1.7963823000000048,,,,,anne_3,001,2020_Feb_10_1245,posner,3.1.5,60.055371052065794,
0.5,180,1,right,2,4,2,0,2,0,0,2,2,7,,,,,,,,,514.3559960999996,514.8562526000001,515.5739732999996,None,514.8729780999997,515.5572944,516.0746284000002,None,right,1,0.3274228000000221,516.0746284000002,None,None,514.8729780999997,516.0578644000002,0.5116417999997793,0.5948237000002337,1.713257800000065,1.7967884999998205,,,,,anne_3,001,2020_Feb_10_1245,posner,3.1.5,60.055371052065794,
-0.5,0,1,left,1,3,2,0,2,0,0,3,3,2,,,,,,,,,516.4257793000002,516.9258560000003,517.6433289000001,None,516.9425421999999,517.6268206,518.1439747,None,left,1,0.3062369999997827,518.1439747,None,None,516.9425421999999,518.1274152999999,0.511760499999582,0.5949044999997568,1.7133014000000912,1.7967805999996926,,,,,anne_3,001,2020_Feb_10_1245,posner,3.1.5,60.055371052065794,
-0.5,0,1,left,1,3,2,0,2,0,0,4,4,1,,,,,,,,,518.4779284000001,518.9783641999998,519.6961527999997,None,518.9951904000004,519.6793657000003,520.1968425,None,left,1,0.341338000000178,520.1968425,None,None,518.9951904000004,520.1800402000003,0.5121742999999697,0.5959281000004921,1.7138315000001967,1.797297800000706,,,,,anne_3,001,2020_Feb_10_1245,posner,3.1.5,60.055371052065794,
-0.5,180,0,left,2,3,2,0,2,0,0,5,5,4,,,,,,,,,520.5645990999997,521.0647138999998,521.7826326999998,None,521.0813511000001,521.7655558000001,522.2832679999997,None,left,1,0.44678990000011254,522.2832679999997,None,None,521.0813511000001,522.2664129,0.5115833999998358,0.5948236000003817,1.7132664999999179,1.7966335000000981,,,,,anne_3,001,2020_Feb_10_1245,posner,3.1.5,60.055371052065794,
0.5,180,1,right,2,4,2,0,2,0,0,6,6,6,,,,,,,,,522.7512957000004,523.2512075999998,523.9686747000001,None,523.2677397000002,523.9520657999997,524.4692483000003,None,right,1,0.34895090000009077,524.4692483000003,None,None,523.2677397000002,524.4527974999996,0.5116667000002053,0.5948439000003418,1.713241299999936,1.7967254000004687,,,,,anne_3,001,2020_Feb_10_1245,posner,3.1.5,60.055371052065794,
0.5,180,1,right,2,4,2,0,2,0,0,7,7,5,,,,,,,,,524.8373782000003,525.3371368000003,526.0550286000002,None,525.3539395000003,526.0380784000004,526.5555833000003,None,right,1,0.2225416999999652,526.5555833000003,None,None,525.3539395000003,526.5388306999998,0.5114667000007103,0.5949426000006497,1.7131411999998818,1.7967752000004111,,,,,anne_3,001,2020_Feb_10_1245,posner,3.1.5,60.055371052065794,
-0.5,0,1,left,1,3,2,0,2,0,1,0,8,1,,,,,,,,,526.8064957000001,527.3068097999999,528.0242807999998,None,527.3236929,528.0074929999996,528.5250646,None,left,1,0.3170083999993949,528.5250646,None,None,527.3236929,528.5081966000002,0.5118829000002734,0.5951649999997244,1.7132604999997056,1.7967939000000115,,,,,anne_3,001,2020_Feb_10_1245,posner,3.1.5,60.055371052065794,
0.5,180,1,right,2,4,2,0,2,0,1,1,9,6,,,,,,,,,528.8597392999995,529.3593917000003,530.0771356999999,None,529.3763323999997,530.0603460999996,530.5778299999997,None,right,1,0.2722745999999461,530.5778299999997,None,None,529.3763323999997,530.5610435000003,0.5114018000003853,0.5947562000001199,1.7130606999999145,1.796567999999752,,,,,anne_3,001,2020_Feb_10_1245,posner,3.1.5,60.055371052065794,
0.5,180,1,right,2,4,2,0,2,0,1,2,10,5,,,,,,,,,530.8788362,531.3785730000004,532.0968102000002,None,531.3956684,532.0797084000001,532.5973061999998,None,right,1,0.30064040000070236,532.5973061999998,None,None,531.3956684,532.5804636999997,0.5114189000005354,0.5953005000001212,1.7132928000000902,1.7966450000003533,,,,,anne_3,001,2020_Feb_10_1245,posner,3.1.5,60.055371052065794,
-0.5,0,1,left,1,3,2,0,2,0,1,3,11,2,,,,,,,,,532.9150052999998,533.4150740999999,534.1327764000002,None,533.4316547000003,534.1160235000002,534.6334294000003,None,left,1,0.2888790999995763,534.6334294000003,None,None,533.4316547000003,534.6168358999998,0.5117714000007254,0.5950556000007055,1.713517000000138,1.7967966000005617,,,,,anne_3,001,2020_Feb_10_1245,posner,3.1.5,60.055371052065794,
-0.5,180,0,left,2,3,2,0,2,0,1,4,12,4,,,,,,,,,534.9511077000002,535.4512036000001,536.1687260000003,None,535.4677221999996,536.1521827000001,536.6692282999998,None,left,1,0.3967106000000058,536.6692282999998,None,None,535.4677221999996,536.6526399999998,0.5115819000002375,0.5950925999995889,1.7130071000001408,1.7966834999997445,,,,,anne_3,001,2020_Feb_10_1245,posner,3.1.5,60.055371052065794,
0.5,0,0,right,1,4,2,0,2,0,1,5,13,3,,,,,,,,,537.0870287000002,537.5872142000003,538.3050193000004,None,537.6041258999999,538.2883201999998,538.8056996999999,None,right,1,0.356381099999453,538.8056996999999,None,None,537.6041258999999,538.7889589000001,0.5117639999998573,0.595394099999794,1.7134902999996484,1.7970439000000624,,,,,anne_3,001,2020_Feb_10_1245,posner,3.1.5,60.055371052065794,
-0.5,0,1,left,1,3,2,0,2,0,1,6,14,0,,,,,,,,,539.1905611999996,539.6902843000003,540.4081479000001,None,539.706874,540.3915474,540.9087578000003,None,left,1,0.34929120000015246,540.9087578000003,None,None,539.706874,540.8918888000003,0.5117893999995431,0.5952008999993268,1.713340799999969,1.7969785999994201,,,,,anne_3,001,2020_Feb_10_1245,posner,3.1.5,60.055371052065794,
0.5,180,1,right,2,4,2,0,2,0,1,7,15,7,,,,,,,,,541.2767910999996,541.7765723999996,542.4941652000002,None,541.7932034,542.4775082000001,542.9948706,None,right,1,0.30310970000027737,542.9948706,None,None,541.7932034,542.9780345000004,0.5115540000006149,0.5948833000002196,1.7129995000004783,1.7966984000004231,,,,,anne_3,001,2020_Feb_10_1245,posner,3.1.5,60.055371052065794,
-0.5,0,1,left,1,3,2,0,2,0,2,0,16,1,,,,,,,,,543.3294543999996,543.8291457999999,544.5470498,None,543.8462341999998,544.5302667999999,545.0475777999995,None,left,1,0.37036910000006174,545.0475777999995,None,None,543.8462341999998,545.031117,0.511395800000173,0.5949909999999363,1.7133444000000964,1.7966839000000618,,,,,anne_3,001,2020_Feb_10_1245,posner,3.1.5,60.055371052065794,
0.5,180,1,right,2,4,2,0,2,0,2,1,17,5,,,,,,,,,545.4487262999996,545.9489059000002,546.6665801000004,None,545.9655564999998,546.6499138000004,547.1672062000002,None,right,1,0.3950670000003811,547.1672062000002,None,None,545.9655564999998,547.1506181,0.5109449000001405,0.5943852000000334,1.7126370000005409,1.7960487000000285,,,,,anne_3,001,2020_Feb_10_1245,posner,3.1.5,60.055371052065794,
0.5,0,0,right,1,4,2,0,2,0,2,2,18,3,,,,,,,,,547.5856302999996,548.0852473,548.8027571999996,None,548.1019137999997,548.7864009,549.3036036999997,None,right,1,0.4103800000002593,549.3036036999997,None,None,548.1019137999997,549.2868105000002,0.5112472000000707,0.5945463999996718,1.7127886999996917,1.796248900000137,,,,,anne_3,001,2020_Feb_10_1245,posner,3.1.5,60.055371052065794,
-0.5,0,1,left,1,3,2,0,2,0,2,3,19,0,,,,,,,,,549.7378952000004,550.2380477000002,550.9559660999998,None,550.2548190000002,550.9389901,551.4566479,None,left,1,0.3932764999999563,551.4566479,None,None,550.2548190000002,551.4396862999997,0.5119801999999254,0.5956206000000748,1.7136036000001695,1.7972484000001714,,,,,anne_3,001,2020_Feb_10_1245,posner,3.1.5,60.055371052065794,
-0.5,0,1,left,1,3,2,0,2,0,2,4,20,2,,,,,,,,,551.8744665999998,552.3743784000003,553.0920290999998,None,552.3911497000004,553.0754826999996,553.5928815000002,None,left,1,0.25726510000004055,553.5928815000002,None,None,552.3911497000004,553.5763302,0.511658699999316,0.5951099999992948,1.7135871000000407,1.7967046999992817,,,,,anne_3,001,2020_Feb_10_1245,posner,3.1.5,60.055371052065794,
0.5,180,1,right,2,4,2,0,2,0,2,5,21,6,,,,,,,,,553.8773168000002,554.3771818999999,555.0947419999998,None,554.3938368000004,555.0781632000003,555.5954960000004,None,right,1,0.2383655000003273,555.5954960000004,None,None,554.3938368000004,555.5787896999996,0.511589400000048,0.5949006000000736,1.7131805999997596,1.7967867999996088,,,,,anne_3,001,2020_Feb_10_1245,posner,3.1.5,60.055371052065794,
-0.5,180,0,left,2,3,2,0,2,0,2,6,22,4,,,,,,,,,555.8630861999995,556.3632413,557.0809130000002,None,556.3799023999995,557.0641849999997,557.5815483000001,None,left,1,0.38042200000018056,557.5815483000001,None,None,556.3799023999995,557.5651978999999,0.5116029000000708,0.5951276999994661,1.7135363999996116,1.796491099999912,,,,,anne_3,001,2020_Feb_10_1245,posner,3.1.5,60.055371052065794,
0.5,180,1,right,2,4,2,0,2,0,2,7,23,7,,,,,,,,,557.9835384000003,558.4823517,559.2004399000002,None,558.4990380000004,559.1838475,559.7013066000004,None,right,1,0.36454719999983354,559.7013066000004,None,None,558.4990380000004,559.6845245999998,0.5108035999992353,0.5945341999995435,1.7129658999992898,1.7961431999992783,,,,,anne_3,001,2020_Feb_10_1245,posner,3.1.5,60.055371052065794,
0.5,0,0,right,1,4,2,0,2,0,3,0,24,3,,,,,,,,,560.0858303,560.5858162,561.3033929999997,None,560.6023919000004,561.2866452000003,561.8041214999998,None,right,1,0.3017668999991656,561.8041214999998,None,None,560.6023919000004,561.7873400000003,0.5117735000003449,0.5950344000002588,1.7132811000001311,1.796840400000292,,,,,anne_3,001,2020_Feb_10_1245,posner,3.1.5,60.055371052065794,
0.5,180,1,right,2,4,2,0,2,0,3,1,25,5,,,,,,,,,562.1219298999999,562.6220863000003,563.339367,None,562.6385052,563.3229680999998,563.8401877000001,None,right,1,0.3776707000006354,563.8401877000001,None,None,562.6385052,563.8237744000003,0.511831899999379,0.5951202999995076,1.71350959999927,1.796701799999937,,,,,anne_3,001,2020_Feb_10_1245,posner,3.1.5,60.055371052065794,
-0.5,0,1,left,1,3,2,0,2,0,3,2,26,2,,,,,,,,,564.2423821999996,564.7414470999997,565.4590497000004,None,564.7579725,565.4426636000003,565.9597851000003,None,left,1,0.1700647999996363,565.9597851000003,None,None,564.7579725,565.9432737000002,0.5108972999996695,0.5943109999998342,1.712712200000169,1.7961372999998275,,,,,anne_3,001,2020_Feb_10_1245,posner,3.1.5,60.055371052065794,
-0.5,180,0,left,2,3,2,0,2,0,3,3,27,4,,,,,,,,,566.1605603000003,566.6607982999999,567.3783234999996,None,566.6773335000003,567.3616039000003,567.8789467000001,568.3630091,None,0,,567.8789467000001,None,None,566.6773335000003,567.8625380999997,0.5117689000007886,0.5950972999999067,1.7134561000002577,1.7965967000000092,,,,,anne_3,001,2020_Feb_10_1245,posner,3.1.5,60.055371052065794,
0.5,180,1,right,2,4,2,0,2,0,3,4,28,6,,,,,,,,,568.8636957000003,569.3643857000002,570.0821042000002,568.8636957000003,569.3812743000003,570.0653914,570.5828016,None,right,1,0.2991090000004988,570.5828016,None,None,569.3812743000003,570.5661300999996,0.5137478000006013,0.5971500000005108,1.7154687000002014,1.7988016999997853,,,,,anne_3,001,2020_Feb_10_1245,posner,3.1.5,60.055371052065794,
-0.5,0,1,left,1,3,2,0,2,0,3,5,29,1,,,,,,,,,570.9009606000004,571.4004145000004,572.1181234000001,None,571.4171216999998,572.1018192999995,572.6187426000001,None,left,1,0.3191950000000361,572.6187426000001,None,None,571.4171216999998,572.6021029999997,0.5113476999995328,0.5949820999994699,1.7130037999995693,1.7965787999992244,,,,,anne_3,001,2020_Feb_10_1245,posner,3.1.5,60.055371052065794,
0.5,180,1,right,2,4,2,0,2,0,3,6,30,7,,,,,,,,,572.9533896999997,573.4535232000003,574.1711133000003,None,573.4699153999995,574.1543021000002,574.6718649999998,None,right,1,0.2820921000002272,574.6718649999998,None,None,573.4699153999995,574.6551265000003,0.5116054999998596,0.5949424999998882,1.7131933999999092,1.7966493000003538,,,,,anne_3,001,2020_Feb_10_1245,posner,3.1.5,60.055371052065794,
-0.5,0,1,left,1,3,2,0,2,0,3,7,31,0,,,,,,,,,574.9731724999997,575.4729227000003,576.1904964,None,575.4895321999998,576.1739161,576.6912938999999,None,left,1,0.32654980000006617,576.6912938999999,None,None,575.4895321999998,576.6744051999999,0.5115122999995947,0.594927799999823,1.7129814999998416,1.7965415999997276,,,,,anne_3,001,2020_Feb_10_1245,posner,3.1.5,60.055371052065794,
-0.5,0,1,left,1,3,2,0,2,0,4,0,32,2,,,,,,,,,577.0425854,577.5424281999999,578.2602187999996,None,577.5589475000002,578.2435352999996,578.7606917999997,None,left,1,0.32109309999941615,578.7606917999997,None,None,577.5589475000002,578.7441364000001,0.5114364000000933,0.5950565000002825,1.7131279000004724,1.7964320000000953,,,,,anne_3,001,2020_Feb_10_1245,posner,3.1.5,60.055371052065794,
-0.5,0,1,left,1,3,2,0,2,0,4,1,33,1,,,,,,,,,579.1112766000001,579.6119821999996,580.3295205,None,579.6284939000002,580.3128804000003,580.8303830999998,None,left,1,0.33956970000053843,580.8303830999998,None,None,579.6284939000002,580.8136331999999,0.5122851000005539,0.5956661999998687,1.7139101000002483,1.7972939000001134,,,,,anne_3,001,2020_Feb_10_1245,posner,3.1.5,60.055371052065794,
0.5,180,1,right,2,4,2,0,2,0,4,2,34,7,,,,,,,,,581.1975673000002,581.6978832999998,582.4157627999998,None,581.7146863000003,582.398987,582.9163959000002,None,right,1,0.3654483000000255,582.9163959000002,None,None,581.7146863000003,582.8995278999996,0.5118483000005654,0.595567200000005,1.713470500000767,1.7972489000003407,,,,,anne_3,001,2020_Feb_10_1245,posner,3.1.5,60.055371052065794,
-0.5,180,0,left,2,3,2,0,2,0,4,3,35,4,,,,,,,,,583.3017069000002,583.8009643,584.5185637,None,583.8176630000003,584.5020013999997,585.0192503000003,None,left,1,0.3986032000002524,585.0192503000003,None,None,583.8176630000003,585.0027947000003,0.5112733000005392,0.5947887000002083,1.7130803999998534,1.796373300000596,,,,,anne_3,001,2020_Feb_10_1245,posner,3.1.5,60.055371052065794,
-0.5,0,1,left,1,3,2,0,2,0,4,4,36,0,,,,,,,,,585.4373995999999,585.9372711000001,586.6550978,None,585.9538512000004,586.6381368999996,587.1556868000002,None,left,1,0.27014240000062273,587.1556868000002,None,None,585.9538512000004,587.1388427999996,0.5114438999999038,0.5949510999998893,1.713002299999971,1.7966182000000117,,,,,anne_3,001,2020_Feb_10_1245,posner,3.1.5,60.055371052065794,
0.5,0,0,right,1,4,2,0,2,0,4,5,37,3,,,,,,,,,587.4565641000004,587.9568142000003,588.6744842000003,None,587.9735029999997,588.6576718000001,589.1751288999999,None,right,1,0.3788844999999128,589.1751288999999,None,None,587.9735029999997,589.1582200999997,0.51166639999974,0.5949437999997826,1.7130584999995335,1.796661999999742,,,,,anne_3,001,2020_Feb_10_1245,posner,3.1.5,60.055371052065794,
0.5,180,1,right,2,4,2,0,2,0,4,6,38,5,,,,,,,,,589.576442,590.0765542000004,590.7940180999999,None,590.0930611999997,590.7772467,591.2944725000002,None,right,1,0.2913293999999951,591.2944725000002,None,None,590.0930611999997,591.2778471999995,0.5118722999995953,0.5949698999993416,1.7131444999995438,1.7967767999998614,,,,,anne_3,001,2020_Feb_10_1245,posner,3.1.5,60.055371052065794,
0.5,180,1,right,2,4,2,0,2,0,4,7,39,6,,,,,,,,,591.6123691999996,592.1124261999998,592.8300212999998,None,592.1290983000004,592.8132873999998,593.3308714,None,right,1,0.2948814000001221,593.3308714,None,None,592.1290983000004,593.3140074999997,0.5114502999995238,0.5948182000001907,1.713019499999973,1.7963423000001058,,,,,anne_3,001,2020_Feb_10_1245,posner,3.1.5,60.055371052065794,
-0.5,180,0,left,2,3,2,0,2,0,5,0,40,4,,,,,,,,,593.6481693000001,594.1483790999996,594.8661704000001,None,594.1653898999998,594.8494655999998,595.3669128999995,None,left,1,0.41087380000044504,595.3669128999995,None,None,594.1653898999998,595.3501750999999,0.5119144000000233,0.5955622000001313,1.7139495000001261,1.7972130999996807,,,,,anne_3,001,2020_Feb_10_1245,posner,3.1.5,60.055371052065794,
0.5,180,1,right,2,4,2,0,2,0,5,1,41,5,,,,,,,,,595.8017910000003,596.3015062,597.0190856000004,None,596.3181578999997,597.0026426,597.5197304999997,None,right,1,0.34598129999994853,597.5197304999997,None,None,596.3181578999997,597.5031679999997,0.5115041999997629,0.5951211999999941,1.7131454999998823,1.7965604999999414,,,,,anne_3,001,2020_Feb_10_1245,posner,3.1.5,60.055371052065794,
-0.5,0,1,left,1,3,2,0,2,0,5,2,42,0,,,,,,,,,597.8872145,598.3876019000004,599.1054319999998,None,598.4044017000001,599.0887349999998,599.6060868999998,None,left,1,0.3400597000008929,599.6060868999998,None,None,598.4044017000001,599.5892095000004,0.5120767999997042,0.5957659999994576,1.7136657000000923,1.7973462999998446,,,,,anne_3,001,2020_Feb_10_1245,posner,3.1.5,60.055371052065794,
0.5,180,1,right,2,4,2,0,2,0,5,3,43,6,,,,,,,,,599.9740712999997,600.4739948000001,601.1915100000001,None,600.4906569999998,601.1750323000001,601.6924665000001,None,right,1,0.3333053000005748,601.6924665000001,None,None,600.4906569999998,601.6756528000001,0.5116714000005231,0.5949196999999913,1.7133131999999023,1.7964345000000321,,,,,anne_3,001,2020_Feb_10_1245,posner,3.1.5,60.055371052065794,
0.5,0,0,right,1,4,2,0,2,0,5,4,44,3,,,,,,,,,602.0428530000004,602.5433556000003,603.2612155000002,None,602.5601062999999,603.2444780000001,603.7620441000004,None,right,1,0.4076924999999392,603.7620441000004,None,None,602.5601062999999,603.7451509999996,0.5115264999994906,0.5950315000000046,1.7133152999995218,1.7965263999994932,,,,,anne_3,001,2020_Feb_10_1245,posner,3.1.5,60.055371052065794,
-0.5,0,1,left,1,3,2,0,2,0,5,5,45,1,,,,,,,,,604.1964427999997,604.6964776,605.4140607000004,None,604.7131929000002,605.3972169000003,605.9147975000001,None,left,1,0.3189066000004459,605.9147975000001,None,None,604.7131929000002,605.8980156000002,0.5118040999996083,0.5950222000001304,1.713326899999629,1.7967350999997507,,,,,anne_3,001,2020_Feb_10_1245,posner,3.1.5,60.055371052065794,
-0.5,0,1,left,1,3,2,0,2,0,5,6,46,2,,,,,,,,,606.2492461999996,606.7492171999997,607.4666608000002,None,606.7659285000004,607.4501677000003,607.9675632000003,None,left,1,0.2581319999999323,607.9675632000003,None,None,606.7659285000004,607.9508815000004,0.5115820000000895,0.5951132999998663,1.7132275000003574,1.7967710000002626,,,,,anne_3,001,2020_Feb_10_1245,posner,3.1.5,60.055371052065794,
0.5,180,1,right,2,4,2,0,2,0,5,7,47,7,,,,,,,,,608.2521918999996,608.7519072999999,609.4694623,None,608.7684793000003,609.4529522999997,609.9702697999996,None,right,1,0.3035043999998379,609.9702697999996,None,None,608.7684793000003,609.9535729000004,0.5114766000006057,0.5951354000007996,1.713118900000154,1.7965585000001738,,,,,anne_3,001,2020_Feb_10_1245,posner,3.1.5,60.055371052065794,
-0.5,0,1,left,1,3,2,0,2,0,6,0,48,0,,,,,,,,,610.3049513000001,610.8048157999997,611.5224893,None,610.8216084000001,611.5058310999998,612.0234925,None,left,1,0.3303121999997529,612.0234925,None,None,610.8216084000001,612.0063458,0.5115568000001076,0.5948434000001726,1.7130741000000853,1.796555900000385,,,,,anne_3,001,2020_Feb_10_1245,posner,3.1.5,60.055371052065794,
0.5,180,1,right,2,4,2,0,2,0,6,1,49,7,,,,,,,,,612.3746323999999,612.8742780999996,613.5919802000003,None,612.8910983000001,613.5754513999996,614.0920542999997,None,right,1,0.3174492000007376,614.0920542999997,None,None,612.8910983000001,614.0759076999998,0.5112174000005325,0.5945932000004177,1.7128295000002254,1.7963048999999955,,,,,anne_3,001,2020_Feb_10_1245,posner,3.1.5,60.055371052065794,
-0.5,180,0,left,2,3,2,0,2,0,6,2,50,4,,,,,,,,,614.4276332000004,614.9272153999996,615.6448744000004,None,614.9438843000003,615.6279793999997,616.1456059999996,None,left,1,0.38398620000043593,616.1456059999996,None,None,614.9438843000003,616.1287859999998,0.5119052000000011,0.5952938999998878,1.7134587999998985,1.7967854999997144,,,,,anne_3,001,2020_Feb_10_1245,posner,3.1.5,60.055371052065794,
0.5,0,0,right,1,4,2,0,2,0,6,3,51,3,,,,,,,,,616.5467559000003,617.0468537000002,617.7642684999996,None,617.0633835000003,617.7475355000001,618.2651638000002,None,right,1,0.36035570000058215,618.2651638000002,None,None,617.0633835000003,618.2480908000002,0.5117833000003884,0.5948456000005535,1.713007500000458,1.7966823000006116,,,,,anne_3,001,2020_Feb_10_1245,posner,3.1.5,60.055371052065794,
-0.5,0,1,left,1,3,2,0,2,0,6,4,52,2,,,,,,,,,618.6492731000003,619.1494703000003,619.8670858999999,None,619.1663819,619.8506435000004,620.3677890000004,None,left,1,0.29789570000048116,620.3677890000004,None,None,619.1663819,620.3511825,0.511891199999809,0.5955870999996478,1.7135812999995323,1.7972476999993887,,,,,anne_3,001,2020_Feb_10_1245,posner,3.1.5,60.055371052065794,
-0.5,0,1,left,1,3,2,0,2,0,6,5,53,1,,,,,,,,,620.6857138999999,621.1857046,621.9033114999997,None,621.2024343999997,621.8866343000004,622.4041634,None,left,1,0.3255014000005758,622.4041634,None,None,621.2024343999997,622.3872495999999,0.5115911000002598,0.5949593000004825,1.7131207000002178,1.7968612000004214,,,,,anne_3,001,2020_Feb_10_1245,posner,3.1.5,60.055371052065794,
0.5,180,1,right,2,4,2,0,2,0,6,6,54,5,,,,,,,,,622.7550189999997,623.2553245000004,623.9729627000002,None,623.2719842000001,623.9563352999999,624.4738405000003,None,right,1,0.2878390000005311,624.4738405000003,None,None,623.2719842000001,624.4567920000004,0.5119653000001563,0.5951381000004403,1.713419700000486,1.7969038000001092,,,,,anne_3,001,2020_Feb_10_1245,posner,3.1.5,60.055371052065794,
0.5,180,1,right,2,4,2,0,2,0,6,7,55,6,,,,,,,,,624.7914023999997,625.2916647999996,626.0089776999998,None,625.3079792000003,625.9924812000004,626.5096552,None,right,1,0.31603850000010425,626.5096552,None,None,625.3079792000003,626.4930868999995,0.5118932999994286,0.595178699999451,1.7132942999996885,1.7966754999997647,,,,,anne_3,001,2020_Feb_10_1245,posner,3.1.5,60.055371052065794,
-0.5,0,1,left,1,3,2,0,2,0,7,0,56,1,,,,,,,,,626.8444815999997,627.3441071000002,628.0618969000002,None,627.3609025000001,628.0453012000003,628.5625361999996,None,left,1,0.31912850000026083,628.5625361999996,None,None,627.3609025000001,628.5459711999997,0.5113498000000618,0.5949814999994487,1.7131912999993801,1.796536599999854,,,,,anne_3,001,2020_Feb_10_1245,posner,3.1.5,60.055371052065794,
-0.5,180,0,left,2,3,2,0,2,0,7,1,57,4,,,,,,,,,628.9131966,629.4137653000003,630.1314562000002,None,629.4305140000001,630.1145562999995,630.6321756000002,None,left,1,0.43348299999979645,630.6321756000002,None,None,629.4305140000001,630.6153902000001,0.511833900000056,0.5951146999996126,1.7134416999997484,1.797006999999212,,,,,anne_3,001,2020_Feb_10_1245,posner,3.1.5,60.055371052065794,
-0.5,0,1,left,1,3,2,0,2,0,7,2,58,2,,,,,,,,,631.0836821999997,631.5836056000003,632.3010417999999,None,631.6000699000001,632.2847157000001,632.8018889999998,None,left,1,0.41580180000073597,632.8018889999998,None,None,631.6000699000001,632.7855226999995,0.5116718000008404,0.5946670000002996,1.713573500000166,1.7963892000007036,,,,,anne_3,001,2020_Feb_10_1245,posner,3.1.5,60.055371052065794,
0.5,180,1,right,2,4,2,0,2,0,7,3,59,7,,,,,,,,,633.2366729999999,633.7362737999997,634.4538869000003,None,633.7529711000002,634.4372756999996,634.9547482000003,None,right,1,0.3428295000003345,634.9547482000003,None,None,633.7529711000002,634.9379107,0.5112397000002602,0.5945532000005187,1.7128621000001658,1.7964357999999265,,,,,anne_3,001,2020_Feb_10_1245,posner,3.1.5,60.055371052065794,
-0.5,0,1,left,1,3,2,0,2,0,7,4,60,0,,,,,,,,,635.3229255000001,635.8227193999996,636.5402136999996,None,635.8392099999996,636.5236696999996,637.0409082000001,None,left,1,0.38462059999983467,637.0409082000001,None,None,635.8392099999996,637.0240329000003,0.5113836000000447,0.5946653999999398,1.7126853999998275,1.7962029000000257,,,,,anne_3,001,2020_Feb_10_1245,posner,3.1.5,60.055371052065794,
0.5,0,0,right,1,4,2,0,2,0,7,5,61,3,,,,,,,,,637.4422630000004,637.9422796000003,638.6597952999996,None,637.9588373000001,638.6430987999997,639.16059,None,right,1,0.40097830000013346,639.16059,None,None,637.9588373000001,639.1437123000001,0.5114060999994763,0.5945114999994985,1.712825900000098,1.796298299999762,,,,,anne_3,001,2020_Feb_10_1245,posner,3.1.5,60.055371052065794,
0.5,180,1,right,2,4,2,0,2,0,7,6,62,6,,,,,,,,,639.5784521,640.0781787000001,640.7961551000003,None,640.0951072000003,640.7792961,641.2967154000003,None,right,1,0.2729808000003686,641.2967154000003,None,None,640.0951072000003,641.2798943000003,0.5114174999998795,0.5951370000002498,1.7131351999996696,1.7966185999994195,,,,,anne_3,001,2020_Feb_10_1245,posner,3.1.5,60.055371052065794,
0.5,180,1,right,2,4,2,0,2,0,7,7,63,5,,,,,,,,,641.5977970999998,642.0976832000001,642.815486,None,642.1145924999996,642.7988995000001,643.3162299999999,None,right,1,0.2054333999994924,643.3162299999999,None,None,642.1145924999996,643.2994348999996,0.511807900000349,0.5953896999999415,1.7135387999996965,1.7970250999997006,,,,,anne_3,001,2020_Feb_10_1245,posner,3.1.5,60.055371052065794,
-0.5,0,1,left,1,3,2,0,2,0,8,0,64,0,,,,,,,,,643.5506215,644.0504491999995,644.7681427000002,None,644.0672625000002,644.7516221999999,645.2686822999999,None,left,1,0.260850799999389,645.2686822999999,None,None,644.0672625000002,645.2521075999998,0.5116957000000184,0.5950321000000258,1.7133294000004753,1.7967755000008765,,,,,anne_3,001,2020_Feb_10_1245,posner,3.1.5,60.055371052065794,
-0.5,180,0,left,2,3,2,0,2,0,8,1,65,4,,,,,,,,,645.5532553999997,646.0533942999996,646.7710467000002,None,646.0698454999997,646.7542912000004,647.2717583999997,None,left,1,0.4417857999997068,647.2717583999997,None,None,646.0698454999997,647.2550041,0.5115461999994295,0.594828399999642,1.713141999999607,1.796382999999878,,,,,anne_3,001,2020_Feb_10_1245,posner,3.1.5,60.055371052065794,
0.5,180,1,right,2,4,2,0,2,0,8,2,66,5,,,,,,,,,647.7392384999998,648.2394846000002,648.9571092000001,None,648.2564236000003,648.9405906999996,649.4578188,None,right,1,0.24774320000051375,649.4578188,None,None,648.2564236000003,649.4411385999997,0.5115524000002551,0.595296800000142,1.713186200000564,1.7969339000001128,,,,,anne_3,001,2020_Feb_10_1245,posner,3.1.5,60.055371052065794,
0.5,180,1,right,2,4,2,0,2,0,8,3,67,6,,,,,,,,,649.7256423000003,650.2256756000002,650.9434499000004,None,650.2422734999996,650.9266364,651.4440754000002,None,right,1,0.3254626999996617,651.4440754000002,None,None,650.2422734999996,651.4273982,0.511614300000474,0.5949397000003955,1.7133210000001782,1.7966279000002032,,,,,anne_3,001,2020_Feb_10_1245,posner,3.1.5,60.055371052065794,
-0.5,0,1,left,1,3,2,0,2,0,8,4,68,2,,,,,,,,,651.7951944000001,652.2952075999997,653.0127836999995,None,652.3119622999998,652.9962048000002,653.5135486000004,None,left,1,0.29600250000021333,653.5135486000004,None,None,652.3119622999998,653.4968194999997,0.5118013999999675,0.59512149999955,1.7133997000000818,1.7967845000002853,,,,,anne_3,001,2020_Feb_10_1245,posner,3.1.5,60.055371052065794,
0.5,0,0,right,1,4,2,0,2,0,8,5,69,3,,,,,,,,,653.8308965000001,654.3314960000002,655.0489811000002,None,654.3478256000003,655.0323801,655.5495943000001,None,right,1,0.4199035999999978,655.5495943000001,None,None,654.3478256000003,655.5330216999996,0.5124459999997271,0.5958182000003944,1.7139556000001903,1.7973560000000361,,,,,anne_3,001,2020_Feb_10_1245,posner,3.1.5,60.055371052065794,
0.5,180,1,right,2,4,2,0,2,0,8,6,70,7,,,,,,,,,656.0011653999995,656.5010180000004,657.2185783,None,656.5176944999998,657.2020042999998,657.7191459000001,None,right,1,0.298402299999907,657.7191459000001,None,None,656.5176944999998,657.7025767999999,0.5115751000003002,0.5949242999995477,1.713122299999668,1.7969530000000304,,,,,anne_3,001,2020_Feb_10_1245,posner,3.1.5,60.055371052065794,
-0.5,0,1,left,1,3,2,0,2,0,8,7,71,1,,,,,,,,,658.0374327000004,658.5369507,659.2547798,None,658.5538172000001,659.2379828999997,659.7555716000002,None,left,1,0.3099247000000105,659.7555716000002,None,None,658.5538172000001,659.7386240999999,0.5114193999997951,0.5951955000000453,1.71307699999943,1.7965896999994584,,,,,anne_3,001,2020_Feb_10_1245,posner,3.1.5,60.055371052065794,
0.5,180,1,right,2,4,2,0,2,0,9,0,72,7,,,,,,,,,660.0893164000004,660.5898742000004,661.3074787999999,None,660.60662,661.2909736999995,661.8081371000003,None,right,1,0.26552080000055867,661.8081371000003,None,None,660.60662,661.7915084000001,0.5121591999995871,0.5957177000000229,1.7137576999994053,1.7973273999996309,,,,,anne_3,001,2020_Feb_10_1245,posner,3.1.5,60.055371052065794,
-0.5,180,0,left,2,3,2,0,2,0,9,1,73,4,,,,,,,,,662.0929773000003,662.5926668999996,663.3104344999997,None,662.6093435999996,663.2936037000004,663.8110775,None,left,1,0.33437940000021626,663.8110775,None,None,662.6093435999996,663.7943220000002,0.5115039000002071,0.5951307000004817,1.7131374000000505,1.7966556999999739,,,,,anne_3,001,2020_Feb_10_1245,posner,3.1.5,60.055371052065794,
