targetX,cueOri,congr,corrAns,pin_cue,pin_target,block.thisRepN,block.thisTrialN,block.thisN,block.thisIndex,posner_task.thisRepN,posner_task.thisTrialN,posner_task.thisN,posner_task.thisIndex,port_start_block.started,port_start_block.stopped,text_2.started,text_2.stopped,p_port.started,p_port.stopped,text.started,text.stopped,fixation_1.started,fixation_1.stopped,fixation_2.started,fixation_2.stopped,cue.started,cue.stopped,target.started,target.stopped,correct_key_resp.keys,correct_key_resp.corr,correct_key_resp.rt,correct_key_resp.started,correct_key_resp.stopped,early_resp.keys,early_resp.rt,early_resp.started,early_resp.stopped,trigger_cue.started,trigger_cue.stopped,trigger_target.started,trigger_target.stopped,break_text.started,break_text.stopped,end_port.started,end_port.stopped,participant,session,date,expName,psychopyVersion,frameRate,
0.5,180,1,right,2,4,0,0,0,0,0,0,0,7,1.759999940986745e-05,0.09098989999984042,25.347466399999576,None,1.430000065738568e-05,0.09955530000024737,27.23121110000011,None,27.563549899999998,28.064854000000196,28.781627800000024,None,28.081669999999576,28.765109799999664,29.282007599999815,None,right,1,0.3390246999997544,29.282007599999815,None,right,0.7313553000003594,28.081669999999576,29.265470899999855,0.5110326000003624,0.5940757999997004,1.7113767999999254,1.7945953999997073,,,,,ashley_3,001,2020_Feb_12_1041,posner,3.1.5,60.0030481549177,
-0.5,0,1,left,1,3,0,0,0,0,0,1,1,2,,,,,,,,,29.65055349999966,30.148836299999857,30.865902399999868,None,30.16566520000015,30.849053500000082,31.365931700000147,None,left,1,0.39100950000010926,31.365931700000147,None,None,,30.16566520000015,31.34944110000015,0.5100271000001158,0.5934845000001587,1.7106100999999398,1.7936829999998736,,,,,ashley_3,001,2020_Feb_12_1041,posner,3.1.5,60.0030481549177,
-0.5,180,0,left,2,3,0,0,0,0,0,2,2,4,,,,,,,,,31.783830800000032,32.282900000000154,32.999937300000056,None,32.29956659999971,32.983035299999756,33.50011040000027,None,left,1,0.4409766999997373,33.50011040000027,None,None,,32.29956659999971,33.483297499999935,0.5109922000001461,0.5942437000003338,1.7113649000002624,1.7946068000001105,,,,,ashley_3,001,2020_Feb_12_1041,posner,3.1.5,60.0030481549177,
-0.5,0,1,left,1,3,0,0,0,0,0,3,3,1,,,,,,,,,33.96757929999967,34.46694389999993,35.18371750000006,None,34.483477499999935,35.167070700000295,35.68386310000005,None,left,1,0.337075399999776,35.68386310000005,None,None,,34.483477499999935,35.6671580000002,0.5110343000005741,0.5943357000005562,1.7112337000007756,1.794772300000659,,,,,ashley_3,001,2020_Feb_12_1041,posner,3.1.5,60.0030481549177,
0.5,180,1,right,2,4,0,0,0,0,0,4,4,6,,,,,,,,,36.05149369999981,36.55086779999965,37.26781250000022,None,36.56773700000031,37.251143700000284,37.76804230000016,None,right,1,0.28485170000021753,37.76804230000016,None,None,,36.56773700000031,37.75128750000022,0.511049899999307,0.5943125999992844,1.7114480000000185,1.7954485000000204,,,,,ashley_3,001,2020_Feb_12_1041,posner,3.1.5,60.0030481549177,
-0.5,0,1,left,1,3,0,0,0,0,0,5,5,0,,,,,,,,,38.085432500000024,38.58472849999998,39.3015204000003,None,38.60164950000035,39.28513500000008,39.80180240000027,None,left,1,0.379019299999527,39.80180240000027,None,None,,38.60164950000035,39.785241999999926,0.5109926999994059,0.5944451999994271,1.7114780000001701,1.7949038999995537,,,,,ashley_3,001,2020_Feb_12_1041,posner,3.1.5,60.0030481549177,
0.5,180,1,right,2,4,0,0,0,0,0,6,6,5,,,,,,,,,40.20282179999958,40.70214699999997,41.41916070000025,None,40.718915800000104,41.4022802999998,41.9192893999998,None,right,1,0.309559100000115,41.9192893999998,None,None,,40.718915800000104,41.90234380000038,0.511199999999917,0.5945615999999063,1.711378599999989,1.7949656000000687,,,,,ashley_3,001,2020_Feb_12_1041,posner,3.1.5,60.0030481549177,
0.5,0,0,right,1,4,0,0,0,0,0,7,7,3,,,,,,,,,42.25330899999972,42.75272179999956,43.46989409999969,None,42.769696499999554,43.45296309999958,43.969596199999614,None,right,1,0.3712992000000668,43.969596199999614,None,None,,42.769696499999554,43.953427100000226,0.5111197000005632,0.5947525000001406,1.7118003000005046,1.7946915000002264,,,,,ashley_3,001,2020_Feb_12_1041,posner,3.1.5,60.0030481549177,
0.5,180,1,right,2,4,0,0,0,0,1,0,8,7,,,,,,,,,44.37076160000015,44.87032739999995,45.58702710000034,None,44.886884499999724,45.57044709999991,46.08722140000009,None,right,1,0.37374129999989236,46.08722140000009,None,None,,44.886884499999724,46.070507700000235,0.51133530000061,0.5943355000008523,1.7115089000008084,1.7947964000004504,,,,,ashley_3,001,2020_Feb_12_1041,posner,3.1.5,60.0030481549177,
0.5,180,1,right,2,4,0,0,0,0,1,1,9,5,,,,,,,,,46.48774299999968,46.987280700000156,47.70428840000022,None,47.004140899999584,47.68772209999952,48.20440150000013,None,right,1,0.3044378999993569,48.20440150000013,None,None,,47.004140899999584,48.18778349999957,0.5112583000000086,0.5948853999998391,1.711754199999632,1.7951391999995394,,,,,ashley_3,001,2020_Feb_12_1041,posner,3.1.5,60.0030481549177,
-0.5,0,1,left,1,3,0,0,0,0,1,2,10,1,,,,,,,,,48.53851759999998,49.03815459999987,49.755242299999736,None,49.054752400000325,49.7383491999999,50.255062799999905,None,left,1,0.365731699999742,50.255062799999905,None,None,,49.054752400000325,50.23850829999992,0.5111099000005197,0.594287599999916,1.7114527000003363,1.7945890999999392,,,,,ashley_3,001,2020_Feb_12_1041,posner,3.1.5,60.0030481549177,
-0.5,0,1,left,1,3,0,0,0,0,1,3,11,2,,,,,,,,,50.639686900000015,51.13891109999986,51.855683699999645,None,51.15563050000037,51.83911830000034,52.355749899999864,52.839378300000135,left,1,0.6174387999999453,52.355749899999864,None,None,,51.15563050000037,52.33945229999972,0.511171899999681,0.5943594000000303,1.7117038999995202,1.794640299999628,,,,,ashley_3,001,2020_Feb_12_1041,posner,3.1.5,60.0030481549177,
-0.5,180,0,left,2,3,0,0,0,0,1,4,12,4,,,,,,,,,52.99040220000006,53.48961690000033,54.20649870000034,None,53.50611560000016,54.18979320000017,54.70655679999982,None,right,0,0.07425070000044798,54.70655679999982,None,None,,53.50611560000016,54.68983449999996,0.5112689999996292,0.5943129999996017,1.7114744999998948,1.7946954999997615,,,,,ashley_3,001,2020_Feb_12_1041,posner,3.1.5,60.0030481549177,
0.5,0,0,right,1,4,0,0,0,0,1,5,13,3,,,,,,,,,54.80751400000008,55.30667710000034,56.02364099999977,None,55.32329279999976,56.006798600000366,56.52367830000003,None,right,1,0.39316620000045077,56.52367830000003,None,None,,55.32329279999976,56.50710919999983,0.5109107999996922,0.5942758000001049,1.711322499999369,1.7949226000000635,,,,,ashley_3,001,2020_Feb_12_1041,posner,3.1.5,60.0030481549177,
-0.5,0,1,left,1,3,0,0,0,0,1,6,14,0,,,,,,,,,56.94080049999957,57.44075840000005,58.15750130000015,None,57.45733719999953,58.14088280000033,58.65772870000001,None,left,1,0.33928389999982755,58.65772870000001,None,None,,57.45733719999953,58.64094079999995,0.5115032000003339,0.5946732000002157,1.7116721000002144,1.7950504000000365,,,,,ashley_3,001,2020_Feb_12_1041,posner,3.1.5,60.0030481549177,
0.5,180,1,right,2,4,0,0,0,0,1,7,15,6,,,,,,,,,59.025530900000376,59.524528300000384,60.24146000000019,None,59.54120609999973,60.2247226999998,60.74155140000039,None,right,1,0.30321290000028966,60.74155140000039,None,None,,59.54120609999973,60.72495119999985,0.5109652999999525,0.594409700000142,1.711335500000132,1.7948206000000937,,,,,ashley_3,001,2020_Feb_12_1041,posner,3.1.5,60.0030481549177,
-0.5,180,0,left,2,3,0,0,0,0,2,0,16,4,,,,,,,,,61.075994900000296,61.5755723000002,62.29206390000036,None,61.592088200000035,62.275377599999956,62.79226920000019,None,left,1,0.3566281000003073,62.79226920000019,None,None,,61.592088200000035,62.775693200000205,0.511298600000373,0.5943508999998812,1.711412100000416,1.7948255000001154,,,,,ashley_3,001,2020_Feb_12_1041,posner,3.1.5,60.0030481549177,
0.5,0,0,right,1,4,0,0,0,0,2,1,17,3,,,,,,,,,63.17672270000003,63.676174100000026,64.3927690999999,None,63.692506700000195,64.37645710000015,64.89294419999987,None,right,1,0.35982400000011694,64.89294419999987,None,None,,63.692506700000195,64.87629459999971,0.5111176000000341,0.5942697999998927,1.7112309000003734,1.794618700000683,,,,,ashley_3,001,2020_Feb_12_1041,posner,3.1.5,60.0030481549177,
-0.5,0,1,left,1,3,0,0,0,0,2,2,18,0,,,,,,,,,65.27738359999967,65.7766601000003,66.49351130000014,None,65.79319250000026,66.47685790000014,66.99363799999992,67.47716500000024,left,1,0.5871323999999731,66.99363799999992,None,None,,65.79319250000026,66.97688130000006,0.5110102999997252,0.5944091000001208,1.711202599999524,1.7946311999994577,,,,,ashley_3,001,2020_Feb_12_1041,posner,3.1.5,60.0030481549177,
-0.5,0,1,left,1,3,0,0,0,0,2,3,19,2,,,,,,,,,67.61121360000016,68.11075439999968,68.82768120000037,None,68.12725010000031,68.81083250000029,69.32773530000031,None,left,1,0.4290312000002814,69.32773530000031,None,None,,68.12725010000031,69.3110300999997,0.5112052999993466,0.5943165999997291,1.7114670999999362,1.7946800999998231,,,,,ashley_3,001,2020_Feb_12_1041,posner,3.1.5,60.0030481549177,
0.5,180,1,right,2,4,0,0,0,0,2,4,20,6,,,,,,,,,69.77879699999994,70.27786839999953,70.9948760999996,None,70.29458400000021,70.97829739999997,71.49519820000023,None,right,1,0.2694903000001432,71.49519820000023,None,None,,70.29458400000021,71.47843610000018,0.5107224000003043,0.5943567000003895,1.7112625999998272,1.79441450000013,,,,,ashley_3,001,2020_Feb_12_1041,posner,3.1.5,60.0030481549177,
0.5,180,1,right,2,4,0,0,0,0,2,5,21,5,,,,,,,,,71.79605549999997,72.29535380000016,73.01204589999998,None,72.31187549999959,72.99572530000023,73.51223180000034,None,right,1,0.40439340000011725,73.51223180000034,None,None,,72.31187549999959,73.49566190000041,0.5109859999993205,0.5942935999992187,1.7112780999996176,1.7946689999998853,,,,,ashley_3,001,2020_Feb_12_1041,posner,3.1.5,60.0030481549177,
-0.5,0,1,left,1,3,0,0,0,0,2,6,22,1,,,,,,,,,73.94647199999963,74.4459981,75.16270720000011,None,74.46247579999999,75.1462504000001,75.66285799999969,None,left,1,0.3419136000002254,75.66285799999969,None,None,,74.46247579999999,75.64625309999974,0.510935199999949,0.5943665999993755,1.711176699999669,1.794775800000025,,,,,ashley_3,001,2020_Feb_12_1041,posner,3.1.5,60.0030481549177,
0.5,180,1,right,2,4,0,0,0,0,2,7,23,7,,,,,,,,,76.03065359999982,76.5300027000003,77.2468472999999,None,76.54663520000031,77.23008320000008,77.74685930000032,None,right,1,0.29798179999943386,77.74685930000032,None,None,,76.54663520000031,77.73053350000009,0.511160000000018,0.594290699999874,1.7116786999995384,1.7946983000001637,,,,,ashley_3,001,2020_Feb_12_1041,posner,3.1.5,60.0030481549177,
-0.5,180,0,left,2,3,0,0,0,0,3,0,24,4,,,,,,,,,78.0650211000002,78.56374520000008,79.28073510000013,None,78.58056920000035,79.26410250000026,79.78095870000016,80.26441489999979,left,1,0.49575170000025537,79.78095870000016,None,None,,78.58056920000035,79.76425800000015,0.5107348999999886,0.594180599999163,1.7112499999993815,1.7946774999991248,,,,,ashley_3,001,2020_Feb_12_1041,posner,3.1.5,60.0030481549177,
0.5,180,1,right,2,4,0,0,0,0,3,1,25,7,,,,,,,,,80.29809959999966,80.79797559999952,81.51478570000017,None,80.81450330000007,81.49819310000021,82.01491869999973,None,right,1,0.23775219999970432,82.01491869999973,None,None,,80.81450330000007,81.99834529999953,0.5116606000001411,0.5951277000003756,1.7120068000003812,1.7953090999999404,,,,,ashley_3,001,2020_Feb_12_1041,posner,3.1.5,60.0030481549177,
-0.5,0,1,left,1,3,0,0,0,0,3,2,26,2,,,,,,,,,82.28192820000004,82.78169880000041,83.49880699999994,None,82.79859620000025,83.48199690000001,83.99900470000011,None,left,1,0.31768409999949654,83.99900470000011,None,None,,82.79859620000025,83.98214269999971,0.5114512999998624,0.5953070999994452,1.7118844999995417,1.7956422999995993,,,,,ashley_3,001,2020_Feb_12_1041,posner,3.1.5,60.0030481549177,
0.5,180,1,right,2,4,0,0,0,0,3,3,27,6,,,,,,,,,84.33349759999965,84.83237879999979,85.54952839999987,None,84.84913990000041,85.53271419999965,86.04959150000013,None,right,1,0.3392725999992763,86.04959150000013,None,None,,84.84913990000041,86.03275659999963,0.5107760000000781,0.5942352000001847,1.7111392000006163,1.7945609000007607,,,,,ashley_3,001,2020_Feb_12_1041,posner,3.1.5,60.0030481549177,
-0.5,0,1,left,1,3,0,0,0,0,3,4,28,0,,,,,,,,,86.4171680999998,86.9164751999997,87.63326489999963,None,86.93315520000033,87.61660690000008,88.13337479999973,None,left,1,0.31933740000022226,88.13337479999973,None,None,,86.93315520000033,88.11693939999986,0.5109459999994215,0.594395799999802,1.7114002999996956,1.7946904000000359,,,,,ashley_3,001,2020_Feb_12_1041,posner,3.1.5,60.0030481549177,
0.5,0,0,right,1,4,0,0,0,0,3,5,29,3,,,,,,,,,88.4844948,88.98358439999993,89.70072549999986,None,89.00034640000013,89.68390040000031,90.20105380000041,None,right,1,0.4275803000000451,90.20105380000041,None,None,,89.00034640000013,90.18404869999995,0.5107803000000786,0.5944510999997874,1.7112266000003729,1.7951781000001574,,,,,ashley_3,001,2020_Feb_12_1041,posner,3.1.5,60.0030481549177,
-0.5,0,1,left,1,3,0,0,0,0,3,6,30,1,,,,,,,,,90.65162020000025,91.15112640000007,91.8681305,None,91.16780860000017,91.85137899999972,92.36816550000003,None,left,1,0.34076379999987694,92.36816550000003,None,None,,91.16780860000017,92.35131809999984,0.5111888000001272,0.5945206999995207,1.7113686000002417,1.7949715999993714,,,,,ashley_3,001,2020_Feb_12_1041,posner,3.1.5,60.0030481549177,
0.5,180,1,right,2,4,0,0,0,0,3,7,31,5,,,,,,,,,92.73525460000019,93.23523579999983,93.95191880000039,None,93.2517041000001,93.93541519999962,94.45207310000023,None,right,1,0.35263539999959903,94.45207310000023,None,None,,93.2517041000001,94.43556160000026,0.5119101000000228,0.5953173999996579,1.7122169999993275,1.7956233999993856,,,,,ashley_3,001,2020_Feb_12_1041,posner,3.1.5,60.0030481549177,
-0.5,0,1,left,1,3,0,0,0,0,4,0,32,0,,,,,,,,,94.83652429999984,95.33581210000011,96.05258930000036,None,95.35243960000025,96.03590069999973,96.55266329999995,None,left,1,0.2681360999995377,96.55266329999995,None,None,,95.35243960000025,96.53613719999976,0.511126499999591,0.5945290999998178,1.7114268999994238,1.7947845999997298,,,,,ashley_3,001,2020_Feb_12_1041,posner,3.1.5,60.0030481549177,
-0.5,0,1,left,1,3,0,0,0,0,4,1,33,1,,,,,,,,,96.837219,97.33645340000021,98.0531076999996,None,97.35296610000023,98.03654300000017,98.55326129999958,None,left,1,0.41155590000016673,98.55326129999958,None,None,,97.35296610000023,98.53672509999979,0.511085500000263,0.5944429000001037,1.7113406999997096,1.794779699999708,,,,,ashley_3,001,2020_Feb_12_1041,posner,3.1.5,60.0030481549177,
0.5,180,1,right,2,4,0,0,0,0,4,2,34,7,,,,,,,,,98.98776629999975,99.48695179999959,100.20383829999992,None,99.50377159999971,100.18718780000017,100.70398320000004,None,right,1,0.30870599999980186,100.70398320000004,None,None,,99.50377159999971,100.68741469999986,0.5109607000003962,0.5945258000001559,1.7113995999998224,1.7946829000002253,,,,,ashley_3,001,2020_Feb_12_1041,posner,3.1.5,60.0030481549177,
0.5,0,0,right,1,4,0,0,0,0,4,3,35,3,,,,,,,,,101.03831999999966,101.5377013999996,102.2544054,None,101.55420359999971,102.23793469999964,102.75481000000036,None,right,1,0.4337874999991982,102.75481000000036,None,None,,101.55420359999971,102.73820940000041,0.5110812000002625,0.594596900000397,1.7115703999998004,1.7951395000000048,,,,,ashley_3,001,2020_Feb_12_1041,posner,3.1.5,60.0030481549177,
0.5,180,1,right,2,4,0,0,0,0,4,4,36,5,,,,,,,,,103.20602940000026,103.70519969999987,104.42180089999965,None,103.72158299999955,104.40511669999978,104.92192410000007,None,right,1,0.3068961999997555,104.92192410000007,None,None,,103.72158299999955,104.9054973000002,0.5112294000000475,0.5944088999995074,1.7115302000001975,1.7946807999996963,,,,,ashley_3,001,2020_Feb_12_1041,posner,3.1.5,60.0030481549177,
0.5,180,1,right,2,4,0,0,0,0,4,5,37,6,,,,,,,,,105.25589260000015,105.75579560000006,106.47240640000018,None,105.77217660000042,106.45592109999961,106.97257569999965,None,right,1,0.35214319999977306,106.97257569999965,None,None,,105.77217660000042,106.95612720000008,0.5118909000002532,0.5953088999995089,1.7122004000002562,1.79537689999961,,,,,ashley_3,001,2020_Feb_12_1041,posner,3.1.5,60.0030481549177,
-0.5,0,1,left,1,3,0,0,0,0,4,6,38,2,,,,,,,,,107.34050829999978,107.83976460000031,108.55656780000027,None,107.8564096,108.53986150000037,109.05677130000004,None,left,1,0.2999595999999656,109.05677130000004,None,None,,107.8564096,109.04008049999993,0.5112935000006473,0.5944202999999106,1.711597299999994,1.794721400000526,,,,,ashley_3,001,2020_Feb_12_1041,posner,3.1.5,60.0030481549177,
-0.5,180,0,left,2,3,0,0,0,0,4,7,39,4,,,,,,,,,109.3745955000004,109.87355639999987,110.59059069999967,None,109.8904308000001,110.57371669999975,111.09059330000036,None,left,1,0.39422169999943435,111.09059330000036,None,None,,109.8904308000001,111.07384100000036,0.5109088999997766,0.5942650999995749,1.7111739000001762,1.7947770000000673,,,,,ashley_3,001,2020_Feb_12_1041,posner,3.1.5,60.0030481549177,
-0.5,0,1,left,1,3,0,0,0,0,5,0,40,0,,,,,,,,,111.50820440000007,112.0077025999999,112.72442030000002,None,112.02426819999982,112.7077333999996,113.22460390000015,113.70811099999992,left,1,0.5080421000002389,113.22460390000015,None,None,,112.02426819999982,113.2079561999999,0.5111735000000408,0.5943519000002198,1.7114062999999078,1.7948010999998587,,,,,ashley_3,001,2020_Feb_12_1041,posner,3.1.5,60.0030481549177,
0.5,180,1,right,2,4,0,0,0,0,5,1,41,5,,,,,,,,,113.75899930000014,114.25829559999966,114.97519929999999,None,114.27495079999971,114.95859070000006,115.47538859999986,None,right,1,0.3054032999998526,115.47538859999986,None,None,,114.27495079999971,115.45873099999972,0.5109882999995534,0.5941728999996485,1.7114072000003944,1.7946173999998791,,,,,ashley_3,001,2020_Feb_12_1041,posner,3.1.5,60.0030481549177,
0.5,180,1,right,2,4,0,0,0,0,5,2,42,6,,,,,,,,,115.8095199999998,116.30883360000007,117.02596670000003,None,116.32560509999985,117.0090624000004,117.52586729999985,118.00936869999987,right,1,0.4949714000003951,117.52586729999985,None,None,,116.32560509999985,117.50940710000032,0.5111032000004343,0.5945155999997951,1.7116491000006135,1.7948403000000326,,,,,ashley_3,001,2020_Feb_12_1041,posner,3.1.5,60.0030481549177,
0.5,180,1,right,2,4,0,0,0,0,5,3,43,7,,,,,,,,,118.04374310000003,118.54314499999964,119.26000279999971,None,118.55964239999957,119.24298129999988,119.75985649999984,None,right,1,0.33280139999988023,119.75985649999984,None,None,,118.55964239999957,119.74318849999963,0.5111815999998726,0.5944822999999815,1.7112062999995032,1.7947899999999208,,,,,ashley_3,001,2020_Feb_12_1041,posner,3.1.5,60.0030481549177,
-0.5,0,1,left,1,3,0,0,0,0,5,4,44,2,,,,,,,,,120.11077130000012,120.6104551999997,121.32720739999968,None,120.62686159999976,121.3104473000003,121.8274263000003,None,left,1,0.30531489999975747,121.8274263000003,None,None,,120.62686159999976,121.81058740000026,0.5114548000001378,0.5944776000005731,1.7115739999999278,1.7950380000002042,,,,,ashley_3,001,2020_Feb_12_1041,posner,3.1.5,60.0030481549177,
0.5,0,0,right,1,4,0,0,0,0,5,5,45,3,,,,,,,,,122.16141520000019,122.66083249999974,123.37770749999981,None,122.67758119999962,123.36126969999987,123.87790010000026,None,right,1,0.32674889999998413,123.87790010000026,None,None,,122.67758119999962,123.8612579999999,0.5110238999996,0.5943306999997731,1.711442399999214,1.7949181999993016,,,,,ashley_3,001,2020_Feb_12_1041,posner,3.1.5,60.0030481549177,
-0.5,180,0,left,2,3,0,0,0,0,5,6,46,4,,,,,,,,,124.22891230000005,124.72817399999985,125.44513209999968,None,124.74494279999999,125.42844700000023,125.94519109999965,126.42881870000019,left,1,0.47545069999978296,125.94519109999965,None,None,,124.74494279999999,125.92865650000022,0.5109539999994013,0.5942175000000134,1.7114128999992317,1.7945731999998316,,,,,ashley_3,001,2020_Feb_12_1041,posner,3.1.5,60.0030481549177,
-0.5,0,1,left,1,3,0,0,0,0,5,7,47,1,,,,,,,,,126.44561429999976,126.94549329999973,127.66230429999996,None,126.96216079999977,127.64580289999958,128.16248639999958,128.64616240000032,left,1,0.6420596999996633,128.16248639999958,None,None,,126.96216079999977,128.1459090999997,0.5110549999999421,0.5945809999993799,1.7114756999999372,1.7950237999993988,,,,,ashley_3,001,2020_Feb_12_1041,posner,3.1.5,60.0030481549177,
-0.5,180,0,left,2,3,0,0,0,0,6,0,48,4,,,,,,,,,128.83043559999987,129.3296633,130.04653289999987,None,129.34630279999965,130.03000510000038,130.54652600000009,None,right,0,0.10616549999940617,130.54652600000009,None,None,,129.34630279999965,130.53005339999982,0.5111392999997406,0.5942768999993859,1.7115138999997725,1.794799299999795,,,,,ashley_3,001,2020_Feb_12_1041,posner,3.1.5,60.0030481549177,
-0.5,0,1,left,1,3,0,0,0,0,6,1,49,1,,,,,,,,,130.68073769999955,131.18026509999981,131.89709010000024,None,131.19678959999965,131.88039690000005,132.39725480000016,None,left,1,0.38347200000043813,132.39725480000016,None,None,,131.19678959999965,132.38065920000008,0.5112670000007711,0.5944735000002765,1.7116462000003594,1.794849200000499,,,,,ashley_3,001,2020_Feb_12_1041,posner,3.1.5,60.0030481549177,
-0.5,0,1,left,1,3,0,0,0,0,6,2,50,0,,,,,,,,,132.79789809999966,133.29763410000032,134.01436279999962,None,133.31407359999957,133.99759600000016,134.51462710000033,134.9981071000002,left,1,0.49000270000033197,134.51462710000033,None,None,,133.31407359999957,134.4978326999999,0.5113725999999588,0.5944595999999365,1.711554999999862,1.7948913000000175,,,,,ashley_3,001,2020_Feb_12_1041,posner,3.1.5,60.0030481549177,
0.5,0,0,right,1,4,0,0,0,0,6,3,51,3,,,,,,,,,135.0320271999999,135.53149810000014,136.24838230000023,None,135.54821189999984,136.23167600000033,136.74866589999965,None,right,1,0.25605539999924076,136.74866589999965,None,None,,135.54821189999984,136.73193840000022,0.5114781999991465,0.5949457999995502,1.7119012999992265,1.7954823000000033,,,,,ashley_3,001,2020_Feb_12_1041,posner,3.1.5,60.0030481549177,
0.5,180,1,right,2,4,0,0,0,0,6,4,52,7,,,,,,,,,137.03287189999992,137.5320797000004,138.24917470000037,None,137.54887390000022,138.23234179999963,138.74922369999967,None,right,1,0.3275631999995312,138.74922369999967,None,None,,137.54887390000022,138.7324933,0.5109471999994639,0.5944743999998536,1.7113461999997526,1.7947634000001926,,,,,ashley_3,001,2020_Feb_12_1041,posner,3.1.5,60.0030481549177,
0.5,180,1,right,2,4,0,0,0,0,6,5,53,6,,,,,,,,,139.10041619999993,139.59956950000014,140.31639170000017,None,139.61619020000035,140.29968499999995,140.81658960000004,None,right,1,0.35611149999931513,140.81658960000004,None,None,,139.61619020000035,140.7997895999997,0.5110513999998147,0.5942190999994637,1.7112517999994452,1.7944792999996935,,,,,ashley_3,001,2020_Feb_12_1041,posner,3.1.5,60.0030481549177,
0.5,180,1,right,2,4,0,0,0,0,6,6,54,5,,,,,,,,,141.20076429999972,141.7000707999996,142.4171606,None,141.7168982000003,142.40054020000025,142.91744740000013,None,right,1,0.32719580000048154,142.91744740000013,None,None,,141.7168982000003,142.9007789999996,0.5109883000004629,0.5943144000002576,1.71168790000047,1.7946153000002596,,,,,ashley_3,001,2020_Feb_12_1041,posner,3.1.5,60.0030481549177,
-0.5,0,1,left,1,3,0,0,0,0,6,7,55,2,,,,,,,,,143.26808700000038,143.76731649999965,144.4841133,None,143.78411200000028,144.46777519999978,144.98426910000035,None,left,1,0.3564199999991615,144.98426910000035,None,None,,143.78411200000028,144.96790359999977,0.5109081999999034,0.5943022999999812,1.711475999999493,1.7948390999999901,,,,,ashley_3,001,2020_Feb_12_1041,posner,3.1.5,60.0030481549177,
0.5,180,1,right,2,4,0,0,0,0,7,0,56,5,,,,,,,,,145.3686703000003,145.8681243000001,146.58498700000018,None,145.8847421999999,146.5682284000004,147.0851021999997,None,right,1,0.28745530000014696,147.0851021999997,None,None,,145.8847421999999,147.06843029999982,0.5108835999999428,0.5941246000002138,1.711173300000155,1.7944777000002432,,,,,ashley_3,001,2020_Feb_12_1041,posner,3.1.5,60.0030481549177,
-0.5,0,1,left,1,3,0,0,0,0,7,1,57,2,,,,,,,,,147.40220539999973,147.90208100000018,148.61893450000025,None,147.91869179999958,148.6020884999998,149.1191534999998,None,left,1,0.30135669999981474,149.1191534999998,None,None,,147.91869179999958,149.1022525999997,0.5114211000000068,0.5948388999995586,1.711594000000332,1.7952421999998478,,,,,ashley_3,001,2020_Feb_12_1041,posner,3.1.5,60.0030481549177,
-0.5,0,1,left,1,3,0,0,0,0,7,2,58,1,,,,,,,,,149.43694380000034,149.93598079999992,150.65275719999954,None,149.95247089999975,150.63630300000023,151.15283329999966,None,left,1,0.3476467999998931,151.15283329999966,None,None,,149.95247089999975,151.13626190000014,0.5109650000003967,0.5944596999997884,1.7112388000005012,1.7947892000001957,,,,,ashley_3,001,2020_Feb_12_1041,posner,3.1.5,60.0030481549177,
0.5,180,1,right,2,4,0,0,0,0,7,3,59,6,,,,,,,,,151.52053669999987,152.02009590000034,152.7367561000001,None,152.0366280999997,152.72027869999965,153.23703599999953,None,right,1,0.31189329999961046,153.23703599999953,None,None,,152.0366280999997,153.22032659999968,0.5111431999994238,0.5943270999996457,1.71136370000022,1.794604900000195,,,,,ashley_3,001,2020_Feb_12_1041,posner,3.1.5,60.0030481549177,
-0.5,0,1,left,1,3,0,0,0,0,7,4,60,0,,,,,,,,,153.57133729999987,154.07064280000031,154.78763660000004,None,154.08725640000011,154.77075309999964,155.2875194999997,None,left,1,0.269002900000487,155.2875194999997,None,None,,154.08725640000011,155.27112320000015,0.511005300000761,0.5943509000007907,1.7114645000001474,1.79459610000049,,,,,ashley_3,001,2020_Feb_12_1041,posner,3.1.5,60.0030481549177,
0.5,0,0,right,1,4,0,0,0,0,7,5,61,3,,,,,,,,,155.58829739999965,156.08787490000032,156.80479110000033,None,156.10460520000015,156.78812500000004,157.30487259999973,None,right,1,0.3078820999999152,157.30487259999973,None,None,,156.10460520000015,157.2882394999997,0.510941599999569,0.5941816999993534,1.711285599999428,1.794494400000076,,,,,ashley_3,001,2020_Feb_12_1041,posner,3.1.5,60.0030481549177,
0.5,180,1,right,2,4,0,0,0,0,7,6,62,7,,,,,,,,,157.63907719999952,158.13871149999977,158.85546129999966,None,158.15512990000025,158.83887440000035,159.3556054999999,None,right,1,0.40891069999997853,159.3556054999999,None,None,,158.15512990000025,159.33912380000038,0.5115391999997883,0.5946413000001485,1.7119400999999925,1.7949685000003228,,,,,ashley_3,001,2020_Feb_12_1041,posner,3.1.5,60.0030481549177,
-0.5,180,0,left,2,3,0,0,0,0,7,7,63,4,,,,,,,,,159.78970329999993,160.2892740999996,161.00601449999976,None,160.30595749999975,160.98950510000031,161.50627859999986,None,right,0,0.3223148000006404,161.50627859999986,None,None,,160.30595749999975,161.48949509999966,0.5112343000000692,0.5943860999996105,1.7114433999995526,1.7947359999998298,,,,,ashley_3,001,2020_Feb_12_1041,posner,3.1.5,60.0030481549177,
0.5,180,1,right,2,4,0,0,0,0,8,0,64,6,,,,,,,,,161.8572205999999,162.35634839999966,163.0733811,None,162.37311390000013,163.0567675000002,163.5734966,None,right,1,0.31107320000046457,163.5734966,None,None,,162.37311390000013,163.5569827999998,0.5108231000003798,0.5942828000006557,1.7114320999999109,1.7947055000004184,,,,,ashley_3,001,2020_Feb_12_1041,posner,3.1.5,60.0030481549177,
-0.5,0,1,left,1,3,0,0,0,0,8,1,65,0,,,,,,,,,163.90812540000024,164.40678360000038,165.12389319999966,None,164.42381409999962,165.10745260000022,165.62415220000003,None,left,1,0.4203211000003648,165.62415220000003,None,None,,164.42381409999962,165.60758840000017,0.5106662000007418,0.5944557000002533,1.7114322000006723,1.794730000000527,,,,,ashley_3,001,2020_Feb_12_1041,posner,3.1.5,60.0030481549177,
-0.5,0,1,left,1,3,0,0,0,0,8,2,66,2,,,,,,,,,166.07523289999972,166.57433010000022,167.29135899999983,None,166.59110640000017,167.27457690000028,167.79137530000025,None,left,1,0.4454585000003135,167.79137530000025,None,None,,166.59110640000017,167.77476579999984,0.5110115999996196,0.5945111999999426,1.7113945000000967,1.7948833999998897,,,,,ashley_3,001,2020_Feb_12_1041,posner,3.1.5,60.0030481549177,
-0.5,180,0,left,2,3,0,0,0,0,8,3,67,4,,,,,,,,,168.25945179999962,168.75837030000002,169.47555180000018,None,168.77538410000034,169.45875530000012,169.97560739999972,170.4593004999997,left,1,0.6369007000002966,169.97560739999972,None,None,,168.77538410000034,169.9588431000002,0.5108138000005056,0.594139499999983,1.7112716000001456,1.7945012999998653,,,,,ashley_3,001,2020_Feb_12_1041,posner,3.1.5,60.0030481549177,
0.5,180,1,right,2,4,0,0,0,0,8,4,68,7,,,,,,,,,170.64341779999995,171.1424810999997,171.85949429999982,None,171.1593627000002,171.84276659999978,172.35963970000012,None,right,1,0.2848154000002978,172.35963970000012,None,None,,171.1593627000002,172.34283219999998,0.5108904999997321,0.5942715000001044,1.711218800000097,1.794616799999858,,,,,ashley_3,001,2020_Feb_12_1041,posner,3.1.5,60.0030481549177,
-0.5,0,1,left,1,3,0,0,0,0,8,5,69,1,,,,,,,,,172.6601069999997,173.15994039999987,173.87680339999952,None,173.17667700000038,173.86004930000036,174.37695929999973,None,left,1,0.3156163000003289,174.37695929999973,None,None,,173.17667700000038,174.36038159999953,0.5117345999997269,0.594805599999745,1.7121618999999555,1.7953581000001577,,,,,ashley_3,001,2020_Feb_12_1041,posner,3.1.5,60.0030481549177,
0.5,0,0,right,1,4,0,0,0,0,8,6,70,3,,,,,,,,,174.71119629999976,175.2105432999997,175.9272880999997,None,175.22714629999973,175.91086919999998,176.42749230000027,None,right,1,0.4010636000002705,176.42749230000027,None,None,,175.22714629999973,176.4109199000004,0.5110088999999789,0.5941623999997319,1.7113730000000942,1.7945611000004646,,,,,ashley_3,001,2020_Feb_12_1041,posner,3.1.5,60.0030481549177,
0.5,180,1,right,2,4,0,0,0,0,8,7,71,5,,,,,,,,,176.84533439999996,177.34429100000034,178.06129750000036,None,177.36118400000032,178.0447035999996,178.56149780000032,179.04502739999953,right,1,0.4989968999998382,178.56149780000032,None,None,,177.36118400000032,178.54501679999976,0.511026000000129,0.5946216000002096,1.711733600000116,1.7949726000006194,,,,,ashley_3,001,2020_Feb_12_1041,posner,3.1.5,60.0030481549177,
0.5,180,1,right,2,4,0,0,0,0,9,0,72,6,,,,,,,,,179.07920019999983,179.57862320000004,180.2954394999997,None,179.59519339999952,180.27890339999976,180.79569209999954,None,right,1,0.34506640000017796,180.79569209999954,None,None,,179.59519339999952,180.7789617999997,0.5110980999997992,0.5941501999996035,1.711420900000121,1.7945960999995805,,,,,ashley_3,001,2020_Feb_12_1041,posner,3.1.5,60.0030481549177,
-0.5,0,1,left,1,3,0,0,0,0,9,1,73,0,,,,,,,,,181.1637399000001,181.6623851000004,182.37949839999965,None,181.67917089999992,182.36269639999955,182.87943160000032,None,left,1,0.2689993999993021,182.87943160000032,None,None,,181.67917089999992,182.86284629999955,0.5105788000000757,0.593992199999775,1.711016600000221,1.7943990000003396,,,,,ashley_3,001,2020_Feb_12_1041,posner,3.1.5,60.0030481549177,
0.5,180,1,right,2,4,0,0,0,0,9,2,74,5,,,,,,,,,183.18006719999994,183.67975300000035,184.39668619999975,None,183.69643519999954,184.38010010000016,184.8968272000002,None,right,1,0.4435628999999608,184.8968272000002,None,None,,183.69643519999954,184.880177,0.5112871999999697,0.5945668000003934,1.7116831000003003,1.7949144000003798,,,,,ashley_3,001,2020_Feb_12_1041,posner,3.1.5,60.0030481549177,
-0.5,180,0,left,2,3,0,0,0,0,9,3,75,4,,,,,,,,,185.36460269999952,185.8636706999996,186.58055849999982,None,185.88053609999952,186.56392589999996,187.08082620000005,None,left,1,0.2997189999996408,187.08082620000005,None,None,,185.88053609999952,187.0641972000003,0.5107742000000144,0.5942537000000812,1.7112834999998086,1.794597099999919,,,,,ashley_3,001,2020_Feb_12_1041,posner,3.1.5,60.0030481549177,
-0.5,0,1,left,1,3,0,0,0,0,9,4,76,1,,,,,,,,,187.3985888999996,187.89764230000037,188.61479239999971,None,187.9148140999996,188.59793439999976,189.11471419999998,189.59825,left,1,0.4738210000004983,189.11471419999998,None,None,,187.9148140999996,189.09823750000032,0.5106925000000047,0.5939773000000059,1.7112636000001658,1.7944612999999663,,,,,ashley_3,001,2020_Feb_12_1041,posner,3.1.5,60.0030481549177,
0.5,0,0,right,1,4,0,0,0,0,9,5,77,3,,,,,,,,,189.61531240000022,190.1152320000001,190.83193909999954,None,190.13162360000024,190.8152442999999,191.3321020000003,None,right,1,0.3203176999995776,191.3321020000003,None,None,,190.13162360000024,191.31557629999952,0.5119933000005403,0.5952747000001182,1.7123084000004383,1.795514500000536,,,,,ashley_3,001,2020_Feb_12_1041,posner,3.1.5,60.0030481549177,
-0.5,0,1,left,1,3,0,0,0,0,9,6,78,2,,,,,,,,,191.6829733000004,192.18231749999995,192.89939659999982,None,192.19912289999957,192.8824880000002,193.3994961999997,193.88277149999976,left,1,0.4928356000000349,193.3994961999997,None,None,,192.19912289999957,193.38264900000013,0.5108946999998807,0.5944116999999096,1.7112052000002222,1.7948569000000134,,,,,ashley_3,001,2020_Feb_12_1041,posner,3.1.5,60.0030481549177,
0.5,180,1,right,2,4,0,0,0,0,9,7,79,7,,,,,,,,,193.91722420000042,194.4163650999999,195.13325759999952,None,194.43308609999985,195.11667860000034,195.63341010000022,None,right,1,0.40306950000012876,195.63341010000022,None,None,,194.43308609999985,195.61685750000015,0.5108317999993233,0.5943070999992415,1.7113111999997273,1.7946465999993961,,,,,ashley_3,001,2020_Feb_12_1041,posner,3.1.5,60.0030481549177,
0.5,180,1,right,2,4,0,0,0,0,10,0,80,6,,,,,,,,,196.06765199999973,196.56721219999963,197.28398480000033,None,196.5836462999996,197.26734510000006,197.78404369999953,None,right,1,0.380480599999828,197.78404369999953,None,None,,196.5836462999996,197.76743780000015,0.5110825000001569,0.5942998000000443,1.7112960000004023,1.7946487000008347,,,,,ashley_3,001,2020_Feb_12_1041,posner,3.1.5,60.0030481549177,
0.5,0,0,right,1,4,0,0,0,0,10,1,81,3,,,,,,,,,198.18504089999988,198.6842727000003,199.40124560000004,None,198.7010424,199.3845265,199.9014857000002,200.38513009999951,right,1,0.5429409999997006,199.9014857000002,None,None,,198.7010424,199.8847754999997,0.5112342000002172,0.5947382000003927,1.7117170000001352,1.7952226999996128,,,,,ashley_3,001,2020_Feb_12_1041,posner,3.1.5,60.0030481549177,
-0.5,180,0,left,2,3,0,0,0,0,10,2,82,4,,,,,,,,,200.46921600000042,200.9685215999998,201.6853583000002,None,200.98514259999956,201.66871999999967,202.18559660000028,None,left,1,0.4588798999993742,202.18559660000028,None,None,,200.98514259999956,202.1689991000003,0.5111780999995972,0.5942577999994683,1.711637299999893,1.7946972999998252,,,,,ashley_3,001,2020_Feb_12_1041,posner,3.1.5,60.0030481549177,
-0.5,0,1,left,1,3,0,0,0,0,10,3,83,2,,,,,,,,,202.66984880000018,203.1692922000002,203.88605869999992,None,203.18584199999987,203.86955750000016,204.38609009999982,202.66984880000018,left,1,0.2422692999998617,204.38609009999982,None,None,,203.18584199999987,204.36969990000034,0.5113575999994282,0.5945581999994829,1.7117404999999053,1.7946784999994634,,,,,ashley_3,001,2020_Feb_12_1041,posner,3.1.5,60.0030481549177,
-0.5,0,1,left,1,3,0,0,0,0,10,4,84,1,,,,,,,,,204.65357459999996,205.15286949999972,205.86989859999994,None,205.1697763000002,205.85327119999965,206.37031860000025,None,left,1,0.4340523000000758,206.37031860000025,None,None,,205.1697763000002,206.35336910000024,0.5110220999995363,0.5944763999996212,1.711504399999285,1.7948714999993172,,,,,ashley_3,001,2020_Feb_12_1041,posner,3.1.5,60.0030481549177,
-0.5,0,1,left,1,3,0,0,0,0,10,5,85,0,,,,,,,,,206.82096720000027,207.32053540000015,208.03725649999978,None,207.33727960000033,208.0207547,208.5374856999997,None,left,1,0.41094780000003084,208.5374856999997,None,None,,207.33727960000033,208.5208319000003,0.5111975999998322,0.5942885000004026,1.7114753000005294,1.7947331000004851,,,,,ashley_3,001,2020_Feb_12_1041,posner,3.1.5,60.0030481549177,
0.5,180,1,right,2,4,0,0,0,0,10,6,86,5,,,,,,,,,208.97189009999965,209.47117049999997,210.1880983000001,None,209.48762699999952,210.17118089999985,210.68816040000002,None,right,1,0.38030559999970137,210.68816040000002,None,None,,209.48762699999952,210.6712889999999,0.5111410999998043,0.5943688999996084,1.71125099999972,1.794732099999237,,,,,ashley_3,001,2020_Feb_12_1041,posner,3.1.5,60.0030481549177,
0.5,180,1,right,2,4,0,0,0,0,10,7,87,7,,,,,,,,,211.08918240000003,211.58840549999968,212.3052574000003,None,211.60520449999967,212.2886552,212.80541569999968,None,right,1,0.415023000000474,212.80541569999968,None,None,,211.60520449999967,212.78873659999954,0.5111333999993803,0.5943263999997725,1.7114483999994263,1.794870699999592,,,,,ashley_3,001,2020_Feb_12_1041,posner,3.1.5,60.0030481549177,
,,,,,,0,0,0,0,,,,,,,,,,,,,,,,,,,,,,,,,,,,,,,,,,213.23913710000033,None,1.7999999727180693e-05,0.9954325999997309,ashley_3,001,2020_Feb_12_1041,posner,3.1.5,60.0030481549177,
0.5,180,1,right,2,4,1,0,1,0,0,0,0,6,1.1699999959091656e-05,0.09783539999989443,274.2578416999995,None,1.5700000403739978e-05,0.09753340000042954,276.35856239999976,None,276.6335349000001,277.14179369999965,277.8421914999999,None,277.14179369999965,277.8421914999999,278.34227569999985,None,right,1,0.32596319999993284,278.34227569999985,None,right,0.7424174999996467,277.14179369999965,278.34227569999985,0.5014187999995556,0.6014705999996295,1.7016672999998264,1.8016948999993474,,,,,ashley_3,001,2020_Feb_12_1041,posner,3.1.5,60.0030481549177,
-0.5,0,1,left,1,3,1,0,1,0,0,1,1,0,,,,,,,,,278.69328680000035,279.1924826000004,279.90946780000013,None,279.20938659999956,279.89273070000036,280.40995029999976,None,left,1,0.37031279999973776,280.40995029999976,None,None,,279.20938659999956,280.39296379999996,0.5099410000002536,0.5934462000004714,1.7104029000001901,1.7938418000003367,,,,,ashley_3,001,2020_Feb_12_1041,posner,3.1.5,60.0030481549177,
0.5,180,1,right,2,4,1,0,1,0,0,2,2,5,,,,,,,,,280.8102802000003,281.31016850000015,282.02682860000004,None,281.32666749999953,282.01011240000025,282.52704559999984,None,right,1,0.30918759999985923,282.52704559999984,None,None,,281.32666749999953,282.5103065000003,0.5114527000005182,0.5945767000002888,1.7115836000002673,1.7948440999998638,,,,,ashley_3,001,2020_Feb_12_1041,posner,3.1.5,60.0030481549177,
-0.5,0,1,left,1,3,1,0,1,0,0,3,3,1,,,,,,,,,282.8613164999997,283.36066819999996,284.07741669999996,None,283.37715819999994,284.0608271000001,284.5776126999999,None,left,1,0.28265169999940554,284.5776126999999,None,None,,283.37715819999994,284.5612110000002,0.5110428999996657,0.5941990999999689,1.7115698999996312,1.7946887999996761,,,,,ashley_3,001,2020_Feb_12_1041,posner,3.1.5,60.0030481549177,
-0.5,0,1,left,1,3,1,0,1,0,0,4,4,2,,,,,,,,,284.8789628000004,285.3776919000002,286.0948484999999,None,285.39465800000016,286.0780513999998,286.5949320999998,None,left,1,0.39330619999964256,286.5949320999998,None,None,,285.39465800000016,286.57842340000025,0.5106894000000466,0.5941690999998173,1.7114025000000765,1.7944681999997556,,,,,ashley_3,001,2020_Feb_12_1041,posner,3.1.5,60.0030481549177,
0.5,180,1,right,2,4,1,0,1,0,0,5,5,7,,,,,,,,,287.01205759999993,287.51168189999953,288.2288987000002,None,287.52853440000035,288.2118940999999,288.7290274999996,None,right,1,0.30710759999965376,288.7290274999996,None,None,,287.52853440000035,288.71213929999976,0.5113368000002083,0.594977700000527,1.7117742000000362,1.795332800000324,,,,,ashley_3,001,2020_Feb_12_1041,posner,3.1.5,60.0030481549177,
0.5,0,0,right,1,4,1,0,1,0,0,6,6,3,,,,,,,,,289.06372699999974,289.56245370000033,290.27947099999983,None,289.5792775,290.2625988,290.7795763000004,None,left,0,0.18452179999985674,290.7795763000004,None,None,,289.5792775,290.7627719000002,0.5108136999997441,0.5941725000002407,1.7111098999994283,1.7944879999995464,,,,,ashley_3,001,2020_Feb_12_1041,posner,3.1.5,60.0030481549177,
-0.5,180,0,left,2,3,1,0,1,0,0,7,7,4,,,,,,,,,290.9803401999998,291.4798486999998,292.19670640000004,None,291.4964903,292.18001900000036,292.69683819999955,None,left,1,0.37119819999952597,292.69683819999955,None,None,,291.4964903,292.6801161000003,0.5111757999993642,0.5943068999995376,1.7114320999999109,1.794833899999503,,,,,ashley_3,001,2020_Feb_12_1041,posner,3.1.5,60.0030481549177,
-0.5,0,1,left,1,3,1,0,1,0,1,0,8,2,,,,,,,,,293.0978869999999,293.5971755999999,294.31395950000024,None,293.6136673000001,294.2974344000004,294.8141021000001,None,left,1,0.33395999999993364,294.8141021000001,None,None,,293.6136673000001,294.7975429999997,0.5109732999999324,0.5942219999997178,1.7113240999997288,1.7946354000005158,,,,,ashley_3,001,2020_Feb_12_1041,posner,3.1.5,60.0030481549177,
0.5,0,0,right,1,4,1,0,1,0,1,1,9,3,,,,,,,,,295.1655275000003,295.6643987999996,296.3812619,None,295.68096479999986,296.3645961000002,296.8812436999997,None,right,1,0.39496580000013637,296.8812436999997,None,None,,295.68096479999986,296.8650484,0.5110345000002781,0.5945363999999245,1.7116463000002113,1.7947315000001254,,,,,ashley_3,001,2020_Feb_12_1041,posner,3.1.5,60.0030481549177,
0.5,180,1,right,2,4,1,0,1,0,1,2,10,5,,,,,,,,,297.29913510000006,297.79846689999977,298.51534170000014,None,297.8151362999997,298.49863879999975,299.0156046000002,None,right,1,0.3644567999999708,299.0156046000002,None,None,,297.8151362999997,298.99889600000006,0.511160199999722,0.5942307000004803,1.7115718000004563,1.7947764000000461,,,,,ashley_3,001,2020_Feb_12_1041,posner,3.1.5,60.0030481549177,
0.5,180,1,right,2,4,1,0,1,0,1,3,11,7,,,,,,,,,299.3996393999996,299.8991963999997,300.61609620000036,None,299.9159260999995,300.59940279999955,301.1161801999997,None,right,1,0.3519835000006424,301.1161801999997,None,None,,299.9159260999995,301.09946880000007,0.5113111000000572,0.5946008999999322,1.7115704999996524,1.7948645999995279,,,,,ashley_3,001,2020_Feb_12_1041,posner,3.1.5,60.0030481549177,
-0.5,0,1,left,1,3,1,0,1,0,1,4,12,0,,,,,,,,,301.48396930000035,301.9828656999998,302.6999452,None,301.9996965,302.6832899000001,303.20012450000013,None,left,1,0.3000984000000244,303.20012450000013,None,None,,301.9996965,303.18334179999965,0.5108460000001287,0.5942466999995304,1.711253399999805,1.7947745999999825,,,,,ashley_3,001,2020_Feb_12_1041,posner,3.1.5,60.0030481549177,
0.5,180,1,right,2,4,1,0,1,0,1,5,13,6,,,,,,,,,303.5173120999998,304.0170597999995,304.7337696000004,None,304.03361459999996,304.7173306000004,305.23389270000007,None,right,1,0.3222778000008475,305.23389270000007,None,None,,304.03361459999996,305.21759569999995,0.5114483000006658,0.5947599999999511,1.711961599999995,1.7950755000001664,,,,,ashley_3,001,2020_Feb_12_1041,posner,3.1.5,60.0030481549177,
-0.5,0,1,left,1,3,1,0,1,0,1,6,14,1,,,,,,,,,305.5851200999996,306.08417550000013,306.80108500000006,None,306.10106480000013,306.78463459999966,307.30143150000004,None,left,1,0.390602299999955,307.30143150000004,None,None,,306.10106480000013,307.28479289999996,0.5109542999998666,0.5943810999997368,1.7115417999993952,1.794728099999702,,,,,ashley_3,001,2020_Feb_12_1041,posner,3.1.5,60.0030481549177,
-0.5,180,0,left,2,3,1,0,1,0,1,7,15,4,,,,,,,,,307.71915530000024,308.2183203000004,308.93537670000023,None,308.23503230000006,308.9186189000002,309.43551800000023,None,left,1,0.40073630000006233,309.43551800000023,None,None,,308.23503230000006,309.4187429000003,0.5110525000000052,0.5942890999995143,1.711464199999682,1.7948195999997552,,,,,ashley_3,001,2020_Feb_12_1041,posner,3.1.5,60.0030481549177,
-0.5,0,1,left,1,3,1,0,1,0,2,0,16,0,,,,,,,,,309.8531850999998,310.3521560999998,311.06920249999985,None,310.3690204000004,311.05245660000037,311.5696342000001,None,left,1,0.3785093999995297,311.5696342000001,None,None,,310.3690204000004,311.5526461999998,0.510690699999941,0.5942855000002965,1.7111662000006618,1.7945575000003373,,,,,ashley_3,001,2020_Feb_12_1041,posner,3.1.5,60.0030481549177,
-0.5,0,1,left,1,3,1,0,1,0,2,1,17,1,,,,,,,,,311.97056969999994,312.46993459999976,313.1864558999996,None,312.48620180000034,313.17006870000023,313.68674850000025,None,left,1,0.4293563000001086,313.68674850000025,None,None,,312.48620180000034,313.6701022999996,0.5110494999998991,0.5940125000006446,1.7112028999999893,1.7943685000000187,,,,,ashley_3,001,2020_Feb_12_1041,posner,3.1.5,60.0030481549177,
0.5,0,0,right,1,4,1,0,1,0,2,2,18,3,,,,,,,,,314.1376035000003,314.63699629999974,315.3538271999996,None,314.6534651000002,315.3373603,315.85382839999966,316.3378614000003,right,1,0.48616709999987506,315.85382839999966,None,None,,314.6534651000002,315.8374109999995,0.5112951999999495,0.5946854000003441,1.7116857000000891,1.7948914999997214,,,,,ashley_3,001,2020_Feb_12_1041,posner,3.1.5,60.0030481549177,
0.5,180,1,right,2,4,1,0,1,0,2,3,19,5,,,,,,,,,316.3718036,316.8709964999998,317.5878966999999,None,316.8874929000003,317.57101969999985,318.08805349999966,None,right,1,0.3001574999998411,318.08805349999966,None,None,,316.8874929000003,318.07114490000004,0.5108769999997094,0.594347000000198,1.711008700000093,1.794731399999364,,,,,ashley_3,001,2020_Feb_12_1041,posner,3.1.5,60.0030481549177,
-0.5,0,1,left,1,3,1,0,1,0,2,4,20,2,,,,,,,,,318.4058063000002,318.90518580000025,319.62174380000033,None,318.92148069999985,319.6053372999995,320.12194459999955,None,left,1,0.36211760000060167,320.12194459999955,None,None,,318.92148069999985,320.1052716000004,0.5110036000005493,0.5942082999999911,1.711073800000122,1.7949748999999429,,,,,ashley_3,001,2020_Feb_12_1041,posner,3.1.5,60.0030481549177,
0.5,180,1,right,2,4,1,0,1,0,2,5,21,6,,,,,,,,,320.5069752999998,321.0055765999996,321.72234469999967,None,321.02211929999976,321.7058797999998,322.2225502000001,None,right,1,0.33361039999999775,322.2225502000001,None,None,,321.02211929999976,322.2059040000004,0.5108595000001515,0.5943987000000561,1.7111641999999847,1.794671799999378,,,,,ashley_3,001,2020_Feb_12_1041,posner,3.1.5,60.0030481549177,
-0.5,180,0,left,2,3,1,0,1,0,2,6,22,4,,,,,,,,,322.57352679999985,323.0728041000002,323.7897065999996,None,323.0896190000003,323.7729969000002,324.28987849999976,None,left,1,0.41811479999978474,324.28987849999976,None,None,,323.0896190000003,324.27321719999964,0.511347100000421,0.5946991999999227,1.7117365000003701,1.7952175000000352,,,,,ashley_3,001,2020_Feb_12_1041,posner,3.1.5,60.0030481549177,
0.5,180,1,right,2,4,1,0,1,0,2,7,23,7,,,,,,,,,324.7242087000004,325.22338969999964,325.9406349000001,None,325.2403654999998,325.9237224999997,326.4405192000004,None,right,1,0.3635364000001573,326.4405192000004,None,None,,325.2403654999998,326.4238728999999,0.510972899999615,0.594477900000129,1.7114756000000853,1.794895600000018,,,,,ashley_3,001,2020_Feb_12_1041,posner,3.1.5,60.0030481549177,
-0.5,0,1,left,1,3,1,0,1,0,3,0,24,1,,,,,,,,,326.82537950000005,327.3240949000001,328.04111920000014,None,327.3410130000002,328.02440990000014,328.54113340000004,329.02479829999993,left,1,0.47086440000020957,328.54113340000004,None,None,,327.3410130000002,328.5243569000004,0.5107335000002422,0.5941910999999891,1.7109399999999368,1.7947101999998267,,,,,ashley_3,001,2020_Feb_12_1041,posner,3.1.5,60.0030481549177,
-0.5,180,0,left,2,3,1,0,1,0,3,1,25,4,,,,,,,,,329.0416531000001,329.54145849999986,330.25851260000036,None,329.55814199999986,330.2416783999997,330.7587259000002,331.24196550000033,left,1,0.49332680000043183,330.7587259000002,None,None,,329.55814199999986,330.7417261999999,0.5114177000004929,0.5948758000004091,1.7116670000004888,1.795392300000458,,,,,ashley_3,001,2020_Feb_12_1041,posner,3.1.5,60.0030481549177,
0.5,180,1,right,2,4,1,0,1,0,3,2,26,7,,,,,,,,,331.2764181000002,331.7755562000002,332.49232329999995,None,331.7922091999999,332.4758902000003,332.99257690000013,None,right,1,0.43543640000007144,332.99257690000013,None,None,,331.7922091999999,332.9760844000002,0.5107822999998461,0.5941809999994803,1.711287999999513,1.7945592999994915,,,,,ashley_3,001,2020_Feb_12_1041,posner,3.1.5,60.0030481549177,
0.5,180,1,right,2,4,1,0,1,0,3,3,27,6,,,,,,,,,333.44376939999984,333.94288549999965,334.6599016,None,333.9597673999997,334.6430763999997,335.1599180000003,335.64340600000014,right,1,0.47608930000023975,335.1599180000003,None,None,,333.9597673999997,335.1431510000002,0.5109533000004376,0.5943853999997373,1.7112001000004966,1.7947769000002154,,,,,ashley_3,001,2020_Feb_12_1041,posner,3.1.5,60.0030481549177,
-0.5,0,1,left,1,3,1,0,1,0,3,4,28,2,,,,,,,,,335.66093060000003,336.1602974999996,336.87712509999983,None,336.1770710999999,336.8604415,337.37727730000006,337.86093100000016,left,1,0.48282860000017536,337.37727730000006,None,None,,336.1770710999999,337.36083189999954,0.5110972000002221,0.5943144000002576,1.7116101000001436,1.7950958999999784,,,,,ashley_3,001,2020_Feb_12_1041,posner,3.1.5,60.0030481549177,
-0.5,0,1,left,1,3,1,0,1,0,3,5,29,0,,,,,,,,,337.8779949999998,338.3777866999999,339.0946537,None,338.3944852000004,339.07775609999953,339.5946533999995,None,left,1,0.34539779999977327,339.5946533999995,None,None,,338.3944852000004,339.5780150999999,0.511739900000066,0.5947371000002022,1.7119510000002265,1.795247400000335,,,,,ashley_3,001,2020_Feb_12_1041,posner,3.1.5,60.0030481549177,
0.5,0,0,right,1,4,1,0,1,0,3,6,30,3,,,,,,,,,339.9626853,340.4614462999998,341.1784074999996,None,340.47842729999957,341.16172819999974,341.6787403999997,342.16203359999963,right,1,0.5092408000000432,341.6787403999997,None,None,,340.47842729999957,341.66191100000015,0.5106239000006099,0.5943543000003046,1.7110764999997627,1.7944412000006196,,,,,ashley_3,001,2020_Feb_12_1041,posner,3.1.5,60.0030481549177,
0.5,180,1,right,2,4,1,0,1,0,3,7,31,5,,,,,,,,,342.21302839999953,342.71224280000024,343.4291217,None,342.72919550000006,343.4124128000003,343.92947809999987,344.41273639999963,right,1,0.4986498999996911,343.92947809999987,None,None,,342.72919550000006,343.91253849999976,0.5111075000004348,0.5944915000000037,1.7113835000000108,1.794904399999723,,,,,ashley_3,001,2020_Feb_12_1041,posner,3.1.5,60.0030481549177,
0.5,180,1,right,2,4,1,0,1,0,4,0,32,6,,,,,,,,,344.4471746999998,344.94632639999963,345.6630876999998,None,344.96295310000005,345.6462429000003,346.1632189000002,346.64690770000016,right,1,0.6087317999999868,346.1632189000002,None,None,,344.96295310000005,346.14676529999997,0.5107823999996981,0.5942060999996102,1.71120879999944,1.7945206999993388,,,,,ashley_3,001,2020_Feb_12_1041,posner,3.1.5,60.0030481549177,
-0.5,0,1,left,1,3,1,0,1,0,4,1,33,2,,,,,,,,,346.7979951999996,347.29704649999985,348.0140709999996,None,347.3135824000001,347.99734739999985,348.5142122999996,None,left,1,0.36976640000011685,348.5142122999996,None,None,,347.3135824000001,348.4975037000004,0.5106002000002263,0.593906799999786,1.7110398000004352,1.7942339000001084,,,,,ashley_3,001,2020_Feb_12_1041,posner,3.1.5,60.0030481549177,
-0.5,0,1,left,1,3,1,0,1,0,4,2,34,0,,,,,,,,,348.91510219999964,349.4144335000001,350.1311238999997,None,349.4310421,350.1146365000004,350.6312538000002,351.1151173999997,left,1,0.5407026000002588,350.6312538000002,None,None,,349.4310421,350.61482160000014,0.5113489000004847,0.5943026000004465,1.711423200000354,1.7947065999996994,,,,,ashley_3,001,2020_Feb_12_1041,posner,3.1.5,60.0030481549177,
-0.5,180,0,left,2,3,1,0,1,0,4,3,35,4,,,,,,,,,351.1999969999997,351.6984395999998,352.4155946000001,None,351.7153165,352.39868990000014,352.91566369999964,None,left,1,0.408343999999488,352.91566369999964,None,None,,351.7153165,352.89895270000034,0.5104013000000123,0.5936885999999504,1.710898699999234,1.794193499999892,,,,,ashley_3,001,2020_Feb_12_1041,posner,3.1.5,60.0030481549177,
0.5,180,1,right,2,4,1,0,1,0,4,4,36,5,,,,,,,,,353.3497422999999,353.8490101999996,354.5660754999999,None,353.8657771999997,354.5492264000004,355.06615390000024,None,right,1,0.38574659999994765,355.06615390000024,None,None,,353.8657771999997,355.04948160000004,0.5109435000003941,0.5943107000002783,1.7113908000001175,1.7947291999998924,,,,,ashley_3,001,2020_Feb_12_1041,posner,3.1.5,60.0030481549177,
0.5,0,0,right,1,4,1,0,1,0,4,5,37,3,,,,,,,,,355.48384350000015,355.9830184000002,356.70002899999963,None,355.9997893999998,356.6832765999998,357.2001680000003,357.68356310000036,right,1,0.5077516000001197,357.2001680000003,None,None,,355.9997893999998,357.1834437999996,0.5109553000002052,0.5944633999997677,1.7113490000001548,1.7948477999998431,,,,,ashley_3,001,2020_Feb_12_1041,posner,3.1.5,60.0030481549177,
0.5,180,1,right,2,4,1,0,1,0,4,6,38,7,,,,,,,,,357.7348814999996,358.23375510000005,358.9507107999998,None,358.25030499999957,358.93384330000026,359.4506819999997,359.9342064000002,None,0,,359.4506819999997,None,None,,358.25030499999957,359.43415410000034,0.5108882999993511,0.5942884999994931,1.7112687999997434,1.794827499999883,,,,,ashley_3,001,2020_Feb_12_1041,posner,3.1.5,60.0030481549177,
-0.5,0,1,left,1,3,1,0,1,0,4,7,39,1,,,,,,,,,360.43432380000013,360.93481710000015,361.6514866999996,360.43432380000013,360.95117839999966,361.6350192,362.1516552000003,None,left,1,0.34045940000032715,362.1516552000003,None,None,,360.95117839999966,362.1351102999997,0.5132145999996283,0.5963224999995873,1.713499899999988,1.7967662000000928,,,,,ashley_3,001,2020_Feb_12_1041,posner,3.1.5,60.0030481549177,
0.5,180,1,right,2,4,1,0,1,0,5,0,40,5,,,,,,,,,362.5194341999995,363.01879740000004,363.7355931000002,None,363.0352678999998,363.7189795000004,364.2357456999998,None,right,1,0.29623329999958514,364.2357456999998,None,None,,363.0352678999998,364.2190995000001,0.5113185000000158,0.5942549999999756,1.7116048999996565,1.794728099999702,,,,,ashley_3,001,2020_Feb_12_1041,posner,3.1.5,60.0030481549177,
-0.5,180,0,left,2,3,1,0,1,0,5,1,41,4,,,,,,,,,364.5535249000004,365.0525240999996,365.76969009999993,None,365.0692259999996,365.7526544000002,366.26959439999973,None,left,1,0.41443680000065797,366.26959439999973,None,None,,365.0692259999996,366.2528765999996,0.5109257000003709,0.5942731000004642,1.7112608999996155,1.7946615000000747,,,,,ashley_3,001,2020_Feb_12_1041,posner,3.1.5,60.0030481549177,
-0.5,0,1,left,1,3,1,0,1,0,5,2,42,0,,,,,,,,,366.70432830000027,367.2030940000004,367.9202293999997,None,367.21998799999983,367.9034289000001,368.4204184,None,left,1,0.4476383999999598,368.4204184,None,None,,367.21998799999983,368.40352509999957,0.5106649999997899,0.5940825999996378,1.711076800000228,1.7944955000002665,,,,,ashley_3,001,2020_Feb_12_1041,posner,3.1.5,60.0030481549177,
-0.5,0,1,left,1,3,1,0,1,0,5,3,43,2,,,,,,,,,368.8882646000002,369.3871331999999,370.1042547999996,None,369.4038191999998,370.0873822000003,370.6044044,None,left,1,0.3675869999997303,370.6044044,None,None,,369.4038191999998,370.58766920000016,0.510870299999624,0.5942936000001282,1.7113938000002236,1.7946163999995406,,,,,ashley_3,001,2020_Feb_12_1041,posner,3.1.5,60.0030481549177,
-0.5,0,1,left,1,3,1,0,1,0,5,4,44,1,,,,,,,,,370.9883412999998,371.4878587000003,372.20468449999953,None,371.5045577000001,372.1883504999996,372.70495589999973,373.18857579999985,left,1,0.5309490999998161,372.70495589999973,None,None,,371.5045577000001,372.68828099999973,0.5113060000003316,0.5946266999999352,1.7117203000007066,1.7948331000006874,,,,,ashley_3,001,2020_Feb_12_1041,posner,3.1.5,60.0030481549177,
0.5,0,0,right,1,4,1,0,1,0,5,5,45,3,,,,,,,,,373.2554713999998,373.7553390000003,374.4720132000002,None,373.7717720999999,374.45530810000037,374.9723617999998,375.45578019999994,right,1,0.6157032000000981,374.9723617999998,None,None,,373.7717720999999,374.9558949000002,0.5116711000000578,0.5954555999996956,1.7122102000002997,1.795267800000147,,,,,ashley_3,001,2020_Feb_12_1041,posner,3.1.5,60.0030481549177,
0.5,180,1,right,2,4,1,0,1,0,5,6,46,7,,,,,,,,,375.60700180000003,376.1059335,376.82273389999955,None,376.12261130000024,376.8062100999996,377.32295909999993,None,right,1,0.4330488999994486,377.32295909999993,None,None,,376.12261130000024,377.30634889999965,0.5106714000003194,0.59413080000013,1.711071400000037,1.794403699999748,,,,,ashley_3,001,2020_Feb_12_1041,posner,3.1.5,60.0030481549177,
0.5,180,1,right,2,4,1,0,1,0,5,7,47,6,,,,,,,,,377.7743840000003,378.27321630000006,378.99027490000026,None,378.28998649999994,378.9735047000004,379.4903975999996,379.97388990000036,None,0,,379.4903975999996,None,None,,378.28998649999994,379.47364879999986,0.5107732999995278,0.5943201999998564,1.7111863999998604,1.7946420999996917,,,,,ashley_3,001,2020_Feb_12_1041,posner,3.1.5,60.0030481549177,
-0.5,180,0,left,2,3,1,0,1,0,6,0,48,4,,,,,,,,,380.4739582000002,380.9742435999997,381.6909179000004,380.4739582000002,380.9908249,381.6744413999995,382.1911289999998,None,left,1,0.34888319999936357,382.1911289999998,None,None,,380.9908249,382.1745471000004,0.5130443999996714,0.5964522000003853,1.7133406000002651,1.7966551999998046,,,,,ashley_3,001,2020_Feb_12_1041,posner,3.1.5,60.0030481549177,
0.5,180,1,right,2,4,1,0,1,0,6,1,49,6,,,,,,,,,382.55898999999954,383.0582586999999,383.7750606999998,None,383.07475069999964,383.75838589999967,384.27529500000037,None,right,1,0.29666249999991123,384.27529500000037,None,None,,383.07475069999964,384.2585288999999,0.5110384999998132,0.5942286999998032,1.7112962999999581,1.7945417000000816,,,,,ashley_3,001,2020_Feb_12_1041,posner,3.1.5,60.0030481549177,
-0.5,0,1,left,1,3,1,0,1,0,6,2,50,1,,,,,,,,,384.59299759999976,385.0920133999998,385.8090166000002,None,385.10872349999954,385.79224710000017,386.30923129999974,None,left,1,0.358626500000355,386.30923129999974,None,None,,385.10872349999954,386.2925022999998,0.5107895000001008,0.5942667999997866,1.7112606999999116,1.7946650000003501,,,,,ashley_3,001,2020_Feb_12_1041,posner,3.1.5,60.0030481549177,
-0.5,0,1,left,1,3,1,0,1,0,6,3,51,2,,,,,,,,,386.69337499999983,387.1925949999995,387.9097447000004,None,387.2096273999996,387.8928007000004,388.4098756000003,None,left,1,0.33790480000061507,388.4098756000003,None,None,,387.2096273999996,388.39299159999973,0.510975199999848,0.5944409000003361,1.7113490000001548,1.7947383000000627,,,,,ashley_3,001,2020_Feb_12_1041,posner,3.1.5,60.0030481549177,
0.5,0,0,right,1,4,1,0,1,0,6,4,52,3,,,,,,,,,388.7772586000001,389.2768251999996,389.9935492000004,None,389.29327509999985,389.97710559999996,390.4937550000004,None,right,1,0.40619930000048043,390.4937550000004,None,None,,389.29327509999985,390.4770298000003,0.5111652000005051,0.5945922999999311,1.7113595999999234,1.7948778999998467,,,,,ashley_3,001,2020_Feb_12_1041,posner,3.1.5,60.0030481549177,
-0.5,0,1,left,1,3,1,0,1,0,6,5,53,0,,,,,,,,,390.9274298999999,391.4274999999998,392.14443630000005,None,391.4440883999996,392.1275734999999,392.64449309999964,None,left,1,0.3115463999993153,392.64449309999964,None,None,,391.4440883999996,392.62767239999994,0.5117090000003373,0.5948872999997548,1.7118705000002592,1.7952129000004788,,,,,ashley_3,001,2020_Feb_12_1041,posner,3.1.5,60.0030481549177,
0.5,180,1,right,2,4,1,0,1,0,6,6,54,5,,,,,,,,,392.97892109999975,393.4781273999997,394.1950423999997,None,393.4947030000003,394.17827599999964,394.69516509999994,None,left,0,0.3488462999994226,394.69516509999994,None,None,,393.4947030000003,394.67839189999995,0.5110504999993282,0.5942748999996184,1.7113038999996206,1.794614299999921,,,,,ashley_3,001,2020_Feb_12_1041,posner,3.1.5,60.0030481549177,
0.5,180,1,right,2,4,1,0,1,0,6,7,55,7,,,,,,,,,395.0632617000001,395.5618467000004,396.27913139999964,None,395.5788093000001,396.26205409999966,396.7791711,None,right,1,0.4327672999997958,396.7791711,None,None,,395.5788093000001,396.7622467000001,0.510610700000143,0.5942894999998316,1.710989499999414,1.7945621999997456,,,,,ashley_3,001,2020_Feb_12_1041,posner,3.1.5,60.0030481549177,
-0.5,0,1,left,1,3,1,0,1,0,7,0,56,2,,,,,,,,,397.23054239999965,397.7293901000003,398.44621219999954,None,397.74599920000037,398.42965300000014,398.9463274,None,left,1,0.3935744000000341,398.9463274,None,None,,397.74599920000037,398.9298193000004,0.51078249999955,0.5939565999997285,1.7111920999996073,1.7944265999994968,,,,,ashley_3,001,2020_Feb_12_1041,posner,3.1.5,60.0030481549177,
0.5,0,0,right,1,4,1,0,1,0,7,1,57,3,,,,,,,,,399.3641348000001,399.8632945999998,400.58022710000023,None,399.8800322999996,400.5635414999997,401.0803358000003,None,right,1,0.37140550000003714,401.0803358000003,None,None,,399.8800322999996,401.0637477,0.5110113999999157,0.5944537999994282,1.7114490999992995,1.794748399999662,,,,,ashley_3,001,2020_Feb_12_1041,posner,3.1.5,60.0030481549177,
0.5,180,1,right,2,4,1,0,1,0,7,2,58,7,,,,,,,,,401.48076889999993,401.98043959999995,402.69749560000037,None,401.99746270000014,402.68074009999964,403.1977207,None,right,1,0.4222250000002532,403.1977207,None,None,,401.99746270000014,403.1808719999999,0.5114447000005384,0.5951521000006323,1.711818800000401,1.7955895000004602,,,,,ashley_3,001,2020_Feb_12_1041,posner,3.1.5,60.0030481549177,
0.5,180,1,right,2,4,1,0,1,0,7,3,59,5,,,,,,,,,403.6486643999997,404.14811199999986,404.8650015000003,None,404.1647825,404.84825459999956,405.3650826000003,405.8483083000001,right,1,0.4866172000001825,405.3650826000003,None,None,,404.1647825,405.3483933999996,0.5113211999996565,0.5944440000002942,1.711586499999612,1.7950216999997792,,,,,ashley_3,001,2020_Feb_12_1041,posner,3.1.5,60.0030481549177,
0.5,180,1,right,2,4,1,0,1,0,7,4,60,6,,,,,,,,,405.88213799999994,406.38187089999974,407.0988625,None,406.3986772999997,407.08211440000014,407.59902599999987,None,right,1,0.3729105000002164,407.59902599999987,None,None,,406.3986772999997,407.58225089999996,0.5109479000002466,0.5946116000004622,1.7113091000001077,1.7948909000006097,,,,,ashley_3,001,2020_Feb_12_1041,posner,3.1.5,60.0030481549177,
-0.5,180,0,left,2,3,1,0,1,0,7,5,61,4,,,,,,,,,408.0001586999997,408.49949620000007,409.2163188000004,None,408.51607950000016,409.1996127000002,409.71641290000025,None,left,1,0.4154797999999573,409.71641290000025,None,None,,408.51607950000016,409.6998540000004,0.5110744000003251,0.5941430000002583,1.7114166000001205,1.7944707999995444,,,,,ashley_3,001,2020_Feb_12_1041,posner,3.1.5,60.0030481549177,
-0.5,0,1,left,1,3,1,0,1,0,7,6,62,1,,,,,,,,,410.1509821999998,410.65000690000034,411.3669186999996,None,410.6667309000004,411.3501583999996,411.86707860000024,412.3504320000002,left,1,0.7605914999994638,411.86707860000024,None,None,,410.6667309000004,411.8503966999997,0.5109180999997989,0.5942704999997659,1.7112926999998308,1.7946376999998392,,,,,ashley_3,001,2020_Feb_12_1041,posner,3.1.5,60.0030481549177,
-0.5,0,1,left,1,3,1,0,1,0,7,7,63,0,,,,,,,,,412.6515556000004,413.15058580000004,413.86772440000004,None,413.1676202999997,413.85085530000015,414.36790089999977,414.8511142999996,left,1,0.4998979000001782,414.36790089999977,None,None,,413.1676202999997,414.3511196999998,0.5110751000001983,0.5946469000000434,1.711590800000522,1.7948618000000351,,,,,ashley_3,001,2020_Feb_12_1041,posner,3.1.5,60.0030481549177,
0.5,180,1,right,2,4,1,0,1,0,8,0,64,5,,,,,,,,,414.8856689000004,415.38497860000007,416.10152149999976,None,415.4013751000002,416.08504079999966,416.60173419999956,None,right,1,0.44211730000006355,416.60173419999956,None,None,,415.4013751000002,416.5851088999998,0.5109179999999469,0.5940385000003516,1.7110324000004766,1.7946030000002793,,,,,ashley_3,001,2020_Feb_12_1041,posner,3.1.5,60.0030481549177,
0.5,180,1,right,2,4,1,0,1,0,8,1,65,6,,,,,,,,,417.06941000000006,417.56900440000027,418.2856926000004,None,417.5853758000003,418.26914399999987,418.7857653000001,None,right,1,0.35402700000031473,418.7857653000001,None,None,,417.5853758000003,418.7692466999997,0.5113674000003812,0.5944506000005276,1.7115952000003745,1.7948449000004985,,,,,ashley_3,001,2020_Feb_12_1041,posner,3.1.5,60.0030481549177,
-0.5,0,1,left,1,3,1,0,1,0,8,2,66,2,,,,,,,,,419.16981880000003,419.6696466000003,420.38637240000025,None,419.68620480000027,420.36980440000025,420.8865542000003,421.37007040000026,left,1,0.5492650000005597,420.8865542000003,None,None,,419.68620480000027,420.8697855999999,0.5112927000000127,0.5944343999999546,1.7114203999999518,1.7948040000001129,,,,,ashley_3,001,2020_Feb_12_1041,posner,3.1.5,60.0030481549177,
-0.5,0,1,left,1,3,1,0,1,0,8,3,67,0,,,,,,,,,421.45418189999964,421.9534899,422.6703938999999,None,421.9702176999999,422.6539579999999,423.17065300000013,None,left,1,0.4011385000003429,423.17065300000013,None,None,,421.9702176999999,423.15393479999966,0.5111824000005072,0.594562300000689,1.7118596999998772,1.7950400999998237,,,,,ashley_3,001,2020_Feb_12_1041,posner,3.1.5,60.0030481549177,
0.5,180,1,right,2,4,1,0,1,0,8,4,68,7,,,,,,,,,423.58819239999957,424.08753590000015,424.80459210000026,None,424.1043135,424.7876503999996,425.3045229999998,None,right,1,0.43521980000059557,425.3045229999998,None,None,,424.1043135,425.2878985999996,0.5110580000000482,0.5942257000006066,1.7114041000004363,1.7945900000004258,,,,,ashley_3,001,2020_Feb_12_1041,posner,3.1.5,60.0030481549177,
-0.5,0,1,left,1,3,1,0,1,0,8,5,69,1,,,,,,,,,425.75567409999985,426.2549036999999,426.97155079999993,None,426.27138099999956,426.9551879999999,427.47183140000016,427.95547110000007,left,1,0.7240164999993794,427.47183140000016,None,None,,426.27138099999956,427.4551456999998,0.510895000000346,0.5944934999997713,1.7111206999998103,1.7946357999999236,,,,,ashley_3,001,2020_Feb_12_1041,posner,3.1.5,60.0030481549177,
-0.5,180,0,left,2,3,1,0,1,0,8,6,70,4,,,,,,,,,428.2233323999999,428.72225999999955,429.43932049999967,None,428.73902780000026,429.4224310999998,429.9392723000001,430.42272630000025,left,1,0.5605973000001541,429.9392723000001,None,None,,428.73902780000026,429.9225815,0.5110082999999577,0.5942445999999109,1.7113060000001497,1.7947432999999364,,,,,ashley_3,001,2020_Feb_12_1041,posner,3.1.5,60.0030481549177,
0.5,0,0,right,1,4,1,0,1,0,8,7,71,3,,,,,,,,,430.52386750000005,431.0228710000001,431.7398298999997,None,431.03969719999986,431.7231007999999,432.2400083000002,None,right,1,0.37184499999966647,432.2400083000002,None,None,,431.03969719999986,432.22332389999974,0.5107266000004529,0.594121100000848,1.7111555999999837,1.794550500000696,,,,,ashley_3,001,2020_Feb_12_1041,posner,3.1.5,60.0030481549177,
-0.5,0,1,left,1,3,1,0,1,0,9,0,72,0,,,,,,,,,432.6404384999996,433.1402675999998,433.85716969999976,None,433.1571039999999,433.8405923999999,434.3574929999995,434.8407980000002,None,0,,434.3574929999995,None,None,,433.1571039999999,434.34075479999956,0.5116689000005863,0.5952028000001519,1.712145899999996,1.7954270000000179,,,,,ashley_3,001,2020_Feb_12_1041,posner,3.1.5,60.0030481549177,
0.5,180,1,right,2,4,1,0,1,0,9,1,73,6,,,,,,,,,435.34098840000024,435.84097910000037,436.55808849999994,435.34098840000024,435.8578629000003,436.54117640000004,437.0583370000004,None,right,1,0.3853247000006377,437.0583370000004,None,None,,435.8578629000003,437.0414474999998,0.5132689000001847,0.5968849000000773,1.713723700000628,1.7974443000002793,,,,,ashley_3,001,2020_Feb_12_1041,posner,3.1.5,60.0030481549177,
-0.5,180,0,left,2,3,1,0,1,0,9,2,74,4,,,,,,,,,437.4755847999995,437.97511570000006,438.69187020000027,None,437.99182329999985,438.67544180000004,439.1920904999997,None,left,1,0.4036906999999701,439.1920904999997,None,None,,437.99182329999985,439.17556049999985,0.5109585999998671,0.5945136999998795,1.7113772000002427,1.7946202000002813,,,,,ashley_3,001,2020_Feb_12_1041,posner,3.1.5,60.0030481549177,
0.5,180,1,right,2,4,1,0,1,0,9,3,75,5,,,,,,,,,439.62641859999985,440.12580849999995,440.84261499999957,None,440.1422628999999,440.82594549999976,441.3428922000003,441.8264459000002,right,1,0.9328700999994908,441.3428922000003,None,None,,440.1422628999999,441.32629819999966,0.5109333000000333,0.5942986000000019,1.7113988999999492,1.7946584000001167,,,,,ashley_3,001,2020_Feb_12_1041,posner,3.1.5,60.0030481549177,
-0.5,0,1,left,1,3,1,0,1,0,9,4,76,1,,,,,,,,,442.2944472999998,442.7931282999998,443.5100811000002,None,442.8099232000004,443.49338780000016,444.0104639000001,None,left,1,0.4172209999996994,444.0104639000001,None,None,,442.8099232000004,443.99360700000034,0.5107613999998648,0.5943430999996053,1.7112256999998863,1.7945329999993191,,,,,ashley_3,001,2020_Feb_12_1041,posner,3.1.5,60.0030481549177,
0.5,0,0,right,1,4,1,0,1,0,9,5,77,3,,,,,,,,,444.44474509999964,444.9440160000004,445.6606936999997,None,444.96057500000006,445.64418620000015,446.160938,None,right,1,0.41878100000030827,446.160938,None,None,,444.96057500000006,446.1442986000002,0.5110199999999168,0.5944180999995297,1.7112935999994079,1.7947776000000886,,,,,ashley_3,001,2020_Feb_12_1041,posner,3.1.5,60.0030481549177,
0.5,180,1,right,2,4,1,0,1,0,9,6,78,7,,,,,,,,,446.5958032999997,447.0949049999999,447.81141860000025,None,447.11119729999973,447.7950754000003,448.3115982999998,448.79531959999986,right,1,0.6120290999997451,448.3115982999998,None,None,,447.11119729999973,448.29489399999966,0.5111451000002489,0.594210799999928,1.711119200000212,1.7948375999994823,,,,,ashley_3,001,2020_Feb_12_1041,posner,3.1.5,60.0030481549177,
-0.5,0,1,left,1,3,1,0,1,0,9,7,79,2,,,,,,,,,448.9462470999997,449.4454648000001,450.1621230999999,None,449.46193930000027,450.1456324999999,450.66233550000015,451.1459340000001,None,0,,450.66233550000015,None,None,,449.46193930000027,450.6457277999998,0.510816099999829,0.5940561999996135,1.7110667999995712,1.7945555999995122,,,,,ashley_3,001,2020_Feb_12_1041,posner,3.1.5,60.0030481549177,
0.5,0,0,right,1,4,1,0,1,0,10,0,80,3,,,,,,,,,451.6459441999996,452.14639050000005,452.86301829999957,451.6459441999996,452.1627926000001,452.8462891999998,453.3631965000004,None,right,1,0.44045619999997143,453.3631965000004,None,left,0.6329864999997881,452.1627926000001,453.34667360000003,0.5132883000005677,0.596354500000416,1.7135557000001427,1.7967963000000964,,,,,ashley_3,001,2020_Feb_12_1041,posner,3.1.5,60.0030481549177,
0.5,180,1,right,2,4,1,0,1,0,10,1,81,7,,,,,,,,,453.8308827999999,454.3304275999999,455.0471448999997,None,454.3470195,455.03043700000035,455.5474312999995,456.0305851000003,right,1,0.4803044000000227,455.5474312999995,None,None,,454.3470195,455.5303709,0.5113874999997279,0.5944743999998536,1.711307200000192,1.7948208999996496,,,,,ashley_3,001,2020_Feb_12_1041,posner,3.1.5,60.0030481549177,
-0.5,180,0,left,2,3,1,0,1,0,10,2,82,4,,,,,,,,,456.0476472999999,456.54772369999955,457.2645100999998,None,456.5640890000004,457.24775990000035,457.7646056000003,None,left,1,0.44698280000011437,457.7646056000003,None,None,,456.5640890000004,457.74801389999993,0.511870799999997,0.5949432999996134,1.7121451000002708,1.7954967000005126,,,,,ashley_3,001,2020_Feb_12_1041,posner,3.1.5,60.0030481549177,
-0.5,0,1,left,1,3,1,0,1,0,10,3,83,1,,,,,,,,,458.2319196999997,458.7314958999996,459.4485619999996,None,458.7481981000001,459.43164009999964,459.9486286000001,None,left,1,0.39907529999982216,459.9486286000001,None,None,,458.7481981000001,459.9318916000002,0.511454199999207,0.5948841999997967,1.7118329999993875,1.7952789999999368,,,,,ashley_3,001,2020_Feb_12_1041,posner,3.1.5,60.0030481549177,
-0.5,0,1,left,1,3,1,0,1,0,10,4,84,0,,,,,,,,,460.36645130000034,460.86559430000034,461.58231460000025,None,460.8820956999998,461.5658844999998,462.0824444,462.5661589000001,left,1,0.5852292999998099,462.0824444,None,None,,460.8820956999998,462.0660538000002,0.5109023999993951,0.5944202999999106,1.7113467999997738,1.7946831999997812,,,,,ashley_3,001,2020_Feb_12_1041,posner,3.1.5,60.0030481549177,
0.5,180,1,right,2,4,1,0,1,0,10,5,85,5,,,,,,,,,462.6835825999997,463.1828164999997,463.89982640000017,None,463.19965609999963,463.8830256000001,464.4000624999999,464.8834092999996,None,0,,464.4000624999999,None,None,,463.19965609999963,464.3832854000002,0.5108022999993409,0.5944433999993635,1.7112485999996352,1.7947015999998257,,,,,ashley_3,001,2020_Feb_12_1041,posner,3.1.5,60.0030481549177,
0.5,180,1,right,2,4,1,0,1,0,10,6,86,6,,,,,,,,,465.38358059999973,465.88369779999994,466.60052389999964,465.38358059999973,465.9004576999996,466.5840754000001,467.100684,467.5843275999996,right,1,0.5112709000004543,467.100684,None,None,,465.9004576999996,467.0841510999999,0.5128414000000703,0.5963762999999744,1.7132701000000452,1.7966193000002022,,,,,ashley_3,001,2020_Feb_12_1041,posner,3.1.5,60.0030481549177,
-0.5,0,1,left,1,3,1,0,1,0,10,7,87,2,,,,,,,,,467.6355732000002,468.1344204999996,468.85119140000006,None,468.1509804999996,468.8347745000001,469.3513624999996,469.83527049999975,left,1,0.9242777999997998,469.3513624999996,None,None,,468.1509804999996,469.33490019999954,0.5106635000001916,0.5941781000001356,1.711120199999641,1.7945415000003777,,,,,ashley_3,001,2020_Feb_12_1041,posner,3.1.5,60.0030481549177,
,,,,,,1,0,1,0,,,,,,,,,,,,,,,,,,,,,,,,,,,,,,,,,,470.3024440999998,None,1.609999981155852e-05,0.994585399999778,ashley_3,001,2020_Feb_12_1041,posner,3.1.5,60.0030481549177,
-0.5,0,1,left,1,3,2,0,2,0,0,0,0,0,1.1699999959091656e-05,0.09748940000008588,531.3206265999997,None,1.609999981155852e-05,0.09755010000026232,533.4211890999995,None,533.7087011000003,534.2049264999996,534.9218918999995,None,534.2215489999999,534.9050633999996,535.4218463999996,None,left,1,0.42151230000035866,535.4218463999996,None,left,0.566022900000462,534.2215489999999,535.4053555,0.505310699999427,0.5887917000000016,1.7057262999996965,1.7890773999997691,,,,,ashley_3,001,2020_Feb_12_1041,posner,3.1.5,60.0030481549177,
0.5,180,1,right,2,4,2,0,2,0,0,1,1,6,,,,,,,,,535.8728202000002,536.3721181000001,537.0892223000001,None,536.3889406999997,537.0724288000001,537.5894145000002,None,right,1,0.38211820000014995,537.5894145000002,None,None,,536.3889406999997,537.5727937000001,0.51017260000026,0.5936561999997139,1.710829200000262,1.7940997000005154,,,,,ashley_3,001,2020_Feb_12_1041,posner,3.1.5,60.0030481549177,
-0.5,0,1,left,1,3,2,0,2,0,0,2,2,1,,,,,,,,,537.9902807999997,538.4896740000004,539.2064760000003,None,538.5062441999999,539.1897791000001,539.7066560000003,None,left,1,0.32078200000069046,539.7066560000003,None,None,,538.5062441999999,539.6899506999998,0.5109621000001425,0.5941726000000926,1.711221999999907,1.7945511000007173,,,,,ashley_3,001,2020_Feb_12_1041,posner,3.1.5,60.0030481549177,
0.5,180,1,right,2,4,2,0,2,0,0,3,3,5,,,,,,,,,540.0575558999999,540.5571252999998,541.2736783,None,540.5738529999999,541.2571397000002,541.7740050000002,None,right,1,0.3654349000007642,541.7740050000002,None,None,,540.5738529999999,541.7571491999997,0.5109781999999541,0.5939415000002555,1.710990700000366,1.7945675999999366,,,,,ashley_3,001,2020_Feb_12_1041,posner,3.1.5,60.0030481549177,
0.5,0,0,right,1,4,2,0,2,0,0,4,4,3,,,,,,,,,542.1583952000001,542.6574627,543.3745458000003,None,542.6742806000002,543.3578169000002,543.8745695999996,None,right,1,0.3849369999998089,543.8745695999996,None,None,,542.6742806000002,543.8581082000001,0.5109949999996388,0.5942356999994445,1.7116165999996156,1.79485349999959,,,,,ashley_3,001,2020_Feb_12_1041,posner,3.1.5,60.0030481549177,
-0.5,180,0,left,2,3,2,0,2,0,0,5,5,4,,,,,,,,,544.2756456999996,544.7748789999996,545.4916673999996,None,544.7915540000004,545.4751112000004,545.9919197999998,None,left,1,0.37146370000027673,545.9919197999998,None,None,,544.7915540000004,545.9753589000002,0.5108639000000039,0.5943991999993159,1.711326999999983,1.794711699999425,,,,,ashley_3,001,2020_Feb_12_1041,posner,3.1.5,60.0030481549177,
-0.5,0,1,left,1,3,2,0,2,0,0,6,6,2,,,,,,,,,546.3922345999999,546.8921277999998,547.6091484999997,None,546.9088260999997,547.5923770999998,548.1092361000001,None,left,1,0.3341894000004686,548.1092361000001,None,None,,546.9088260999997,548.0925680999999,0.511731300000065,0.5951624000008451,1.7121571000006952,1.7954845000003843,,,,,ashley_3,001,2020_Feb_12_1041,posner,3.1.5,60.0030481549177,
0.5,180,1,right,2,4,2,0,2,0,0,7,7,7,,,,,,,,,548.4600547,548.9595935999996,549.6763187999995,None,548.9762708999997,549.6597584000001,550.1764714000001,None,right,1,0.29892629999994824,550.1764714000001,None,None,,548.9762708999997,550.1598453999995,0.5112737999997989,0.5945072000004075,1.7115131999998994,1.7947862999999415,,,,,ashley_3,001,2020_Feb_12_1041,posner,3.1.5,60.0030481549177,
-0.5,0,1,left,1,3,2,0,2,0,1,0,8,2,,,,,,,,,550.4944833,550.9933964000002,551.7100891999999,None,551.0101779999995,551.6936420000002,552.2103663999997,552.6939795999997,None,0,,552.2103663999997,None,None,,551.0101779999995,552.1939296999999,0.5108740999994552,0.594365399999333,1.71138769999925,1.7945467999998073,,,,,ashley_3,001,2020_Feb_12_1041,posner,3.1.5,60.0030481549177,
0.5,180,1,right,2,4,2,0,2,0,1,1,9,5,,,,,,,,,553.1942105999997,553.6942708999995,554.4110665999997,553.1942105999997,553.7108043999997,554.3945278000001,554.9112412000004,None,right,1,0.3000836999999592,554.9112412000004,None,None,,553.7108043999997,554.8947896999998,0.5138003000001845,0.5970727000003535,1.714301400000295,1.7974621000003026,,,,,ashley_3,001,2020_Feb_12_1041,posner,3.1.5,60.0030481549177,
-0.5,0,1,left,1,3,2,0,2,0,1,2,10,1,,,,,,,,,555.2287691000001,555.7284325999999,556.4452830999999,None,555.7449258999995,556.4284171999998,556.9452872000002,None,left,1,0.3301650999992489,556.9452872000002,None,None,,555.7449258999995,556.9287223000001,0.5115247000003365,0.5945781999998871,1.7117970999997851,1.794977800000197,,,,,ashley_3,001,2020_Feb_12_1041,posner,3.1.5,60.0030481549177,
-0.5,180,0,left,2,3,2,0,2,0,1,3,11,4,,,,,,,,,557.2966409999999,557.7955894999996,558.5122771999995,None,557.8120891999997,558.4958091999997,559.0124982999996,None,right,0,0.215006500000527,559.0124982999996,None,None,,557.8120891999997,558.9960041000004,0.510851800000637,0.5942565000004834,1.7112541000005876,1.7946400000000722,,,,,ashley_3,001,2020_Feb_12_1041,posner,3.1.5,60.0030481549177,
0.5,180,1,right,2,4,2,0,2,0,1,4,12,7,,,,,,,,,559.2468595999999,559.7462013000004,560.4629889999997,None,559.7628611,560.4462729999996,560.9631364999996,None,right,1,0.38417050000043673,560.9631364999996,None,None,,559.7628611,560.9464085999998,0.5109795999997004,0.5943378000001758,1.7111697999998796,1.7946915000002264,,,,,ashley_3,001,2020_Feb_12_1041,posner,3.1.5,60.0030481549177,
0.5,180,1,right,2,4,2,0,2,0,1,5,13,6,,,,,,,,,561.3641013999995,561.8634159000003,562.5804129999997,None,561.8802763000003,562.5637979000003,563.0804317000002,None,right,1,0.2909372000003714,563.0804317000002,None,None,,561.8802763000003,563.0639430000001,0.511151400000017,0.5945314000000508,1.7116379999997662,1.7948259000004327,,,,,ashley_3,001,2020_Feb_12_1041,posner,3.1.5,60.0030481549177,
-0.5,0,1,left,1,3,2,0,2,0,1,6,14,0,,,,,,,,,563.3981598,563.8974427000003,564.6144539999996,None,563.9141351999997,564.5978799000004,565.1146491,None,left,1,0.3611327999997229,565.1146491,None,None,,563.9141351999997,565.0980257000001,0.5112090999991779,0.5944095999993806,1.7117758999993384,1.7948195999997552,,,,,ashley_3,001,2020_Feb_12_1041,posner,3.1.5,60.0030481549177,
0.5,0,0,right,1,4,2,0,2,0,1,7,15,3,,,,,,,,,565.4989008000002,565.9983626000003,566.7150002999997,None,566.0148009000004,566.6984654999997,567.2152804999996,None,right,1,0.3561827000003177,567.2152804999996,None,None,,566.0148009000004,567.1984251000003,0.5111713999995118,0.5941556999996465,1.711219599999822,1.7944956000001184,,,,,ashley_3,001,2020_Feb_12_1041,posner,3.1.5,60.0030481549177,
-0.5,180,0,left,2,3,2,0,2,0,2,0,16,4,,,,,,,,,567.5994449999998,568.0987217000002,568.8156926000001,None,568.1155569000002,568.7989459999999,569.3159004999998,None,left,1,0.3594309999998586,569.3159004999998,None,None,,568.1155569000002,569.2991363000001,0.5106523999993442,0.5940141999999469,1.7110438999998223,1.794304000000011,,,,,ashley_3,001,2020_Feb_12_1041,posner,3.1.5,60.0030481549177,
-0.5,0,1,left,1,3,2,0,2,0,2,1,17,2,,,,,,,,,569.7000867999996,570.1994801999999,570.9164639,None,570.2162478,570.8994773000004,571.4166600999997,None,left,1,0.3548958000001221,571.4166600999997,None,None,,570.2162478,571.3997943000004,0.5110452999997506,0.5943451000002824,1.7113479999998162,1.794642400000157,,,,,ashley_3,001,2020_Feb_12_1041,posner,3.1.5,60.0030481549177,
-0.5,0,1,left,1,3,2,0,2,0,2,2,18,1,,,,,,,,,571.8007039000004,572.2999355000002,573.0170201000001,None,572.3167199,573.0001009999996,573.5171269000002,574.0005420999996,left,1,0.6141618999999992,573.5171269000002,None,None,,572.3167199,573.5002844999999,0.5109966999998505,0.5944283999997424,1.7113312999999835,1.795143399999688,,,,,ashley_3,001,2020_Feb_12_1041,posner,3.1.5,60.0030481549177,
0.5,180,1,right,2,4,2,0,2,0,2,3,19,5,,,,,,,,,574.1507144999996,574.6506234999997,575.3677154999996,None,574.6676091999998,575.3509486000003,575.8679479000002,None,right,1,0.31158959999993385,575.8679479000002,None,None,,574.6676091999998,575.8511312,0.511591700000281,0.5950907000005827,1.7120906000000105,1.795529300000453,,,,,ashley_3,001,2020_Feb_12_1041,posner,3.1.5,60.0030481549177,
0.5,0,0,right,1,4,2,0,2,0,2,4,20,3,,,,,,,,,576.2022696000004,576.7013718999997,577.4184822999996,None,576.7181215,577.4015888000004,577.9187615999999,None,right,1,0.42053500000019994,577.9187615999999,None,None,,576.7181215,577.9017377999999,0.5107778000001417,0.5941782999998395,1.7111246999993455,1.7946017999993273,,,,,ashley_3,001,2020_Feb_12_1041,posner,3.1.5,60.0030481549177,
-0.5,0,1,left,1,3,2,0,2,0,2,5,21,0,,,,,,,,,578.3688928000001,578.8690015000002,579.5856899999999,None,578.8855022999996,579.5690947000003,580.0857060999997,None,left,1,0.3175296999997954,580.0857060999997,None,None,,578.8855022999996,580.0692680000002,0.5118984999999157,0.5949706999999762,1.7121528999996372,1.79524820000006,,,,,ashley_3,001,2020_Feb_12_1041,posner,3.1.5,60.0030481549177,
0.5,180,1,right,2,4,2,0,2,0,2,6,22,6,,,,,,,,,580.4197673999997,580.9194446000001,581.6363075999998,None,580.9361351999996,581.6197228000001,582.1364191000002,None,right,1,0.2670445000003383,582.1364191000002,None,None,,580.9361351999996,582.1197002999997,0.5111477999998897,0.5942756999993435,1.7113908999999694,1.7946400999999241,,,,,ashley_3,001,2020_Feb_12_1041,posner,3.1.5,60.0030481549177,
0.5,180,1,right,2,4,2,0,2,0,2,7,23,7,,,,,,,,,582.4207821999998,582.9201837,583.6368905999998,None,582.9366659999996,583.6202153000004,584.1371744999997,None,right,1,0.37832069999967644,584.1371744999997,None,None,,582.9366659999996,584.1203581,0.5114073999993707,0.5947707999994236,1.711568300000181,1.7949426999994103,,,,,ashley_3,001,2020_Feb_12_1041,posner,3.1.5,60.0030481549177,
0.5,180,1,right,2,4,2,0,2,0,3,0,24,5,,,,,,,,,584.5382145000003,585.0373959999997,585.7542698999996,None,585.0540983999999,585.7376524000001,586.2544040000002,586.7376011999995,right,1,0.4927802000001975,586.2544040000002,None,None,,585.0540983999999,586.2378095000004,0.511043299999983,0.5942597000002934,1.7114442000001873,1.7946038999998564,,,,,ashley_3,001,2020_Feb_12_1041,posner,3.1.5,60.0030481549177,
-0.5,0,1,left,1,3,2,0,2,0,3,1,25,2,,,,,,,,,586.7718850000001,587.2711618000003,587.9883131999995,None,587.2880573000002,587.9714092000004,588.4885201999996,None,left,1,0.41871830000036425,588.4885201999996,None,None,,587.2880573000002,588.4716124999995,0.5114196000004085,0.5950473000002603,1.7118454999999813,1.7952298999998675,,,,,ashley_3,001,2020_Feb_12_1041,posner,3.1.5,60.0030481549177,
0.5,180,1,right,2,4,2,0,2,0,3,2,26,7,,,,,,,,,588.9392476000003,589.4388976,590.1555306,None,589.4552356000004,590.1391080000003,590.6557511999999,None,right,1,0.45948409999982687,590.6557511999999,None,None,,589.4552356000004,590.6391351000002,0.5112983999997596,0.5942110000005414,1.7115189000005557,1.7947555000000648,,,,,ashley_3,001,2020_Feb_12_1041,posner,3.1.5,60.0030481549177,
-0.5,180,0,left,2,3,2,0,2,0,3,3,27,4,,,,,,,,,591.1401225999998,591.6392483,592.3563517000002,None,591.6561126999995,592.3398003000002,592.8562794,591.1401225999998,left,1,0.4190082999994047,592.8562794,None,None,,591.6561126999995,592.8400006000002,0.5110241000002134,0.5944139000002906,1.7117553999996744,1.7947833999996874,,,,,ashley_3,001,2020_Feb_12_1041,posner,3.1.5,60.0030481549177,
0.5,0,0,right,1,4,2,0,2,0,3,4,28,3,,,,,,,,,593.3074743999996,593.8067449,594.5236446999997,None,593.8232841999998,594.5069083999997,595.0239632000003,None,right,1,0.3952793999997084,595.0239632000003,None,None,,593.8232841999998,595.0071297000004,0.5106891000004907,0.5938880000003337,1.7110614000002897,1.7942259999999806,,,,,ashley_3,001,2020_Feb_12_1041,posner,3.1.5,60.0030481549177,
-0.5,0,1,left,1,3,2,0,2,0,3,5,29,0,,,,,,,,,595.4411387999999,595.9406513000004,596.6575235999999,None,595.9574851999996,596.640848,597.1578092999998,None,left,1,0.3895864000005531,597.1578092999998,None,None,,595.9574851999996,597.1410057000003,0.5112277999996877,0.5946777999997721,1.711567099999229,1.795100999999704,,,,,ashley_3,001,2020_Feb_12_1041,posner,3.1.5,60.0030481549177,
-0.5,0,1,left,1,3,2,0,2,0,3,6,30,1,,,,,,,,,597.5758059999998,598.0747296,598.7915292999996,None,598.0912717000001,598.7749838999998,599.2917353000003,None,left,1,0.3834249000001364,599.2917353000003,None,None,,598.0912717000001,599.275138,0.5110083999998096,0.5944054000001415,1.7114007999998648,1.7945904999996856,,,,,ashley_3,001,2020_Feb_12_1041,posner,3.1.5,60.0030481549177,
0.5,180,1,right,2,4,2,0,2,0,3,7,31,6,,,,,,,,,599.6925209999999,600.1919439000003,600.9089519999998,None,600.2085576,600.8923102999997,601.4090409999999,None,right,1,0.3461584999995466,601.4090409999999,None,None,,600.2085576,601.3924047,0.5112225000002582,0.5945663000002241,1.7116611000001285,1.7949398999999175,,,,,ashley_3,001,2020_Feb_12_1041,posner,3.1.5,60.0030481549177,
-0.5,0,1,left,1,3,2,0,2,0,4,0,32,2,,,,,,,,,601.7767566000002,602.2759972000003,602.9927715000003,None,602.2927892999996,602.9761535999996,603.4929113999997,None,left,1,0.3664752000004228,603.4929113999997,None,None,,602.2927892999996,603.4763019000002,0.5109793999999965,0.5942439999998896,1.7112679999991087,1.7946931999995286,,,,,ashley_3,001,2020_Feb_12_1041,posner,3.1.5,60.0030481549177,
0.5,0,0,right,1,4,2,0,2,0,4,1,33,3,,,,,,,,,603.8779193999999,604.3765310999997,605.0936277000001,None,604.3932705999996,605.0771064,605.5936577000002,None,right,1,0.32163170000058017,605.5936577000002,None,None,,604.3932705999996,605.5770110000003,0.5104940000001079,0.5940938000003371,1.7109518000006574,1.7944701000005807,,,,,ashley_3,001,2020_Feb_12_1041,posner,3.1.5,60.0030481549177,
0.5,180,1,right,2,4,2,0,2,0,4,2,34,5,,,,,,,,,605.9448267999996,606.4439022999995,607.1606175999996,None,606.4605267999996,607.1443584999997,607.6609298000003,None,right,1,0.36633550000078685,607.6609298000003,None,None,,606.4605267999996,607.6444079000003,0.5109965000001466,0.5943909999996322,1.711481499999536,1.7949959999996281,,,,,ashley_3,001,2020_Feb_12_1041,posner,3.1.5,60.0030481549177,
-0.5,0,1,left,1,3,2,0,2,0,4,3,35,1,,,,,,,,,608.0452661999998,608.5447445,609.2613568999996,None,608.5612281000003,609.2449149000004,609.7615419000003,None,left,1,0.32981480000034935,609.7615419000003,None,None,,608.5612281000003,609.7449121,0.5114223000000493,0.5947290000003704,1.711574500000097,1.7950098000001162,,,,,ashley_3,001,2020_Feb_12_1041,posner,3.1.5,60.0030481549177,
0.5,180,1,right,2,4,2,0,2,0,4,4,36,7,,,,,,,,,610.1130337000004,610.6118177999997,611.3287981000003,None,610.6286452000004,611.3120230000004,611.8290409000001,None,right,1,0.39027529999930266,611.8290409000001,None,None,,610.6286452000004,611.8123462000003,0.5107828000000154,0.594168599999648,1.7112967000002755,1.794480499999736,,,,,ashley_3,001,2020_Feb_12_1041,posner,3.1.5,60.0030481549177,
-0.5,0,1,left,1,3,2,0,2,0,4,5,37,0,,,,,,,,,612.2468228999996,612.7459753000003,613.4628862999998,None,612.7623849000001,613.4460534,613.9627977,None,left,1,0.33643039999969915,613.9627977,None,None,,612.7623849000001,613.9462909000003,0.5110242000000653,0.5942779999995764,1.7113202999998975,1.794813399999839,,,,,ashley_3,001,2020_Feb_12_1041,posner,3.1.5,60.0030481549177,
-0.5,180,0,left,2,3,2,0,2,0,4,6,38,4,,,,,,,,,614.3302378999997,614.8298745000002,615.5467292000003,None,614.8465775000004,615.5300213999999,616.0469319000003,616.5304429999997,left,1,0.6121780000003127,616.0469319000003,None,None,,614.8465775000004,616.0301719999998,0.5111884999996619,0.5947660000001633,1.7114685999995345,1.7948467999995046,,,,,ashley_3,001,2020_Feb_12_1041,posner,3.1.5,60.0030481549177,
0.5,180,1,right,2,4,2,0,2,0,4,7,39,6,,,,,,,,,616.6807811999997,617.1805867000003,617.8975891999999,None,617.1973443999996,617.8807180000003,618.3977083999998,None,right,1,0.2935215999996217,618.3977083999998,None,None,,617.1973443999996,618.3808134000001,0.5117475999995804,0.5951230999999098,1.7119518999998036,1.795731899999737,,,,,ashley_3,001,2020_Feb_12_1041,posner,3.1.5,60.0030481549177,
-0.5,0,1,left,1,3,2,0,2,0,5,0,40,0,,,,,,,,,618.7157660000003,619.2147164999997,619.9312953999997,None,619.2309697000001,619.9149538000001,620.4314459999996,None,left,1,0.3637357999996311,620.4314459999996,None,None,,619.2309697000001,620.4150467999998,0.5107508999999482,0.5938908999996784,1.7110276000003068,1.7947495999997045,,,,,ashley_3,001,2020_Feb_12_1041,posner,3.1.5,60.0030481549177,
-0.5,180,0,left,2,3,2,0,2,0,5,1,41,4,,,,,,,,,620.8158817000003,621.3152,622.0321602000004,None,621.3316811000004,622.0156508,622.5322280999999,None,left,1,0.3509497000004558,622.5322280999999,None,None,,621.3316811000004,622.5157386999999,0.5110469000001103,0.5945869999995921,1.7115568999997777,1.7947940000003655,,,,,ashley_3,001,2020_Feb_12_1041,posner,3.1.5,60.0030481549177,
-0.5,0,1,left,1,3,2,0,2,0,5,2,42,1,,,,,,,,,622.899539,623.3992113000004,624.1161419999999,None,623.4159767000001,624.0995417000004,624.6162869,None,left,1,0.33095979999961855,624.6162869,None,None,,623.4159767000001,624.5995307000003,0.5110733000001346,0.5944446000003154,1.711371400000644,1.7947424000003593,,,,,ashley_3,001,2020_Feb_12_1041,posner,3.1.5,60.0030481549177,
0.5,180,1,right,2,4,2,0,2,0,5,3,43,7,,,,,,,,,624.9671249000003,625.4666698999999,626.1837529000004,None,625.4832398999997,626.1668933000001,626.6836807999998,None,right,1,0.44747019999977056,626.6836807999998,None,None,,625.4832398999997,626.6669625000004,0.5114916000002268,0.5945995000001858,1.711767300000247,1.7948176999998395,,,,,ashley_3,001,2020_Feb_12_1041,posner,3.1.5,60.0030481549177,
0.5,0,0,right,1,4,2,0,2,0,5,4,44,3,,,,,,,,,627.1508977000003,627.6503531999997,628.3673486999996,None,627.6672645999997,628.3505791999996,628.8677743999997,None,right,1,0.44745250000050873,628.8677743999997,None,None,,627.6672645999997,628.8507159999999,0.5110424000004059,0.5945403000005172,1.7113931000003504,1.7949071000002732,,,,,ashley_3,001,2020_Feb_12_1041,posner,3.1.5,60.0030481549177,
0.5,180,1,right,2,4,2,0,2,0,5,5,45,6,,,,,,,,,629.3357379999998,629.8345743999998,630.5512467999997,None,629.8511367000001,630.5347892999998,631.0514707000002,None,right,1,0.39979829999992944,631.0514707000002,None,None,,629.8511367000001,631.0347437,0.5107906000002913,0.5942831000002116,1.7109494000005725,1.7945942000005743,,,,,ashley_3,001,2020_Feb_12_1041,posner,3.1.5,60.0030481549177,
-0.5,0,1,left,1,3,2,0,2,0,5,6,46,2,,,,,,,,,631.4693470000002,631.9685368999999,632.6854143999999,None,631.9853596000003,632.6688273999998,633.1855833,None,left,1,0.3295918999992864,633.1855833,None,None,,631.9853596000003,633.1690034000003,0.5110070999999152,0.5943328000003021,1.7114483000004839,1.7946757999998226,,,,,ashley_3,001,2020_Feb_12_1041,posner,3.1.5,60.0030481549177,
0.5,180,1,right,2,4,2,0,2,0,5,7,47,5,,,,,,,,,633.5367474000004,634.0357082,634.7527297999995,None,634.0524783999999,634.73603,635.2528585,None,right,1,0.28628589999971155,635.2528585,None,None,,634.0524783999999,635.2361872000001,0.5107257999998183,0.5942103999996107,1.7111804999995002,1.7946013000000676,,,,,ashley_3,001,2020_Feb_12_1041,posner,3.1.5,60.0030481549177,
0.5,180,1,right,2,4,2,0,2,0,6,0,48,5,,,,,,,,,635.570052,636.0698891000002,636.7867599000001,None,636.0864916,636.7699751999999,637.2869430000001,None,right,1,0.41208089999963704,637.2869430000001,None,None,,636.0864916,637.2703300000003,0.5112794999995458,0.5943830999995043,1.7116910999993706,1.7948145000000295,,,,,ashley_3,001,2020_Feb_12_1041,posner,3.1.5,60.0030481549177,
0.5,180,1,right,2,4,2,0,2,0,6,1,49,6,,,,,,,,,637.7205593999997,638.2203073000001,638.9373919999998,None,638.2370732999998,638.9205106,639.4375110999999,None,right,1,0.3976264999992054,639.4375110999999,None,None,,638.2370732999998,639.4208558999999,0.5114379000006011,0.5949193000005835,1.7119706000003134,1.7953507000001991,,,,,ashley_3,001,2020_Feb_12_1041,posner,3.1.5,60.0030481549177,
0.5,180,1,right,2,4,2,0,2,0,6,2,50,7,,,,,,,,,639.8557590999999,640.3545510000004,641.0712169999997,None,640.3711136000002,641.0548263000001,641.5713212,None,right,1,0.3037897000003795,641.5713212,None,None,,640.3711136000002,641.5547893000003,0.5104779000002964,0.5937702000001082,1.7107059999998455,1.794110499999988,,,,,ashley_3,001,2020_Feb_12_1041,posner,3.1.5,60.0030481549177,
0.5,0,0,right,1,4,2,0,2,0,6,3,51,3,,,,,,,,,641.9056861999998,642.4052185,643.1221576999997,None,642.4216427000001,643.1052796000004,643.6220966000001,644.1056597999996,right,1,0.49301480000031006,643.6220966000001,None,None,,642.4216427000001,643.6055802000001,0.5109759999995731,0.5941222999999809,1.7112919999999576,1.7944938000000548,,,,,ashley_3,001,2020_Feb_12_1041,posner,3.1.5,60.0030481549177,
-0.5,0,1,left,1,3,2,0,2,0,6,4,52,2,,,,,,,,,644.1397046000002,644.6391626000004,645.3559650999996,None,644.6557348999995,645.3396937999996,645.8561804999999,None,left,1,0.4029754999992292,645.8561804999999,None,None,,644.6557348999995,645.8398776000004,0.5111190999996325,0.5943508000000293,1.7118126999994274,1.7947634000001926,,,,,ashley_3,001,2020_Feb_12_1041,posner,3.1.5,60.0030481549177,
-0.5,0,1,left,1,3,2,0,2,0,6,5,53,1,,,,,,,,,646.2901221000002,646.7897922000002,647.5066250999998,None,646.8063942999997,647.4898678999998,648.0069685999997,None,left,1,0.37226360000022396,648.0069685999997,None,None,,646.8063942999997,647.9900508999999,0.5112189999999828,0.5946785000005548,1.711469599999873,1.7949059000002308,,,,,ashley_3,001,2020_Feb_12_1041,posner,3.1.5,60.0030481549177,
-0.5,0,1,left,1,3,2,0,2,0,6,6,54,0,,,,,,,,,648.4078277999997,648.9072210000004,649.6241915999999,None,648.9237929999999,649.6073515999997,650.1241178999999,None,left,1,0.3589198999998189,650.1241178999999,None,None,,648.9237929999999,650.1075091000002,0.5111698000000615,0.5942794000002323,1.7114529000000402,1.7947323999997025,,,,,ashley_3,001,2020_Feb_12_1041,posner,3.1.5,60.0030481549177,
-0.5,180,0,left,2,3,2,0,2,0,6,7,55,4,,,,,,,,,650.5083775000003,651.0077187999996,651.7246951999996,None,651.0244354999995,651.7080096999998,652.224647,None,left,1,0.4264429000004384,652.224647,None,None,,651.0244354999995,652.2081569000002,0.5110856999999669,0.5944555000005494,1.7115006000003632,1.7947838999998567,,,,,ashley_3,001,2020_Feb_12_1041,posner,3.1.5,60.0030481549177,
0.5,0,0,right,1,4,2,0,2,0,7,0,56,3,,,,,,,,,652.6761894000001,653.1752323999999,653.8919956999998,None,653.1916357999999,653.8755233000002,654.3920127000001,None,right,1,0.41113969999969413,654.3920127000001,None,None,,653.1916357999999,654.3754939999999,0.5109076999997342,0.5940181000005396,1.7111565000004703,1.794568000000254,,,,,ashley_3,001,2020_Feb_12_1041,posner,3.1.5,60.0030481549177,
-0.5,0,1,left,1,3,2,0,2,0,7,1,57,2,,,,,,,,,654.8265038,655.3258057000003,656.0425747999998,None,655.3422885,656.0258620000004,656.5429541000003,None,left,1,0.3322294999998121,656.5429541000003,None,None,,655.3422885,656.5261868999996,0.510917700000391,0.5941886000000522,1.7112821999999142,1.7945576000001893,,,,,ashley_3,001,2020_Feb_12_1041,posner,3.1.5,60.0030481549177,
-0.5,0,1,left,1,3,2,0,2,0,7,2,58,1,,,,,,,,,656.8943442,657.3929838000004,658.1098192999998,None,657.4097057999998,658.0932658000002,658.6103194999996,659.0935988000001,None,0,,658.6103194999996,None,None,,657.4097057999998,658.5934606999999,0.5107028999991599,0.5939936999993733,1.7111296999992192,1.7944502999998804,,,,,ashley_3,001,2020_Feb_12_1041,posner,3.1.5,60.0030481549177,
0.5,180,1,right,2,4,2,0,2,0,7,3,59,6,,,,,,,,,659.5936668000004,660.0939824999996,660.8107554999997,659.5936668000004,660.1104593,660.7941933000002,661.3109605999998,None,right,1,0.34834050000063144,661.3109605999998,None,None,,660.1104593,661.2942519999997,0.5129757999993672,0.5961707999995269,1.7132308000000194,1.7966581000000588,,,,,ashley_3,001,2020_Feb_12_1041,posner,3.1.5,60.0030481549177,
-0.5,180,0,left,2,3,2,0,2,0,7,4,60,4,,,,,,,,,661.6786180999998,662.1779502999998,662.8948444999996,None,662.1946288999998,662.8781681,663.3949741999995,663.8785066999999,left,1,0.6400700000003781,663.3949741999995,None,None,,662.1946288999998,663.3783718000004,0.5112185999996655,0.5944259999996575,1.7116375999994489,1.794666199999483,,,,,ashley_3,001,2020_Feb_12_1041,posner,3.1.5,60.0030481549177,
0.5,180,1,right,2,4,2,0,2,0,7,5,61,7,,,,,,,,,664.0627564999995,664.5618189999996,665.2788635999996,None,664.5786547999996,665.2620645999996,665.7790155000002,None,right,1,0.36807669999961945,665.7790155000002,None,None,,664.5786547999996,665.7621423,0.510978399999658,0.5943403000001126,1.7112780999996176,1.7947318999995332,,,,,ashley_3,001,2020_Feb_12_1041,posner,3.1.5,60.0030481549177,
0.5,180,1,right,2,4,2,0,2,0,7,6,62,5,,,,,,,,,666.1633288000003,666.6625039999999,667.3793309000002,None,666.6792357000004,667.3633455999998,667.8795861999997,None,right,1,0.45950360000006185,667.8795861999997,None,None,,666.6792357000004,667.8629436000001,0.5108316999994713,0.5943124999994325,1.7112485999996352,1.7946257999992667,,,,,ashley_3,001,2020_Feb_12_1041,posner,3.1.5,60.0030481549177,
-0.5,0,1,left,1,3,2,0,2,0,7,7,63,0,,,,,,,,,668.3641250999999,668.8632711999999,669.5800787999997,None,668.8799059000003,669.5633797,670.0801975000004,670.5638132000004,left,1,0.5468963000002987,670.0801975000004,None,None,,668.8799059000003,670.0636253000002,0.5110851999997976,0.5945460999992065,1.7114261999995506,1.794807999999648,,,,,ashley_3,001,2020_Feb_12_1041,posner,3.1.5,60.0030481549177,
-0.5,0,1,left,1,3,2,0,2,0,8,0,64,1,,,,,,,,,670.6481076999999,671.1473303000002,671.8642567999996,None,671.1640378000002,671.8475253999995,672.3642778000003,672.8478466999995,left,1,0.5747864999993908,672.3642778000003,None,None,,671.1640378000002,672.3478231999998,0.5110211999999592,0.5941057000000001,1.7115023999995174,1.7945843999996214,,,,,ashley_3,001,2020_Feb_12_1041,posner,3.1.5,60.0030481549177,
0.5,180,1,right,2,4,2,0,2,0,8,1,65,7,,,,,,,,,672.9656624999998,673.4648914999998,674.1815410999998,None,673.4812683,674.1649377000003,674.6816409000003,675.1652737000004,None,0,,674.6816409000003,None,None,,673.4812683,674.6651505999998,0.511071300000367,0.5943166000006386,1.7113222000007227,1.7946971999999732,,,,,ashley_3,001,2020_Feb_12_1041,posner,3.1.5,60.0030481549177,
-0.5,0,1,left,1,3,2,0,2,0,8,2,66,0,,,,,,,,,675.6655542999997,676.1656845999996,676.8823272999998,675.6655542999997,676.1820181000003,676.8658101000001,677.3825235000004,None,left,1,0.40441699999973935,677.3825235000004,None,None,,676.1820181000003,677.3660287000002,0.5133538999998564,0.5967086999999083,1.7136779000002207,1.7970438000002105,,,,,ashley_3,001,2020_Feb_12_1041,posner,3.1.5,60.0030481549177,
0.5,180,1,right,2,4,2,0,2,0,8,3,67,6,,,,,,,,,677.8166480999998,678.3162602000002,679.0331364000003,None,678.3327585999996,679.0164139999997,679.5332527,None,right,1,0.30985750000036205,679.5332527,None,None,,678.3327585999996,679.5167556999995,0.511043399999835,0.5943299000000479,1.7115132999997513,1.794562500000211,,,,,ashley_3,001,2020_Feb_12_1041,posner,3.1.5,60.0030481549177,
-0.5,180,0,left,2,3,2,0,2,0,8,4,68,4,,,,,,,,,679.8674465000004,680.3668915999997,681.0838722999997,None,680.3834889999998,681.0670823999999,681.5838677000002,None,left,1,0.3952896000000692,681.5838677000002,None,None,,680.3834889999998,681.5672660999999,0.5112034000003405,0.5944077000003745,1.711553800000729,1.7947780000004059,,,,,ashley_3,001,2020_Feb_12_1041,posner,3.1.5,60.0030481549177,
-0.5,0,1,left,1,3,2,0,2,0,8,5,69,2,,,,,,,,,682.0018381,682.5006793000002,683.2178967,None,682.5175141,683.2009299000001,683.7179570999997,None,left,1,0.325136499999644,683.7179570999997,None,None,,682.5175141,683.7011325000003,0.5106549000001905,0.5940514000003532,1.7110883000004833,1.7946073000002798,,,,,ashley_3,001,2020_Feb_12_1041,posner,3.1.5,60.0030481549177,
0.5,0,0,right,1,4,2,0,2,0,8,6,70,3,,,,,,,,,684.0680857999996,684.5683304000004,685.2850595,None,684.5846758999996,685.2685654999996,685.7851448000001,None,right,1,0.41780610000023444,685.7851448000001,None,None,,684.5846758999996,685.7686463,0.5121473999997761,0.5953245000000607,1.7124433999997564,1.7956704999996873,,,,,ashley_3,001,2020_Feb_12_1041,posner,3.1.5,60.0030481549177,
0.5,180,1,right,2,4,2,0,2,0,8,7,71,5,,,,,,,,,686.2194407999996,686.7189385000001,687.4357091000002,None,686.7355705999998,687.4188505000002,687.9358769,None,right,1,0.36322590000054333,687.9358769,None,None,,686.7355705999998,687.9192983000003,0.511214199999813,0.5943566000005376,1.711557300000095,1.7946927000002688,,,,,ashley_3,001,2020_Feb_12_1041,posner,3.1.5,60.0030481549177,
