targetX,cueOri,congr,corrAns,pin_cue,pin_target,block.thisRepN,block.thisTrialN,block.thisN,block.thisIndex,posner_task.thisRepN,posner_task.thisTrialN,posner_task.thisN,posner_task.thisIndex,port_start_block.started,port_start_block.stopped,text_2.started,text_2.stopped,p_port.started,p_port.stopped,text.started,text.stopped,fixation_1.started,fixation_1.stopped,fixation_2.started,fixation_2.stopped,cue.started,cue.stopped,target.started,target.stopped,correct_key_resp.keys,correct_key_resp.corr,correct_key_resp.rt,correct_key_resp.started,correct_key_resp.stopped,early_resp.keys,early_resp.rt,early_resp.started,early_resp.stopped,trigger_cue.started,trigger_cue.stopped,trigger_target.started,trigger_target.stopped,break_text.started,break_text.stopped,end_port.started,end_port.stopped,participant,session,date,expName,psychopyVersion,frameRate,
0.5,180,1,right,2,4,0,0,0,0,0,0,0,5,1.720000000204891e-05,0.1020581000002494,16.396130899999662,None,1.4700000065204222e-05,0.09957170000052429,18.281875300000138,None,18.62281019999955,19.132989899999302,19.834016599999813,None,19.132989899999302,19.834016599999813,20.33473749999939,None,right,1,0.45847800000046846,20.33473749999939,None,right,0.4602223000001686,19.132989899999302,20.31798929999968,0.5029171999995015,0.6031950999995388,1.7044573000002856,1.7880086999994091,,,,,syed_2,001,2020_Feb_07_1537,posner,3.1.5,59.87690505849263,
-0.5,180,0,left,2,3,0,0,0,0,0,1,1,4,,,,,,,,,20.82059389999995,21.31959310000002,22.03711149999981,None,21.33603359999961,22.020419200000106,22.537981200000104,20.82059389999995,left,1,0.2713006000003588,22.537981200000104,None,None,,21.33603359999961,22.52107739999974,0.5107892999994874,0.5940282999999908,1.71225719999984,1.7955874999997832,,,,,syed_2,001,2020_Feb_07_1537,posner,3.1.5,59.87690505849263,
-0.5,0,1,left,1,3,0,0,0,0,0,2,2,2,,,,,,,,,22.838958399999683,23.339003999999477,24.056590000000142,None,23.355592400000205,24.0397253000001,24.557214899999963,None,left,1,0.3159713999993983,24.557214899999963,None,None,,23.355592400000205,24.54061559999991,0.5118032000000312,0.595078299999841,1.7133977000003142,1.7967435000000478,,,,,syed_2,001,2020_Feb_07_1537,posner,3.1.5,59.87690505849263,
-0.5,0,1,left,1,3,0,0,0,0,0,3,3,1,,,,,,,,,24.891908099999455,25.391586699999607,26.109667499999887,None,25.408639599999333,26.092566799999986,26.610190899999907,None,left,1,0.2951096000006146,26.610190899999907,None,None,,25.408639599999333,26.593296299999565,0.5112748000001375,0.5948243000002549,1.7129604000001564,1.7964148000000932,,,,,syed_2,001,2020_Feb_07_1537,posner,3.1.5,59.87690505849263,
-0.5,0,1,left,1,3,0,0,0,0,0,4,4,0,,,,,,,,,26.92819950000012,27.428020899999865,28.1455390000001,None,27.444627500000024,28.12889399999949,28.646321100000023,None,left,1,0.33918529999937164,28.646321100000023,None,None,,27.444627500000024,28.629665499999646,0.5115919999998368,0.594720099999904,1.7132208999992145,1.7965753999997105,,,,,syed_2,001,2020_Feb_07_1537,posner,3.1.5,59.87690505849263,
0.5,180,1,right,2,4,0,0,0,0,0,5,5,6,,,,,,,,,29.014363399999638,29.513995899999827,30.23176759999933,None,29.530801999999312,30.21510659999967,30.732332999999926,None,right,1,0.27676030000020546,30.732332999999926,None,None,,29.530801999999312,30.71579649999967,0.5115479999994932,0.5949429000002056,1.7133310999997775,1.796804599999632,,,,,syed_2,001,2020_Feb_07_1537,posner,3.1.5,59.87690505849263,
0.5,0,0,right,1,4,0,0,0,0,0,6,6,3,,,,,,,,,31.03374050000002,31.533466199999566,32.25103940000008,None,31.550256399999853,32.234444699999585,32.75190839999959,None,right,1,0.36919900000066264,32.75190839999959,None,None,,31.550256399999853,32.73520869999993,0.5117936999995436,0.5953742000001512,1.7135098999997354,1.7969616999998834,,,,,syed_2,001,2020_Feb_07_1537,posner,3.1.5,59.87690505849263,
0.5,180,1,right,2,4,0,0,0,0,0,7,7,7,,,,,,,,,33.153545699999995,33.65347279999969,34.370718600000146,None,33.66972100000021,34.35399989999951,34.87135859999944,None,right,1,0.3457295999996859,34.87135859999944,None,None,,33.66972100000021,34.85472949999985,0.5120507999999973,0.5952513000002,1.7133193999998184,1.7966800000003786,,,,,syed_2,001,2020_Feb_07_1537,posner,3.1.5,59.87690505849263,
-0.5,180,0,left,2,3,0,0,0,0,1,0,8,4,,,,,,,,,35.23942519999946,35.7392662000002,36.45703749999939,None,35.756235599999854,36.440258799999356,36.95766529999946,None,left,1,0.3556263999998919,36.95766529999946,None,None,,35.756235599999854,36.940927999999985,0.5118050999999468,0.5952769999994416,1.7134430999994947,1.7968151999994006,,,,,syed_2,001,2020_Feb_07_1537,posner,3.1.5,59.87690505849263,
-0.5,0,1,left,1,3,0,0,0,0,1,1,9,1,,,,,,,,,37.34179369999947,37.84213910000017,38.56001829999968,None,37.85896820000016,38.543153799999345,39.06040059999941,None,left,1,0.3569195000000036,39.06040059999941,None,None,,37.85896820000016,39.043828799999574,0.5122027999996135,0.5955606999996235,1.7138756999993348,1.7973621000001003,,,,,syed_2,001,2020_Feb_07_1537,posner,3.1.5,59.87690505849263,
-0.5,0,1,left,1,3,0,0,0,0,1,2,10,2,,,,,,,,,39.44516599999952,39.94504169999982,40.66274229999999,None,39.96177499999976,40.64618799999971,41.163476400000036,None,left,1,0.3657868000000235,41.163476400000036,None,None,,39.96177499999976,41.146705199999815,0.5116390000002866,0.5951806000002762,1.7132948000007673,1.7966802000000826,,,,,syed_2,001,2020_Feb_07_1537,posner,3.1.5,59.87690505849263,
0.5,0,0,right,1,4,0,0,0,0,1,3,11,3,,,,,,,,,41.5482463999997,42.04804659999991,42.76575959999991,None,42.064661100000194,42.74886559999959,43.26618689999941,None,right,1,0.3108154999999897,43.26618689999941,None,None,,42.064661100000194,43.24979769999936,0.5116055999997116,0.5948742999999013,1.7133339000001797,1.7966776000002938,,,,,syed_2,001,2020_Feb_07_1537,posner,3.1.5,59.87690505849263,
-0.5,0,1,left,1,3,0,0,0,0,1,4,12,0,,,,,,,,,43.60083039999972,44.10087190000013,44.818506999999954,None,44.117502799999784,44.80177249999997,45.319294299999456,None,left,1,0.32985110000026907,45.319294299999456,None,None,,44.117502799999784,45.302336300000206,0.51185439999972,0.5951886999991984,1.713305099999161,1.7968237999994017,,,,,syed_2,001,2020_Feb_07_1537,posner,3.1.5,59.87690505849263,
0.5,180,1,right,2,4,0,0,0,0,1,5,13,5,,,,,,,,,45.67118990000017,46.17023209999934,46.88802599999963,None,46.1870528999998,46.871120699999665,47.388559399999394,None,right,1,0.2685498999999254,47.388559399999394,None,None,,46.1870528999998,47.37184989999969,0.5110533000006399,0.5947013000004517,1.7126568000003317,1.796328899999935,,,,,syed_2,001,2020_Feb_07_1537,posner,3.1.5,59.87690505849263,
0.5,180,1,right,2,4,0,0,0,0,1,6,14,7,,,,,,,,,47.67343999999957,48.172957299999325,48.89070279999942,None,48.189728899999864,48.874105699999745,49.39140419999967,None,right,1,0.28190189999986615,49.39140419999967,None,None,,48.189728899999864,49.37473829999999,0.5113074999999299,0.5949796000004426,1.7130744000005507,1.7965100999999777,,,,,syed_2,001,2020_Feb_07_1537,posner,3.1.5,59.87690505849263,
0.5,180,1,right,2,4,0,0,0,0,1,7,15,6,,,,,,,,,49.6921214999993,50.19228359999943,50.91031649999968,None,50.20943569999963,50.89344489999985,51.410928199999944,None,right,1,0.30212180000035005,51.410928199999944,None,None,,50.20943569999963,51.39407399999982,0.5120684000003166,0.5956134000007296,1.7138399000004938,1.7972970999999234,,,,,syed_2,001,2020_Feb_07_1537,posner,3.1.5,59.87690505849263,
0.5,0,0,right,1,4,0,0,0,0,2,0,16,3,,,,,,,,,51.728886999999304,52.2288638,52.94624599999952,None,52.24527719999969,52.9297532999999,53.44703819999995,None,right,1,0.3221380999993926,53.44703819999995,None,None,,52.24527719999969,53.43016660000012,0.5119093000002977,0.5950148000001718,1.71320360000027,1.7967145000002347,,,,,syed_2,001,2020_Feb_07_1537,posner,3.1.5,59.87690505849263,
0.5,180,1,right,2,4,0,0,0,0,2,1,17,7,,,,,,,,,53.798551699999734,54.298124500000085,55.015737900000204,None,54.31502879999971,54.99930499999937,55.51642769999944,None,right,1,0.2925638999995499,55.51642769999944,None,None,,54.31502879999971,55.4998470999999,0.5115138999999544,0.5949015999995027,1.7132167999998273,1.7965729999996256,,,,,syed_2,001,2020_Feb_07_1537,posner,3.1.5,59.87690505849263,
-0.5,180,0,left,2,3,0,0,0,0,2,2,18,4,,,,,,,,,55.834387299999435,56.3342791999994,57.051764199999525,None,56.35098769999968,57.03544729999976,57.5525319999997,None,left,1,0.3284088000000338,57.5525319999997,None,None,,56.35098769999968,57.53584729999966,0.5117459999992207,0.5950546999993094,1.713293199999498,1.7970274999997855,,,,,syed_2,001,2020_Feb_07_1537,posner,3.1.5,59.87690505849263,
-0.5,0,1,left,1,3,0,0,0,0,2,3,19,0,,,,,,,,,57.903774299999895,58.40370069999972,59.1214215,None,58.42039629999999,59.10477329999958,59.622012599999834,None,left,1,0.32310989999950834,59.622012599999834,None,None,,58.42039629999999,59.6054065999997,0.5115081000003556,0.5951042000006055,1.713194900000417,1.7968939000002138,,,,,syed_2,001,2020_Feb_07_1537,posner,3.1.5,59.87690505849263,
0.5,180,1,right,2,4,0,0,0,0,2,4,20,5,,,,,,,,,59.97358660000009,60.47345249999944,61.190995799999655,None,60.489782300000115,61.174258899999586,61.69152870000016,None,right,1,0.2775004999994053,61.69152870000016,None,None,,60.489782300000115,61.67522969999936,0.5119439999998576,0.5952753000001394,1.7136953999997786,1.7967794999995021,,,,,syed_2,001,2020_Feb_07_1537,posner,3.1.5,59.87690505849263,
-0.5,0,1,left,1,3,0,0,0,0,2,5,21,1,,,,,,,,,61.99313929999971,62.49265589999959,63.21049909999965,None,62.50960329999998,63.19363280000016,63.71112339999945,None,left,1,0.33788129999993544,63.71112339999945,None,None,,62.50960329999998,63.694386099999974,0.5112193000004481,0.594673600000533,1.7129355000006399,1.7965066000006118,,,,,syed_2,001,2020_Feb_07_1537,posner,3.1.5,59.87690505849263,
0.5,180,1,right,2,4,0,0,0,0,2,6,22,6,,,,,,,,,64.07891399999971,64.57910019999963,65.29661029999988,None,64.59572859999935,65.28008049999971,65.79734029999963,None,right,1,0.25958100000025297,65.79734029999963,None,None,,64.59572859999935,65.7804956,0.5117577000000892,0.5950546000003669,1.713140900000326,1.796758000000409,,,,,syed_2,001,2020_Feb_07_1537,posner,3.1.5,59.87690505849263,
-0.5,0,1,left,1,3,0,0,0,0,2,7,23,2,,,,,,,,,66.08197959999961,66.58146870000019,67.2994192999995,None,66.59854649999943,67.28271640000003,67.8002704999999,None,left,1,0.32877280000047904,67.8002704999999,None,None,,66.59854649999943,67.78327899999931,0.5115154000004623,0.5951990000003207,1.713309499999923,1.7968876000004457,,,,,syed_2,001,2020_Feb_07_1537,posner,3.1.5,59.87690505849263,
0.5,180,1,right,2,4,0,0,0,0,3,0,24,5,,,,,,,,,68.15182000000004,68.65152129999933,69.36891769999966,None,68.6680069999993,69.35218359999999,69.86954449999939,None,right,1,0.25948890000017855,69.86954449999939,None,None,,68.6680069999993,69.85281589999977,0.5119081000002552,0.5950780000002851,1.7131886000006489,1.7968906000005518,,,,,syed_2,001,2020_Feb_07_1537,posner,3.1.5,59.87690505849263,
0.5,180,1,right,2,4,0,0,0,0,3,1,25,6,,,,,,,,,70.15464509999947,70.65414599999986,71.37151879999965,None,70.67054800000005,71.35511779999979,71.87221390000013,None,right,1,0.32074419999935344,71.87221390000013,None,None,,70.67054800000005,71.8555421000001,0.5118194999995467,0.595097700000224,1.7131946999998036,1.7969481000000087,,,,,syed_2,001,2020_Feb_07_1537,posner,3.1.5,59.87690505849263,
-0.5,0,1,left,1,3,0,0,0,0,3,2,26,2,,,,,,,,,72.2235686999993,72.72348669999974,73.4411455999998,None,72.74016239999946,73.4243292000001,73.9418754999997,None,left,1,0.2832146999999168,73.9418754999997,None,None,,72.74016239999946,73.92533989999993,0.5116637999999512,0.5951783000000432,1.7134934999994584,1.796818699999676,,,,,syed_2,001,2020_Feb_07_1537,posner,3.1.5,59.87690505849263,
-0.5,0,1,left,1,3,0,0,0,0,3,3,27,0,,,,,,,,,74.24321640000016,74.74275289999969,75.4607403,None,74.75982979999935,75.44383769999968,75.96121640000001,None,left,1,0.31173429999944346,75.96121640000001,None,None,,74.75982979999935,75.94461799999954,0.5111576999997851,0.5948054999998931,1.7130120000001625,1.7965293999995993,,,,,syed_2,001,2020_Feb_07_1537,posner,3.1.5,59.87690505849263,
-0.5,180,0,left,2,3,0,0,0,0,3,4,28,4,,,,,,,,,76.29629849999947,76.79595749999953,77.51344340000014,None,76.81239109999933,77.49680009999975,78.01417969999966,None,left,1,0.29899050000040006,78.01417969999966,None,None,,76.81239109999933,77.99736719999964,0.5115288999995755,0.5949289000000135,1.7129249999998137,1.7964253000000099,,,,,syed_2,001,2020_Feb_07_1537,posner,3.1.5,59.87690505849263,
-0.5,0,1,left,1,3,0,0,0,0,3,5,29,1,,,,,,,,,78.33214869999938,78.83182189999934,79.54957299999933,None,78.84863889999997,79.53277209999942,80.05029229999946,None,left,1,0.3507303000005777,80.05029229999946,None,None,,78.84863889999997,80.03348310000001,0.5114793000002464,0.5950567999998384,1.7131240999997317,1.7969192000000476,,,,,syed_2,001,2020_Feb_07_1537,posner,3.1.5,59.87690505849263,
0.5,0,0,right,1,4,0,0,0,0,3,6,30,3,,,,,,,,,80.41872059999969,80.91819659999965,81.6359623999997,None,80.93498480000017,81.61925419999989,82.13657890000013,None,right,1,0.3203961999997773,82.13657890000013,None,None,,80.93498480000017,82.11975559999973,0.5113489999994272,0.5945162999996683,1.7128948999998101,1.7962139000001116,,,,,syed_2,001,2020_Feb_07_1537,posner,3.1.5,59.87690505849263,
0.5,180,1,right,2,4,0,0,0,0,3,7,31,7,,,,,,,,,82.48753669999951,82.98762110000007,83.70550589999948,None,83.00436039999931,83.68871089999993,84.20597739999994,None,right,1,0.2909477999992305,84.20597739999994,None,None,,83.00436039999931,84.18941249999989,0.5117470999994111,0.595064099999945,1.7135166999996727,1.7969195999994554,,,,,syed_2,001,2020_Feb_07_1537,posner,3.1.5,59.87690505849263,
0.5,0,0,right,1,4,0,0,0,0,4,0,32,3,,,,,,,,,84.52407940000012,85.02359509999951,85.74127580000004,None,85.04046019999987,85.72477960000015,86.24205110000003,None,right,1,0.278863999999885,86.24205110000003,None,None,,85.04046019999987,86.22561659999974,0.5113611000006131,0.5949940000000424,1.7133639000003313,1.7967208999998547,,,,,syed_2,001,2020_Feb_07_1537,posner,3.1.5,59.87690505849263,
0.5,180,1,right,2,4,0,0,0,0,4,1,33,7,,,,,,,,,86.54358989999946,87.04307019999942,87.7611068999995,None,87.05999209999936,87.74423369999931,88.26150150000012,None,right,1,0.2753726999999344,88.26150150000012,None,None,,87.05999209999936,88.2448932999996,0.5114126999997097,0.5950428999994983,1.7132105999999112,1.796624300000076,,,,,syed_2,001,2020_Feb_07_1537,posner,3.1.5,59.87690505849263,
-0.5,0,1,left,1,3,0,0,0,0,4,2,34,2,,,,,,,,,88.56274089999988,89.06258759999946,89.7803130000002,None,89.07943299999988,89.76369419999992,90.2810101999994,90.76511829999981,None,0,,90.2810101999994,None,None,,89.07943299999988,90.26427349999994,0.5116371999993135,0.5952011999997922,1.713309599999775,1.7967580999993515,,,,,syed_2,001,2020_Feb_07_1537,posner,3.1.5,59.87690505849263,
-0.5,180,0,left,2,3,0,0,0,0,4,3,35,4,,,,,,,,,91.26582049999979,91.76635309999983,92.48390380000001,91.26582049999979,91.78294909999931,92.46738109999933,92.98468689999936,None,left,1,0.3762144000002081,92.98468689999936,None,None,,91.78294909999931,92.96806519999973,0.513730000000578,0.5973802999997133,1.7154172999998991,1.798729099999946,,,,,syed_2,001,2020_Feb_07_1537,posner,3.1.5,59.87690505849263,
0.5,180,1,right,2,4,0,0,0,0,4,4,36,5,,,,,,,,,93.38619949999975,93.88577189999978,94.60359859999971,None,93.90258409999933,94.58688230000007,95.10425709999981,None,right,1,0.32070400000066,95.10425709999981,None,None,,93.90258409999933,95.08774360000007,0.5112576999999874,0.5949753999993845,1.7132020999997621,1.7964203999999881,,,,,syed_2,001,2020_Feb_07_1537,posner,3.1.5,59.87690505849263,
-0.5,0,1,left,1,3,0,0,0,0,4,5,37,1,,,,,,,,,95.4556107999997,95.95553549999931,96.6730536999994,None,95.97202359999937,96.65637619999961,97.17376139999942,None,left,1,0.28316259999974136,97.17376139999942,None,None,,95.97202359999937,97.15707440000006,0.5115889999997307,0.5950973999997586,1.7131147000000055,1.7965354999996634,,,,,syed_2,001,2020_Feb_07_1537,posner,3.1.5,59.87690505849263,
0.5,180,1,right,2,4,0,0,0,0,4,6,38,6,,,,,,,,,97.47544769999968,97.97489229999974,98.69240339999942,None,97.99153130000013,98.67582719999973,99.19315579999966,None,right,1,0.26381409999976313,99.19315579999966,None,None,,97.99153130000013,99.17661339999995,0.5116229999994175,0.5952971999995498,1.713324499999544,1.7968025000000125,,,,,syed_2,001,2020_Feb_07_1537,posner,3.1.5,59.87690505849263,
-0.5,0,1,left,1,3,0,0,0,0,4,7,39,0,,,,,,,,,99.47796490000019,99.9777051000001,100.6953695000002,None,99.99443259999953,100.67853439999999,101.19611859999986,None,right,0,0.2767433999997593,101.19611859999986,None,None,,99.99443259999953,101.17943620000005,0.5112854000008156,0.5946827000007033,1.712999100000161,1.7963410000002114,,,,,syed_2,001,2020_Feb_07_1537,posner,3.1.5,59.87690505849263,
-0.5,180,0,left,2,3,0,0,0,0,5,0,40,4,,,,,,,,,101.49716609999996,101.99711250000018,102.71480249999968,None,102.01381089999995,102.69812889999957,103.21545679999963,None,left,1,0.3534134000001359,103.21545679999963,None,None,,102.01381089999995,103.19901539999955,0.511706199999935,0.5951374000005671,1.7135792999997648,1.796795000000202,,,,,syed_2,001,2020_Feb_07_1537,posner,3.1.5,59.87690505849263,
-0.5,0,1,left,1,3,0,0,0,0,5,1,41,0,,,,,,,,,103.59994000000006,104.1000342999996,104.81763359999968,None,104.11667639999996,104.80094300000019,105.31838530000005,None,left,1,0.3065545999997994,105.31838530000005,None,None,,104.11667639999996,105.30150229999981,0.5116899000004196,0.5949626999999964,1.7131426000005376,1.7970107999999527,,,,,syed_2,001,2020_Feb_07_1537,posner,3.1.5,59.87690505849263,
-0.5,0,1,left,1,3,0,0,0,0,5,2,42,1,,,,,,,,,105.65360199999941,106.15309829999933,106.8705087999997,None,106.16963759999999,106.85376550000001,107.37101489999986,None,left,1,0.2938790999996854,107.37101489999986,None,None,,106.16963759999999,107.3547282999998,0.5117901000003258,0.5949199999995471,1.7133966000001237,1.796712800000023,,,,,syed_2,001,2020_Feb_07_1537,posner,3.1.5,59.87690505849263,
-0.5,0,1,left,1,3,0,0,0,0,5,3,43,2,,,,,,,,,107.6889384999995,108.18918969999959,108.90656179999951,None,108.2057421999998,108.88999069999954,109.4072744999994,None,left,1,0.30563359999996464,109.4072744999994,None,None,,108.2057421999998,109.39065159999973,0.5119899000001169,0.59517440000036,1.7134399000005942,1.7968901000003825,,,,,syed_2,001,2020_Feb_07_1537,posner,3.1.5,59.87690505849263,
0.5,180,1,right,2,4,0,0,0,0,5,4,44,7,,,,,,,,,109.74154790000011,110.2417876999998,110.95967709999968,None,110.25843410000016,110.94274549999955,111.46035659999961,None,right,1,0.32452029999967635,111.46035659999961,None,None,,110.25843410000016,111.44336589999966,0.5119543999999223,0.5955463000000236,1.7135152999999264,1.797087900000406,,,,,syed_2,001,2020_Feb_07_1537,posner,3.1.5,59.87690505849263,
0.5,0,0,right,1,4,0,0,0,0,5,5,45,3,,,,,,,,,111.81161679999968,112.31124699999964,113.02888840000014,None,112.3280066999996,113.01220980000016,113.52952730000015,None,right,1,0.31153619999986404,113.52952730000015,None,None,,112.3280066999996,113.51293819999955,0.5117049000000407,0.5953191999997216,1.7133738000002268,1.7968088999996326,,,,,syed_2,001,2020_Feb_07_1537,posner,3.1.5,59.87690505849263,
0.5,180,1,right,2,4,0,0,0,0,5,6,46,5,,,,,,,,,113.86439789999986,114.36406159999933,115.0816907999997,None,114.38062549999995,115.06506899999931,115.58260559999962,None,right,1,0.3303071000000273,115.58260559999962,None,None,,114.38062549999995,115.56568059999972,0.5115482999999585,0.5952151999999842,1.7131532000003062,1.7972826000004716,,,,,syed_2,001,2020_Feb_07_1537,posner,3.1.5,59.87690505849263,
0.5,180,1,right,2,4,0,0,0,0,5,7,47,6,,,,,,,,,115.9340831999998,116.4335503000002,117.15151719999994,None,116.45044349999989,117.13465550000001,117.65223329999935,None,right,1,0.45253690000026836,117.65223329999935,None,None,,116.45044349999989,117.63544490000004,0.5114962000006926,0.5952590000006239,1.713371100000586,1.7967425000006187,,,,,syed_2,001,2020_Feb_07_1537,posner,3.1.5,59.87690505849263,
0.5,0,0,right,1,4,0,0,0,0,6,0,48,3,,,,,,,,,118.13661279999997,118.63664679999965,119.35427889999937,None,118.65352579999944,119.33776119999948,119.85509289999936,118.13661279999997,right,1,0.3696872999998959,119.85509289999936,None,None,,118.65352579999944,119.8384804999996,0.5114696000000549,0.5948418999996647,1.713286700000026,1.7964070999996693,,,,,syed_2,001,2020_Feb_07_1537,posner,3.1.5,59.87690505849263,
0.5,180,1,right,2,4,0,0,0,0,6,1,49,6,,,,,,,,,120.2563854,120.75636549999945,121.47373619999962,None,120.77286969999932,121.45732339999995,121.97474559999955,None,right,1,0.3620470000005298,121.97474559999955,None,None,,120.77286969999932,121.95809159999953,0.5115649999997913,0.5950773999993544,1.7132776999997077,1.7964244999993753,,,,,syed_2,001,2020_Feb_07_1537,posner,3.1.5,59.87690505849263,
0.5,180,1,right,2,4,0,0,0,0,6,2,50,7,,,,,,,,,122.3595519999999,122.85925169999973,123.57675589999963,None,122.87599150000005,123.56019819999983,124.07756309999968,None,right,1,0.39546529999915947,124.07756309999968,None,None,,122.87599150000005,124.06079510000018,0.5116478999998435,0.5949101999995037,1.7131726999996317,1.7965499000001728,,,,,syed_2,001,2020_Feb_07_1537,posner,3.1.5,59.87690505849263,
-0.5,0,1,left,1,3,0,0,0,0,6,3,51,2,,,,,,,,,124.49612590000015,124.99556219999977,125.7130376999994,None,125.0120724999997,125.69635289999951,126.21387979999963,None,left,1,0.30698279999978695,126.21387979999963,None,None,,125.0120724999997,126.19740739999997,0.5114492000002429,0.5948646999995617,1.7132762000001094,1.7963475999995353,,,,,syed_2,001,2020_Feb_07_1537,posner,3.1.5,59.87690505849263,
-0.5,180,0,left,2,3,0,0,0,0,6,4,52,4,,,,,,,,,126.54773729999943,127.0481719999998,127.76589549999971,None,127.06501560000015,127.74920870000005,128.26651579999998,None,left,1,0.28616280000005645,128.26651579999998,None,None,,127.06501560000015,128.2500046999994,0.5122487999997247,0.5956809999997859,1.7140562999993563,1.7972829999998794,,,,,syed_2,001,2020_Feb_07_1537,posner,3.1.5,59.87690505849263,
-0.5,0,1,left,1,3,0,0,0,0,6,5,53,0,,,,,,,,,128.58455609999965,129.08431130000008,129.80193789999976,None,129.10086859999956,129.78544770000008,130.30259469999964,None,left,1,0.2823372999991989,130.30259469999964,None,None,,129.10086859999956,130.28606539999964,0.5115588999997271,0.5950985999998011,1.7132785000003423,1.7969481000000087,,,,,syed_2,001,2020_Feb_07_1537,posner,3.1.5,59.87690505849263,
-0.5,0,1,left,1,3,0,0,0,0,6,6,54,1,,,,,,,,,130.60407309999937,131.10381049999978,131.8214629999993,None,131.1205635999995,131.80468909999945,132.32204829999955,None,left,1,0.29487520000020595,132.32204829999955,None,None,,131.1205635999995,132.30543519999992,0.5117006000000401,0.5953202000000601,1.7132988000003024,1.796794100000625,,,,,syed_2,001,2020_Feb_07_1537,posner,3.1.5,59.87690505849263,
0.5,180,1,right,2,4,0,0,0,0,6,7,55,5,,,,,,,,,132.63999460000014,133.1399080000001,133.85761920000004,None,133.15660190000017,133.8408244000002,134.35836469999958,None,right,1,0.2905521000002409,134.35836469999958,None,None,,133.15660190000017,134.34133479999946,0.5116963000000396,0.5951793000003818,1.7131100000005972,1.7968138000005638,,,,,syed_2,001,2020_Feb_07_1537,posner,3.1.5,59.87690505849263,
-0.5,0,1,left,1,3,0,0,0,0,7,0,56,0,,,,,,,,,134.67615999999998,135.17607839999982,135.8937425999993,None,135.19262319999962,135.87708680000014,136.39455399999952,None,left,1,0.29465609999988374,136.39455399999952,None,None,,135.19262319999962,136.3778225999995,0.511748500000067,0.5954197999999451,1.713479500000176,1.7967782000005172,,,,,syed_2,001,2020_Feb_07_1537,posner,3.1.5,59.87690505849263,
0.5,180,1,right,2,4,0,0,0,0,7,1,57,7,,,,,,,,,136.71270800000002,137.21218659999977,137.92991249999977,None,137.22904310000013,137.9132052999994,138.4304205999997,None,right,1,0.29046939999989263,138.4304205999997,None,None,,137.22904310000013,138.41372989999945,0.5114259000001766,0.5950143999998545,1.7129487000001973,1.7965163999997458,,,,,syed_2,001,2020_Feb_07_1537,posner,3.1.5,59.87690505849263,
-0.5,0,1,left,1,3,0,0,0,0,7,2,58,2,,,,,,,,,138.74882639999942,139.24846639999942,139.9659916999999,None,139.26501169999938,139.94927149999967,140.4667671999996,None,left,1,0.3579975000002378,140.4667671999996,None,None,,139.26501169999938,140.4499326999994,0.5115344999994704,0.594728899999609,1.7129835999994611,1.7964461999999912,,,,,syed_2,001,2020_Feb_07_1537,posner,3.1.5,59.87690505849263,
-0.5,180,0,left,2,3,0,0,0,0,7,3,59,4,,,,,,,,,140.8512155999997,141.35105459999977,142.06890019999992,None,141.36796460000005,142.05206249999992,142.56971919999978,None,left,1,0.431069799999932,142.56971919999978,None,None,,141.36796460000005,142.5529077000001,0.5118698000005679,0.5954968000005465,1.7137015000007523,1.7972687000001315,,,,,syed_2,001,2020_Feb_07_1537,posner,3.1.5,59.87690505849263,
0.5,0,0,right,1,4,0,0,0,0,7,4,60,3,,,,,,,,,143.02121350000016,143.52073609999934,144.23874859999978,None,143.53774749999957,144.22169419999955,144.73917239999992,None,left,0,0.2935877999998411,144.73917239999992,None,None,,143.53774749999957,144.72243499999968,0.5111906000001909,0.5947247000003699,1.7128707000001668,1.7966034999999465,,,,,syed_2,001,2020_Feb_07_1537,posner,3.1.5,59.87690505849263,
-0.5,0,1,left,1,3,0,0,0,0,7,5,61,1,,,,,,,,,145.05713219999961,145.55702689999998,146.2746430999996,None,145.57362550000016,146.25803319999977,146.77557590000015,None,left,1,0.32110689999990427,146.77557590000015,None,None,,145.57362550000016,146.75881879999997,0.5115992999999435,0.5951067999994848,1.7133781999991697,1.7966465999998036,,,,,syed_2,001,2020_Feb_07_1537,posner,3.1.5,59.87690505849263,
0.5,180,1,right,2,4,0,0,0,0,7,6,62,5,,,,,,,,,147.12676769999962,147.6265061999993,148.34437160000016,None,147.6431289000002,148.3275119,148.84489070000018,None,right,1,0.32391829999960464,148.84489070000018,None,None,,147.6431289000002,148.82829820000006,0.5112349999999424,0.5948611000003439,1.7130065000001196,1.7963238000002093,,,,,syed_2,001,2020_Feb_07_1537,posner,3.1.5,59.87690505849263,
0.5,180,1,right,2,4,0,0,0,0,7,7,63,6,,,,,,,,,149.19578060000003,149.69613560000016,150.41375639999933,None,149.71278239999992,150.39722230000007,150.91446899999937,None,right,1,0.27821140000014566,150.91446899999937,None,None,,149.71278239999992,150.89782729999934,0.5124660999999833,0.5958026999996946,1.7141390999995565,1.7973274999994828,,,,,syed_2,001,2020_Feb_07_1537,posner,3.1.5,59.87690505849263,
-0.5,0,1,left,1,3,0,0,0,0,8,0,64,2,,,,,,,,,151.2159342999994,151.7154875999995,152.43301019999944,None,151.7320396999994,152.4165108999996,152.9339788999996,None,left,1,0.3307089999998425,152.9339788999996,None,None,,151.7320396999994,152.91708370000015,0.5113919999994323,0.5949576999992132,1.7129615999992893,1.796368999999686,,,,,syed_2,001,2020_Feb_07_1537,posner,3.1.5,59.87690505849263,
0.5,180,1,right,2,4,0,0,0,0,8,1,65,6,,,,,,,,,153.28537049999977,153.78503779999937,154.50259209999967,None,153.80171439999958,154.48599099999956,155.0034373999997,None,right,1,0.3252726000000621,155.0034373999997,None,None,,153.80171439999958,154.98670459999994,0.5115606999997908,0.5949041999992914,1.7132056999998895,1.7968227999999726,,,,,syed_2,001,2020_Feb_07_1537,posner,3.1.5,59.87690505849263,
0.5,180,1,right,2,4,0,0,0,0,8,2,66,7,,,,,,,,,155.35462430000007,155.85459679999985,156.5722568000001,None,155.87108799999987,156.55553299999974,157.07280509999964,None,right,1,0.3198634000000311,157.07280509999964,None,None,,155.87108799999987,157.05624739999985,0.5117809000003035,0.5951941000002989,1.7134069000003365,1.7968842000000222,,,,,syed_2,001,2020_Feb_07_1537,posner,3.1.5,59.87690505849263,
-0.5,0,1,left,1,3,0,0,0,0,8,3,67,1,,,,,,,,,157.42408729999988,157.92403419999937,158.64154719999988,None,157.9407943999995,158.6249828,159.14218989999972,None,left,1,0.32244400000035967,159.14218989999972,None,None,,157.9407943999995,159.1257482000001,0.5116778999999951,0.5952916000005644,1.7133395000000746,1.796823300000142,,,,,syed_2,001,2020_Feb_07_1537,posner,3.1.5,59.87690505849263,
-0.5,0,1,left,1,3,0,0,0,0,8,4,68,0,,,,,,,,,159.49380649999966,159.99347839999973,160.7110931999996,None,160.01035069999944,160.69450529999995,161.21191110000018,None,left,1,0.3647590000000491,161.21191110000018,None,None,,160.01035069999944,161.19528639999953,0.511645800000224,0.5952256000000489,1.7134052000001248,1.7968731999999363,,,,,syed_2,001,2020_Feb_07_1537,posner,3.1.5,59.87690505849263,
0.5,0,0,right,1,4,0,0,0,0,8,5,69,3,,,,,,,,,161.59690339999997,162.09638610000002,162.8144315999998,None,162.113163,162.79747249999946,163.31494250000014,None,right,1,0.3576873000001797,163.31494250000014,None,None,,162.113163,163.2982403999995,0.5112512999994578,0.5947642999999516,1.7130802000001495,1.7962852999999086,,,,,syed_2,001,2020_Feb_07_1537,posner,3.1.5,59.87690505849263,
0.5,180,1,right,2,4,0,0,0,0,8,6,70,5,,,,,,,,,163.6994593999998,164.1993112,164.91707419999966,None,164.21609139999964,164.9002548999997,165.41763629999969,None,right,1,0.42321309999988443,165.41763629999969,None,None,,164.21609139999964,165.40087159999985,0.5115943000000698,0.5948988999998619,1.713138699999945,1.7967373000001317,,,,,syed_2,001,2020_Feb_07_1537,posner,3.1.5,59.87690505849263,
-0.5,180,0,left,2,3,0,0,0,0,8,7,71,4,,,,,,,,,165.86916609999935,166.36917249999988,167.0867159999998,None,166.38575450000008,167.06990570000016,167.58744089999982,None,left,1,0.41314799999963725,167.58744089999982,None,None,,166.38575450000008,167.57048619999932,0.5118769999999131,0.595018699999855,1.7131781000007322,1.7971901000000798,,,,,syed_2,001,2020_Feb_07_1537,posner,3.1.5,59.87690505849263,
-0.5,0,1,left,1,3,0,0,0,0,9,0,72,0,,,,,,,,,168.02159560000018,168.52184959999977,169.23955810000007,None,168.53866319999997,169.2229213999999,169.74034049999955,None,left,1,0.3882631999995283,169.74034049999955,None,None,,168.53866319999997,169.72360639999988,0.5121731999997792,0.5957701999996061,1.7139113000002908,1.7974745000001349,,,,,syed_2,001,2020_Feb_07_1537,posner,3.1.5,59.87690505849263,
0.5,180,1,right,2,4,0,0,0,0,9,1,73,6,,,,,,,,,170.1584899999998,170.6581815999998,171.37586610000017,None,170.67502009999953,171.35935869999958,171.87660219999998,172.36051020000014,right,1,0.48401749999993626,171.87660219999998,None,None,,170.67502009999953,171.8599983999993,0.511689999999362,0.59516689999964,1.713483499999711,1.7967628999995213,,,,,syed_2,001,2020_Feb_07_1537,posner,3.1.5,59.87690505849263,
-0.5,0,1,left,1,3,0,0,0,0,9,2,74,1,,,,,,,,,172.3780614999996,172.87799219999943,173.59570110000004,None,172.8948789999995,173.57891130000007,174.0962830999997,174.58019499999955,left,1,0.7444924999999785,174.0962830999997,None,None,,172.8948789999995,174.07964859999993,0.511895700000423,0.595530300000064,1.7135260000004564,1.7969358000000284,,,,,syed_2,001,2020_Feb_07_1537,posner,3.1.5,59.87690505849263,
0.5,0,0,right,1,4,0,0,0,0,9,3,75,3,,,,,,,,,174.86518220000016,175.36468650000006,176.08234720000019,None,175.3811956999998,176.06565039999987,176.5829507999997,None,right,1,0.28977579999991576,176.5829507999997,None,None,,175.3811956999998,176.56641649999983,0.5115258000005269,0.5950136999999813,1.713238199999978,1.7967488000003868,,,,,syed_2,001,2020_Feb_07_1537,posner,3.1.5,59.87690505849263,
0.5,180,1,right,2,4,0,0,0,0,9,4,76,5,,,,,,,,,176.9009457000002,177.40079460000015,178.11848670000018,None,177.41747709999981,178.10178459999952,178.6191600000002,None,right,1,0.33354700000018056,178.6191600000002,None,None,,177.41747709999981,178.60252599999967,0.51141860000007,0.5951855999992404,1.713130899999669,1.7966380999996545,,,,,syed_2,001,2020_Feb_07_1537,posner,3.1.5,59.87690505849263,
-0.5,0,1,left,1,3,0,0,0,0,9,5,77,2,,,,,,,,,178.9705100000001,179.4703638000001,180.1880502999993,None,179.48713409999982,180.1711395000002,180.68864500000018,None,left,1,0.41600219999963883,180.68864500000018,None,None,,179.48713409999982,180.67186330000004,0.5116526000001613,0.5952817000006689,1.7131319000000076,1.7966626000006727,,,,,syed_2,001,2020_Feb_07_1537,posner,3.1.5,59.87690505849263,
0.5,180,1,right,2,4,0,0,0,0,9,6,78,7,,,,,,,,,181.12242069999957,181.62321949999932,182.34087120000004,None,181.6399453999993,182.32419449999998,182.84159959999943,None,right,1,0.34303929999987304,182.84159959999943,None,None,,181.6399453999993,182.82506229999944,0.5123130000001765,0.5959157999996023,1.714131400000042,1.7973642999995718,,,,,syed_2,001,2020_Feb_07_1537,posner,3.1.5,59.87690505849263,
-0.5,180,0,left,2,3,0,0,0,0,9,7,79,4,,,,,,,,,183.2098844000002,183.70970209999996,184.4271122,None,183.72629869999946,184.41049209999983,184.9278892000002,None,left,1,0.39269400000011956,184.9278892000002,None,None,,183.72629869999946,184.91117919999942,0.5118366000006063,0.5950298000007024,1.7133124000001771,1.7968120000005001,,,,,syed_2,001,2020_Feb_07_1537,posner,3.1.5,59.87690505849263,
0.5,180,1,right,2,4,0,0,0,0,10,0,80,6,,,,,,,,,185.34609629999977,185.84577799999988,186.56351379999978,None,185.86241419999988,186.5468106999997,187.06427369999983,None,right,1,0.40833519999978307,187.06427369999983,None,None,,185.86241419999988,187.0474411999994,0.5115807000001951,0.5951555999999982,1.7132280000005267,1.7966393000006065,,,,,syed_2,001,2020_Feb_07_1537,posner,3.1.5,59.87690505849263,
0.5,0,0,right,1,4,0,0,0,0,10,1,81,3,,,,,,,,,187.4992857999996,187.99888670000018,188.71638389999953,None,188.01547579999988,188.69968489999974,189.21708239999953,None,right,1,0.42383560000052967,189.21708239999953,None,None,,188.01547579999988,189.2004348999999,0.5116200000002209,0.5949118999997154,1.7131522999998197,1.7965463000000454,,,,,syed_2,001,2020_Feb_07_1537,posner,3.1.5,59.87690505849263,
0.5,180,1,right,2,4,0,0,0,0,10,2,82,5,,,,,,,,,189.66851529999985,190.16846410000016,190.88606209999944,None,190.18521819999933,190.8694716,191.38686619999953,None,right,1,0.357597899999746,191.38686619999953,None,None,,190.18521819999933,191.36991829999988,0.5115723999997499,0.5948657999997522,1.7130134999997608,1.7966216000004351,,,,,syed_2,001,2020_Feb_07_1537,posner,3.1.5,59.87690505849263,
-0.5,0,1,left,1,3,0,0,0,0,10,3,83,0,,,,,,,,,191.77155679999942,192.27117929999986,192.98901549999937,None,192.28813039999932,192.97220219999963,193.48955169999954,None,left,1,0.31092350000017177,193.48955169999954,None,None,,192.28813039999932,193.47293069999978,0.5115963999996893,0.5950942999998006,1.7133225999996284,1.7967975999999908,,,,,syed_2,001,2020_Feb_07_1537,posner,3.1.5,59.87690505849263,
0.5,180,1,right,2,4,0,0,0,0,10,4,84,7,,,,,,,,,193.82495569999992,194.32399949999945,195.04178820000016,None,194.34087839999938,195.0251761999998,195.5423654999995,None,right,1,0.2902904000002309,195.5423654999995,None,None,,194.34087839999938,195.52598169999965,0.5112300000000687,0.5947486000004574,1.7131842000007964,1.7965297000000646,,,,,syed_2,001,2020_Feb_07_1537,posner,3.1.5,59.87690505849263,
-0.5,180,0,left,2,3,0,0,0,0,10,5,85,4,,,,,,,,,195.86038259999987,196.3602578,197.07820829999946,None,196.37696569999935,197.06122950000008,197.57863980000002,None,left,1,0.34191139999984443,197.57863980000002,None,None,,196.37696569999935,197.5617857999996,0.5117397000003621,0.5951542000002519,1.7132497000002331,1.7968560999997862,,,,,syed_2,001,2020_Feb_07_1537,posner,3.1.5,59.87690505849263,
-0.5,0,1,left,1,3,0,0,0,0,10,6,86,2,,,,,,,,,197.94658359999994,198.44648419999976,199.1640981999999,None,198.46307359999992,199.14745289999973,199.66488599999957,None,left,1,0.3755977000000712,199.66488599999957,None,None,,198.46307359999992,199.64822430000004,0.5115143999992142,0.5949619999992137,1.7132254999996803,1.7965183999995133,,,,,syed_2,001,2020_Feb_07_1537,posner,3.1.5,59.87690505849263,
-0.5,0,1,left,1,3,0,0,0,0,10,7,87,1,,,,,,,,,200.0663027999999,200.56605299999956,201.28363489999992,None,200.5825992,201.26709560000018,201.78429789999973,None,left,1,0.44041659999948024,201.78429789999973,None,None,,200.5825992,201.76780589999998,0.5115485999995144,0.5953317999992578,1.713281299999835,1.7966819999992367,,,,,syed_2,001,2020_Feb_07_1537,posner,3.1.5,59.87690505849263,
,,,,,,0,0,0,0,,,,,,,,,,,,,,,,,,,,,,,,,,,,,,,,,,202.2527613000002,None,1.7800000023271423e-05,0.9958846999998059,syed_2,001,2020_Feb_07_1537,posner,3.1.5,59.87690505849263,
0.5,180,1,right,2,4,1,0,1,0,0,0,0,5,1.1399999493733048e-05,0.09758169999986421,263.2689687000002,None,1.5100000382517464e-05,0.09784639999998035,265.37179639999977,None,265.6494628999999,266.15635119999934,266.85722739999983,None,266.1727757999997,266.85722739999983,267.3580274999995,None,right,1,0.30637899999965157,267.3580274999995,None,None,,266.1727757999997,267.3580274999995,0.5163232000004427,0.599568100000397,1.7010486999997738,1.8012877999999546,,,,,syed_2,001,2020_Feb_07_1537,posner,3.1.5,59.87690505849263,
0.5,180,1,right,2,4,1,0,1,0,0,1,1,6,,,,,,,,,267.69367069999953,268.19239819999984,268.9101549999996,None,268.2091485000001,268.89333350000015,269.4106689,None,right,1,0.23756190000040078,269.4106689,None,None,,268.2091485000001,269.3941047999997,0.5108949999994365,0.5944111999997403,1.7125682999994751,1.7961686999997255,,,,,syed_2,001,2020_Feb_07_1537,posner,3.1.5,59.87690505849263,
-0.5,0,1,left,1,3,1,0,1,0,0,2,2,2,,,,,,,,,269.6783607999996,270.1786807999997,270.8961197999997,None,270.1950687999997,270.8793928999994,271.3969092999996,None,left,1,0.2914120000004914,271.3969092999996,None,None,,270.1950687999997,271.3803221999997,0.5119223000001512,0.595089100000223,1.713548699999592,1.7967852000001585,,,,,syed_2,001,2020_Feb_07_1537,posner,3.1.5,59.87690505849263,
0.5,180,1,right,2,4,1,0,1,0,0,3,3,7,,,,,,,,,271.71497649999947,272.2146781000001,272.93240779999996,None,272.23122819999935,272.91564169999947,273.43289209999966,None,right,1,0.2873674000002211,273.43289209999966,None,None,,272.23122819999935,273.41621570000007,0.5116356999997151,0.5951511000002938,1.7131500999994387,1.7967736000000514,,,,,syed_2,001,2020_Feb_07_1537,posner,3.1.5,59.87690505849263,
-0.5,0,1,left,1,3,1,0,1,0,0,4,4,0,,,,,,,,,273.7507737999995,274.2506392999994,274.9685448,None,274.26749870000003,274.9515110000002,275.46920339999997,None,left,1,0.29095950000009907,275.46920339999997,None,None,,274.26749870000003,275.45230209999954,0.5115560000003825,0.5952883999998448,1.7131961000004594,1.796804599999632,,,,,syed_2,001,2020_Feb_07_1537,posner,3.1.5,59.87690505849263,
-0.5,0,1,left,1,3,1,0,1,0,0,5,5,1,,,,,,,,,275.7870560000001,276.2868539000001,277.00451599999997,None,276.30362499999956,276.9879641999996,277.5053637000001,None,left,1,0.32688170000074024,277.5053637000001,None,None,,276.30362499999956,277.4887411999998,0.5114285999998174,0.5948720000005778,1.7132940999999846,1.7965724000005139,,,,,syed_2,001,2020_Feb_07_1537,posner,3.1.5,59.87690505849263,
0.5,0,0,right,1,4,1,0,1,0,0,6,6,3,,,,,,,,,277.8561616999996,278.3563639999993,279.0741889000001,None,278.37304140000015,279.0573483999997,279.57492379999985,None,right,1,0.3133399999996982,279.57492379999985,None,None,,278.37304140000015,279.55806119999943,0.5119150000000445,0.5952728000002026,1.713599300000169,1.7968455000000176,,,,,syed_2,001,2020_Feb_07_1537,posner,3.1.5,59.87690505849263,
-0.5,180,0,left,2,3,1,0,1,0,0,7,7,4,,,,,,,,,279.90928170000007,280.4094363999993,281.1267762999996,None,280.42601190000005,281.11022049999974,281.6275986999999,None,right,0,0.30070660000001226,281.6275986999999,None,None,,280.42601190000005,281.6108140999995,0.5119576000006418,0.594975400000294,1.7133229999999458,1.7969763000000967,,,,,syed_2,001,2020_Feb_07_1537,posner,3.1.5,59.87690505849263,
-0.5,180,0,left,2,3,1,0,1,0,1,0,8,4,,,,,,,,,281.9453696999999,282.4454157,283.1630365000001,None,282.4619161999999,283.1462898,283.66383809999934,None,left,1,0.280553399999917,283.66383809999934,None,None,,282.4619161999999,283.64712189999955,0.5117171999991115,0.5951608999994278,1.713398199999574,1.7965843999991193,,,,,syed_2,001,2020_Feb_07_1537,posner,3.1.5,59.87690505849263,
-0.5,0,1,left,1,3,1,0,1,0,1,1,9,2,,,,,,,,,283.9653598999994,284.46487629999956,285.1824405999996,None,284.4813677000002,285.1658023,285.6830583000001,None,left,1,0.3332037999998647,285.6830583000001,None,None,,284.4813677000002,285.6665076999998,0.5113490000003367,0.5948275999999169,1.7129662999996071,1.7965194999997038,,,,,syed_2,001,2020_Feb_07_1537,posner,3.1.5,59.87690505849263,
0.5,180,1,right,2,4,1,0,1,0,1,2,10,5,,,,,,,,,286.0348119,286.5344368999995,287.2518166,None,286.5510000999993,287.23535170000014,287.75267149999945,None,right,1,0.32737469999938185,287.75267149999945,None,None,,286.5510000999993,287.7360570000001,0.5115426000002117,0.5949006999999256,1.7131500999994387,1.7966113000002224,,,,,syed_2,001,2020_Feb_07_1537,posner,3.1.5,59.87690505849263,
-0.5,0,1,left,1,3,1,0,1,0,1,3,11,0,,,,,,,,,288.1040207999995,288.6039178000001,289.3213870999998,None,288.62051989999964,289.3048719999997,289.8221255999997,None,left,1,0.2740477999996074,289.8221255999997,None,None,,288.62051989999964,289.8053715999995,0.5118540000003122,0.5951046000000133,1.7132874999997512,1.7967779999999038,,,,,syed_2,001,2020_Feb_07_1537,posner,3.1.5,59.87690505849263,
0.5,0,0,right,1,4,1,0,1,0,1,4,12,3,,,,,,,,,290.12369989999934,290.62321470000006,291.3408535999997,None,290.63990250000006,291.3241559999997,291.8415034999998,None,right,1,0.3266816999994262,291.8415034999998,None,None,,290.63990250000006,291.82490039999993,0.5114628999999695,0.594901899999968,1.7131314999996903,1.7967631000001347,,,,,syed_2,001,2020_Feb_07_1537,posner,3.1.5,59.87690505849263,
0.5,180,1,right,2,4,1,0,1,0,1,5,13,7,,,,,,,,,292.1928201999999,292.69266739999966,293.4105109000002,None,292.7095755999999,293.3938709999993,293.91117739999936,None,right,1,0.2409775999994963,293.91117739999936,None,None,,292.7095755999999,293.89434339999934,0.5115387000005285,0.5951275000006717,1.7131939000000784,1.796911700000237,,,,,syed_2,001,2020_Feb_07_1537,posner,3.1.5,59.87690505849263,
0.5,180,1,right,2,4,1,0,1,0,1,6,14,6,,,,,,,,,294.1791469,294.6789257999999,295.3966246,None,294.6954704,295.37984659999984,295.8972893,None,right,1,0.3428616000001057,295.8972893,None,None,,294.6954704,295.8804666999995,0.5116335000002437,0.5949685999994472,1.7131638999999268,1.7969671999999264,,,,,syed_2,001,2020_Feb_07_1537,posner,3.1.5,59.87690505849263,
-0.5,0,1,left,1,3,1,0,1,0,1,7,15,1,,,,,,,,,296.2653612999993,296.76512,297.48258179999993,None,296.78152859999955,297.46601569999984,297.9833214,None,left,1,0.3688100999997914,297.9833214,None,None,,296.78152859999955,297.9667830999997,0.5117620999999417,0.5951525999998921,1.7134024999995745,1.7966754999997647,,,,,syed_2,001,2020_Feb_07_1537,posner,3.1.5,59.87690505849263,
0.5,180,1,right,2,4,1,0,1,0,2,0,16,5,,,,,,,,,298.3678983,298.8680585000002,299.5856557999996,None,298.8848401999994,299.56907299999966,300.0863370999996,None,right,1,0.4498981000006097,300.0863370999996,None,None,,298.8848401999994,300.0695431999993,0.5117067000001043,0.5948482000003423,1.7131779999999708,1.7974944999996296,,,,,syed_2,001,2020_Feb_07_1537,posner,3.1.5,59.87690505849263,
-0.5,180,0,left,2,3,1,0,1,0,2,1,17,4,,,,,,,,,300.55413729999964,301.0543993000001,301.77188209999986,None,301.0708711999996,301.75516460000017,302.27265050000005,None,left,1,0.335439999999835,302.27265050000005,None,None,,301.0708711999996,302.2559233000002,0.5121431000006851,0.5956163999999262,1.7136548000007679,1.797121600000537,,,,,syed_2,001,2020_Feb_07_1537,posner,3.1.5,59.87690505849263,
-0.5,0,1,left,1,3,1,0,1,0,2,2,18,2,,,,,,,,,302.62406199999987,303.12373709999974,303.8413783999995,None,303.1403585999997,303.82489949999945,304.3422292999994,None,left,1,0.32198820000030537,304.3422292999994,None,None,,303.1403585999997,304.32554549999986,0.5116098999997121,0.5953215999998065,1.7133902999994461,1.7968858999993245,,,,,syed_2,001,2020_Feb_07_1537,posner,3.1.5,59.87690505849263,
0.5,180,1,right,2,4,1,0,1,0,2,3,19,6,,,,,,,,,304.69404289999966,305.1931655999997,305.9111333999999,None,305.21008429999983,305.8941950999997,306.4117220999997,None,right,1,0.3644656999995277,306.4117220999997,None,None,,305.21008429999983,306.39496580000014,0.5114653999999064,0.594875900000261,1.7132247999998071,1.7967664999996487,,,,,syed_2,001,2020_Feb_07_1537,posner,3.1.5,59.87690505849263,
0.5,0,0,right,1,4,1,0,1,0,2,4,20,3,,,,,,,,,306.7964678999997,307.2962271999995,308.0140093,None,307.31278849999944,307.99724030000016,308.51471029999993,None,right,1,0.3335332999995444,308.51471029999993,None,None,,307.31278849999944,308.4978182999994,0.5114981999995507,0.5943950000000768,1.7130734000002121,1.7965241000001697,,,,,syed_2,001,2020_Feb_07_1537,posner,3.1.5,59.87690505849263,
0.5,180,1,right,2,4,1,0,1,0,2,5,21,7,,,,,,,,,308.86614389999977,309.3657051,310.0832542999997,None,309.38222080000014,310.066726,310.58403,None,right,1,0.36003989999971964,310.58403,None,None,,309.38222080000014,310.5674084000002,0.5112675000000309,0.5947896999996374,1.712951299999986,1.796465999999782,,,,,syed_2,001,2020_Feb_07_1537,posner,3.1.5,59.87690505849263,
-0.5,0,1,left,1,3,1,0,1,0,2,6,22,1,,,,,,,,,310.96856859999934,311.4687985999999,312.18624589999945,None,311.48520969999936,312.1695227,312.6869743999996,313.1708568999993,left,1,0.5610320000005231,312.6869743999996,None,None,,311.48520969999936,312.6703330999999,0.5119893999999476,0.5950460999993084,1.7135105999996085,1.7969884999993155,,,,,syed_2,001,2020_Feb_07_1537,posner,3.1.5,59.87690505849263,
-0.5,0,1,left,1,3,1,0,1,0,2,7,23,0,,,,,,,,,313.2718976999995,313.77166859999943,314.4894101,None,313.7885183999997,314.4727280999996,314.99016219999976,None,left,1,0.4178349999992861,314.99016219999976,None,None,,313.7885183999997,314.97346990000005,0.5115474000003815,0.595123699999931,1.7133416000006036,1.7967100000005303,,,,,syed_2,001,2020_Feb_07_1537,posner,3.1.5,59.87690505849263,
0.5,180,1,right,2,4,1,0,1,0,3,0,24,7,,,,,,,,,315.4243937000001,315.92479469999944,316.64231459999974,None,315.94143780000013,316.6257627999994,317.14303109999946,None,right,1,0.33709749999979977,317.14303109999946,None,None,,315.94143780000013,317.1263981000002,0.5124367999997048,0.5958079000001817,1.7140149999995629,1.7974820999997974,,,,,syed_2,001,2020_Feb_07_1537,posner,3.1.5,59.87690505849263,
0.5,180,1,right,2,4,1,0,1,0,3,1,25,5,,,,,,,,,317.51097260000006,318.01096340000004,318.72866650000014,None,318.0278039999994,318.71192579999934,319.22929010000007,None,right,1,0.3627563000000009,319.22929010000007,None,None,,318.0278039999994,319.2125639999995,0.5116714999994656,0.5950788000000102,1.7132504999999583,1.7967965999996522,,,,,syed_2,001,2020_Feb_07_1537,posner,3.1.5,59.87690505849263,
-0.5,0,1,left,1,3,1,0,1,0,3,2,26,2,,,,,,,,,319.61454629999935,320.114106,320.8313619999999,None,320.1305728999996,320.8147650000001,321.33204729999943,None,right,0,0.3079746999992494,321.33204729999943,None,None,,320.1305728999996,321.31547369999953,0.5118728999996165,0.5951356999994459,1.7132231999994474,1.7966538999999102,,,,,syed_2,001,2020_Feb_07_1537,posner,3.1.5,59.87690505849263,
0.5,0,0,right,1,4,1,0,1,0,3,3,27,3,,,,,,,,,321.6668684999995,322.1666249,322.8844853999999,None,322.1832754999996,322.8677338999996,323.38500209999984,323.86894519999987,None,0,,323.38500209999984,None,None,,322.1832754999996,323.3683981999993,0.5114797999995062,0.594985099999576,1.7132286999994903,1.7964180999997552,,,,,syed_2,001,2020_Feb_07_1537,posner,3.1.5,59.87690505849263,
-0.5,0,1,left,1,3,1,0,1,0,3,4,28,0,,,,,,,,,324.37005859999954,324.86964629999966,325.5875366,324.37005859999954,324.8864012999993,325.5707849999999,326.08897199999956,None,left,1,0.3430790000002162,326.08897199999956,None,None,,324.8864012999993,326.0725193999997,0.5128413000002183,0.5972560000000158,1.71571909999966,1.798569900000075,,,,,syed_2,001,2020_Feb_07_1537,posner,3.1.5,59.87690505849263,
-0.5,180,0,left,2,3,1,0,1,0,3,5,29,4,,,,,,,,,326.4568288999999,326.9565848000002,327.67435449999994,None,326.9732334999999,327.65751739999996,328.17488539999977,328.6589933999994,left,1,0.7210263000006307,328.17488539999977,None,None,,326.9732334999999,328.15824879999946,0.5116398999998637,0.5952907000000778,1.7132795999996233,1.7967491999997947,,,,,syed_2,001,2020_Feb_07_1537,posner,3.1.5,59.87690505849263,
-0.5,0,1,left,1,3,1,0,1,0,3,6,30,1,,,,,,,,,328.92596820000017,329.42651079999996,330.1444706000002,None,329.44310510000014,330.12760100000014,330.6451253999994,None,left,1,0.33898039999985485,330.6451253999994,None,None,,329.44310510000014,330.6283254,0.5123716999996759,0.5962137999995321,1.7141805000001114,1.7974777999997968,,,,,syed_2,001,2020_Feb_07_1537,posner,3.1.5,59.87690505849263,
0.5,180,1,right,2,4,1,0,1,0,3,7,31,6,,,,,,,,,331.01246829999945,331.51267219999954,332.23045339999953,None,331.52935780000007,332.2138556,332.7311260999995,None,right,1,0.3730302000003576,332.7311260999995,None,None,,331.52935780000007,332.71456279999984,0.5116008999993937,0.595217799999773,1.7134815999997954,1.796926999999414,,,,,syed_2,001,2020_Feb_07_1537,posner,3.1.5,59.87690505849263,
-0.5,0,1,left,1,3,1,0,1,0,4,0,32,0,,,,,,,,,333.1325547999995,333.63238060000003,334.3504075999999,None,333.64933310000015,334.33354079999935,334.8507816000001,None,left,1,0.3252450999998473,334.8507816000001,None,None,,333.64933310000015,334.83404530000007,0.5114656000005198,0.5948643000001539,1.713109400000576,1.7965186999999787,,,,,syed_2,001,2020_Feb_07_1537,posner,3.1.5,59.87690505849263,
-0.5,0,1,left,1,3,1,0,1,0,4,1,33,1,,,,,,,,,335.20161779999944,335.70225500000015,336.41958949999935,None,335.71911569999975,336.40309089999937,336.92000740000003,None,left,1,0.2720988999999463,336.92000740000003,None,None,,335.71911569999975,336.90359439999975,0.5126394999997501,0.5958380000001853,1.713948700000401,1.7973433999995905,,,,,syed_2,001,2020_Feb_07_1537,posner,3.1.5,59.87690505849263,
0.5,180,1,right,2,4,1,0,1,0,4,2,34,7,,,,,,,,,337.2209966999999,337.72120899999936,338.43891110000004,None,337.73825599999964,338.42223749999994,338.93971899999997,None,right,1,0.22845669999969687,338.93971899999997,None,None,,337.73825599999964,338.92295809999996,0.511760499999582,0.5954141000001982,1.7135191999996096,1.7970929000002798,,,,,syed_2,001,2020_Feb_07_1537,posner,3.1.5,59.87690505849263,
0.5,0,0,right,1,4,1,0,1,0,4,3,35,3,,,,,,,,,339.19100960000014,339.69074439999986,340.4087406999997,None,339.70748769999955,340.3917014999997,340.90916930000003,341.3933569000001,right,1,0.48291989999961515,340.90916930000003,None,None,,339.70748769999955,340.89238380000006,0.5115069000003132,0.5951050000003306,1.7131260000005568,1.7965368000004673,,,,,syed_2,001,2020_Feb_07_1537,posner,3.1.5,59.87690505849263,
-0.5,180,0,left,2,3,1,0,1,0,4,4,36,4,,,,,,,,,341.4108365000002,341.91055890000007,342.6283324999995,None,341.9271356999998,342.6113845,343.12898210000003,None,right,0,0.14296379999996134,343.12898210000003,None,None,,341.9271356999998,343.1121581999996,0.5108927999999651,0.5942241000002468,1.712477900000522,1.7958673000002818,,,,,syed_2,001,2020_Feb_07_1537,posner,3.1.5,59.87690505849263,
-0.5,0,1,left,1,3,1,0,1,0,4,5,37,2,,,,,,,,,343.2964353999996,343.7963538999993,344.51409349999994,None,343.81304480000017,344.4975035999996,345.0147787999995,None,left,1,0.3292263000003004,345.0147787999995,None,None,,343.81304480000017,344.998106,0.511654500000077,0.5951978000002782,1.713392599999679,1.7966810999996596,,,,,syed_2,001,2020_Feb_07_1537,posner,3.1.5,59.87690505849263,
0.5,180,1,right,2,4,1,0,1,0,4,6,38,6,,,,,,,,,345.3666051,345.86595619999935,346.5836518999995,None,345.8825152999998,346.56705539999984,347.0843046,None,right,1,0.29980149999937566,347.0843046,None,None,,345.8825152999998,347.06759729999976,0.5113670000000639,0.5947390000001178,1.7129834000006667,1.7965343000005305,,,,,syed_2,001,2020_Feb_07_1537,posner,3.1.5,59.87690505849263,
0.5,180,1,right,2,4,1,0,1,0,4,7,39,5,,,,,,,,,347.4027333999993,347.9020228999998,348.61975339999935,None,347.91873899999973,348.6031317999996,349.12026369999967,None,right,1,0.351642499999798,349.12026369999967,None,None,,347.91873899999973,349.1036749999994,0.5113367000003564,0.5947833999998693,1.712976200000412,1.7964287000004333,,,,,syed_2,001,2020_Feb_07_1537,posner,3.1.5,59.87690505849263,
-0.5,0,1,left,1,3,1,0,1,0,5,0,40,0,,,,,,,,,349.48870519999946,349.98825489999945,350.7060259,None,350.00491819999934,350.6891663999995,351.2067376999994,None,left,1,0.3053521000001638,351.2067376999994,None,None,,350.00491819999934,351.1897721999994,0.5115490999996837,0.5949539999992339,1.7130435999997644,1.7969751000000542,,,,,syed_2,001,2020_Feb_07_1537,posner,3.1.5,59.87690505849263,
0.5,0,0,right,1,4,1,0,1,0,5,1,41,3,,,,,,,,,351.5412881000002,352.0411003999998,352.7588305999998,None,352.0578190999995,352.7421027999999,353.2596576999995,None,right,1,0.38840780000009545,353.2596576999995,None,None,,352.0578190999995,353.24263749999955,0.5116213000001153,0.5951480000003357,1.7131400000007488,1.7965576000005967,,,,,syed_2,001,2020_Feb_07_1537,posner,3.1.5,59.87690505849263,
-0.5,0,1,left,1,3,1,0,1,0,5,2,42,1,,,,,,,,,353.6777788999998,354.1773755999993,354.8952330000002,None,354.19409429999996,354.87835319999976,355.3956767999998,None,left,1,0.316251000000193,355.3956767999998,None,None,,354.19409429999996,355.3791328999996,0.5111661999999342,0.5945314999999027,1.712911399999939,1.796337300000232,,,,,syed_2,001,2020_Feb_07_1537,posner,3.1.5,59.87690505849263,
0.5,180,1,right,2,4,1,0,1,0,5,3,43,5,,,,,,,,,355.730783,356.2300575999998,356.94805949999954,None,356.2469589000002,356.93109169999934,357.44846009999947,None,right,1,0.4553163000000495,357.44846009999947,None,None,,356.2469589000002,357.4316583,0.5112060999999812,0.5948154999996405,1.7127867999997761,1.7963305000002947,,,,,syed_2,001,2020_Feb_07_1537,posner,3.1.5,59.87690505849263,
-0.5,180,0,left,2,3,1,0,1,0,5,4,44,4,,,,,,,,,357.93308889999935,358.4332592999999,359.15102320000005,None,358.44991990000017,359.1342257999995,359.65180969999983,357.93308889999935,left,1,0.3081075999998575,359.65180969999983,None,None,,358.44991990000017,359.6349253999997,0.5116973000003782,0.5950434999995196,1.7133475999999064,1.7968515000002299,,,,,syed_2,001,2020_Feb_07_1537,posner,3.1.5,59.87690505849263,
0.5,180,1,right,2,4,1,0,1,0,5,5,45,7,,,,,,,,,359.98619469999994,360.4862364999999,361.20359519999965,None,360.5025621999994,361.18700420000005,361.7044387999995,None,right,1,0.3354706999998598,361.7044387999995,None,None,,360.5025621999994,361.6876902999993,0.5116336000000956,0.5948716000002605,1.7130752000002758,1.796521400000529,,,,,syed_2,001,2020_Feb_07_1537,posner,3.1.5,59.87690505849263,
0.5,180,1,right,2,4,1,0,1,0,5,6,46,6,,,,,,,,,362.0559704999996,362.55558800000017,363.27347519999967,None,362.57223859999976,363.2567033999994,363.77392169999985,None,right,1,0.3859987000005276,363.77392169999985,None,None,,362.57223859999976,363.75736340000003,0.5111597000004622,0.5946303000000626,1.7129089999998541,1.7960345999999845,,,,,syed_2,001,2020_Feb_07_1537,posner,3.1.5,59.87690505849263,
-0.5,0,1,left,1,3,1,0,1,0,5,7,47,2,,,,,,,,,364.19162400000005,364.69184869999935,365.40965679999954,None,364.7087088999997,365.3927029999995,365.9101571000001,None,left,1,0.3457605000003241,365.9101571000001,None,None,,364.7087088999997,365.8935283999999,0.5117967999995017,0.5952152999998361,1.7134747000000061,1.7969434999995428,,,,,syed_2,001,2020_Feb_07_1537,posner,3.1.5,59.87690505849263,
-0.5,180,0,left,2,3,1,0,1,0,6,0,48,4,,,,,,,,,366.2784925999995,366.7781473999994,367.4956917999998,None,366.79481249999935,367.47904649999964,367.9961214999994,None,left,1,0.34772270000030403,367.9961214999994,None,None,,366.79481249999935,367.9796348,0.5115086000005249,0.5947727000002487,1.712967700000263,1.7962413000004744,,,,,syed_2,001,2020_Feb_07_1537,posner,3.1.5,59.87690505849263,
-0.5,0,1,left,1,3,1,0,1,0,6,1,49,0,,,,,,,,,368.3650785,368.86417879999954,369.5818614,None,368.8808567999995,369.5652360999993,370.0825440999997,None,left,1,0.3573125999992044,370.0825440999997,None,None,,368.8808567999995,370.06581539999934,0.5114629999998215,0.5950254999997924,1.7130771000001914,1.7967975000001388,,,,,syed_2,001,2020_Feb_07_1537,posner,3.1.5,59.87690505849263,
0.5,0,0,right,1,4,1,0,1,0,6,2,50,3,,,,,,,,,370.46755779999967,370.96715439999934,371.6847914,None,370.9837873999995,371.6682095999995,372.1855360999998,None,right,1,0.31043919999956415,372.1855360999998,None,None,,370.9837873999995,372.1689292000001,0.511287799999991,0.5945314999999027,1.713048799999342,1.7962150999992446,,,,,syed_2,001,2020_Feb_07_1537,posner,3.1.5,59.87690505849263,
-0.5,0,1,left,1,3,1,0,1,0,6,3,51,1,,,,,,,,,372.5203298999995,373.02003739999964,373.73773660000006,None,373.03723639999953,373.7208144999995,374.2382983999996,None,left,1,0.28161809999983234,374.2382983999996,None,None,,373.03723639999953,374.2215191999994,0.5116452000002027,0.5951261000000159,1.7131133000002592,1.7967046000003393,,,,,syed_2,001,2020_Feb_07_1537,posner,3.1.5,59.87690505849263,
-0.5,0,1,left,1,3,1,0,1,0,6,4,52,2,,,,,,,,,374.5394480999994,375.03936410000006,375.7572190000001,None,375.05610009999964,375.74025769999935,376.25780810000015,None,left,1,0.2940747000002375,376.25780810000015,None,None,,375.05610009999964,376.24107599999934,0.511654300000373,0.5950376999999207,1.7133561999999074,1.7968197999998665,,,,,syed_2,001,2020_Feb_07_1537,posner,3.1.5,59.87690505849263,
0.5,180,1,right,2,4,1,0,1,0,6,5,53,5,,,,,,,,,376.57515220000005,377.0755393999998,377.7931598999994,None,377.09219399999984,377.77664469999945,378.29403509999975,None,right,1,0.33776880000004894,378.29403509999975,None,None,,377.09219399999984,378.27721029999975,0.5120425000004616,0.5956160000005184,1.713692400000582,1.7971039000003657,,,,,syed_2,001,2020_Feb_07_1537,posner,3.1.5,59.87690505849263,
0.5,180,1,right,2,4,1,0,1,0,6,6,54,6,,,,,,,,,378.6622975,379.16173869999966,379.8795292999994,None,379.1785745999996,379.8628324000001,380.3799414999994,None,right,1,0.4679715000002034,380.3799414999994,None,None,,379.1785745999996,380.36368349999975,0.5112992000003942,0.5946892000001753,1.7132246000001032,1.7965058999998291,,,,,syed_2,001,2020_Feb_07_1537,posner,3.1.5,59.87690505849263,
0.5,180,1,right,2,4,1,0,1,0,6,7,55,7,,,,,,,,,380.86520349999955,381.36481039999944,382.08241009999983,None,381.3814582999994,382.0658967999998,382.5829469,380.86520349999955,right,1,0.32092629999988276,382.5829469,None,None,,381.3814582999994,382.56647189999967,0.5114924999998038,0.5949997999996413,1.7131397000002835,1.796860000000379,,,,,syed_2,001,2020_Feb_07_1537,posner,3.1.5,59.87690505849263,
0.5,0,0,right,1,4,1,0,1,0,7,0,56,3,,,,,,,,,382.93398119999983,383.43433579999964,384.152161,None,383.4508317,384.1352396000002,384.65294970000014,None,right,1,0.41893400000026304,384.65294970000014,None,None,,383.4508317,384.63599179999983,0.5122017000003325,0.5956826000001456,1.7138401000001977,1.797088999999687,,,,,syed_2,001,2020_Feb_07_1537,posner,3.1.5,59.87690505849263,
-0.5,180,0,left,2,3,1,0,1,0,7,1,57,4,,,,,,,,,385.10351809999975,385.6039012000001,386.32148899999993,None,385.6205229999996,386.30480009999974,386.8222082000002,None,left,1,0.31363429999964865,386.8222082000002,None,None,,385.6205229999996,386.8054723999994,0.5121569000002637,0.5956647000002704,1.7137158999994426,1.797281500000281,,,,,syed_2,001,2020_Feb_07_1537,posner,3.1.5,59.87690505849263,
-0.5,0,1,left,1,3,1,0,1,0,7,2,58,2,,,,,,,,,387.1573682999997,387.65673379999953,388.3744545999998,None,387.67336259999956,388.3578355999998,388.87509109999974,None,left,1,0.2846065000003364,388.87509109999974,None,None,,387.67336259999956,388.8583963000001,0.5110913000007713,0.5944048999999723,1.712735099999918,1.7962113000003228,,,,,syed_2,001,2020_Feb_07_1537,posner,3.1.5,59.87690505849263,
-0.5,0,1,left,1,3,1,0,1,0,7,3,59,0,,,,,,,,,389.17667079999956,389.67614869999943,390.39397089999966,None,389.6929470999994,390.37707090000004,390.8946281999997,None,left,1,0.28112359999977343,390.8946281999997,None,None,,389.6929470999994,390.8779780999994,0.5114718999993784,0.595050199999605,1.7132848000001104,1.796562599999561,,,,,syed_2,001,2020_Feb_07_1537,posner,3.1.5,59.87690505849263,
0.5,180,1,right,2,4,1,0,1,0,7,4,60,7,,,,,,,,,391.19539859999986,391.6955495000002,392.4133471999994,None,391.71243349999986,392.39667049999935,392.91402649999964,None,right,1,0.3417294999999285,392.91402649999964,None,None,,391.71243349999986,392.8974664999996,0.5119776999999885,0.5953927000000476,1.7138705999996091,1.7970758000001297,,,,,syed_2,001,2020_Feb_07_1537,posner,3.1.5,59.87690505849263,
-0.5,0,1,left,1,3,1,0,1,0,7,5,61,1,,,,,,,,,393.28193719999945,393.78170059999957,394.49946829999953,None,393.7985056999996,394.4827974,394.9999796000002,None,left,1,0.36796289999983856,394.9999796000002,None,None,,393.7985056999996,394.9836385999997,0.5114849000001414,0.5952433000002202,1.7133991000000606,1.7967482000003656,,,,,syed_2,001,2020_Feb_07_1537,posner,3.1.5,59.87690505849263,
0.5,180,1,right,2,4,1,0,1,0,7,6,62,6,,,,,,,,,395.3853976999999,395.8847721000002,396.60229029999937,None,395.9014540999997,396.5856679999997,397.1030295999999,None,right,1,0.3606703999994352,397.1030295999999,None,None,,395.9014540999997,397.0863413999996,0.5113351999998486,0.5947878999995737,1.7128861999999572,1.7961482000000615,,,,,syed_2,001,2020_Feb_07_1537,posner,3.1.5,59.87690505849263,
0.5,180,1,right,2,4,1,0,1,0,7,7,63,5,,,,,,,,,397.4877407999993,397.98781509999935,398.70519479999984,None,398.0043988999996,398.6887810999997,399.20602119999967,None,right,1,0.2898323999997956,399.20602119999967,None,None,,398.0043988999996,399.1892719999996,0.5118735000005472,0.5951174000001629,1.7133155999999872,1.7967585000005784,,,,,syed_2,001,2020_Feb_07_1537,posner,3.1.5,59.87690505849263,
0.5,180,1,right,2,4,1,0,1,0,8,0,64,5,,,,,,,,,399.5243266999996,400.02370659999997,400.7414385000002,None,400.04035440000007,400.7247957999998,401.2420741999995,None,right,1,0.33377460000065184,401.2420741999995,None,None,,400.04035440000007,401.2255435999996,0.5115004999997836,0.594975500000146,1.7133131000000503,1.796733399999539,,,,,syed_2,001,2020_Feb_07_1537,posner,3.1.5,59.87690505849263,
0.5,180,1,right,2,4,1,0,1,0,8,1,65,7,,,,,,,,,401.59304669999983,402.09343219999937,402.81094779999967,None,402.1099720000002,402.7943288999995,403.3116016999993,None,right,1,0.27242460000070423,403.3116016999993,None,None,,402.1099720000002,403.2950127999993,0.5122466000002532,0.5953763000006802,1.7138119000001097,1.7973750999999538,,,,,syed_2,001,2020_Feb_07_1537,posner,3.1.5,59.87690505849263,
0.5,180,1,right,2,4,1,0,1,0,8,2,66,6,,,,,,,,,403.61286949999976,404.1127655,404.8302761999994,None,404.12945859999945,404.81369189999987,405.3309365999994,None,right,1,0.2687614999995276,405.3309365999994,None,None,,404.12945859999945,405.3145254000001,0.5117706000000908,0.5950562000007267,1.7134822000007262,1.7968124000008174,,,,,syed_2,001,2020_Feb_07_1537,posner,3.1.5,59.87690505849263,
-0.5,0,1,left,1,3,1,0,1,0,8,3,67,1,,,,,,,,,405.61558849999983,406.1155702999995,406.8330584999994,None,406.1321097,406.81648570000016,407.3338227999993,None,left,1,0.30600979999962874,407.3338227999993,None,None,,406.1321097,407.3172278000002,0.5117459000002782,0.5950673000006645,1.713386299999911,1.796720400000595,,,,,syed_2,001,2020_Feb_07_1537,posner,3.1.5,59.87690505849263,
0.5,0,0,right,1,4,1,0,1,0,8,4,68,3,,,,,,,,,407.6681456999995,408.1683564999994,408.8860625999996,None,408.18493859999944,408.86924459999955,409.3867392000002,None,right,1,0.3490348000004815,409.3867392000002,None,None,,408.18493859999944,409.37008009999954,0.5121253000006618,0.5954451000006884,1.713826300000619,1.7976047000001927,,,,,syed_2,001,2020_Feb_07_1537,posner,3.1.5,59.87690505849263,
-0.5,180,0,left,2,3,1,0,1,0,8,5,69,4,,,,,,,,,409.75444309999966,410.25454079999963,410.9721381999998,None,410.2711786,410.9555343000002,411.4729090999999,None,left,1,0.31069509999997535,411.4729090999999,None,None,,410.2711786,411.4561743999993,0.512414699999681,0.5960926999996445,1.7140237999992678,1.7974142999992182,,,,,syed_2,001,2020_Feb_07_1537,posner,3.1.5,59.87690505849263,
-0.5,0,1,left,1,3,1,0,1,0,8,6,70,2,,,,,,,,,411.80724479999935,412.30726779999986,413.02506529999937,None,412.3241487999994,413.00847019999946,413.5257752999996,None,left,1,0.31404529999963415,413.5257752999996,None,None,,412.3241487999994,413.5091152999994,0.5118314999999711,0.5952170999998998,1.7136553999998796,1.796875199999704,,,,,syed_2,001,2020_Feb_07_1537,posner,3.1.5,59.87690505849263,
-0.5,0,1,left,1,3,1,0,1,0,8,7,71,0,,,,,,,,,413.86025269999936,414.3601246999997,415.0778104000001,None,414.37693339999987,415.0610737999996,415.5785471999998,None,left,1,0.3011240000005273,415.5785471999998,None,None,,414.37693339999987,415.56183950000013,0.5117381000000023,0.5953339999996388,1.7134362999995574,1.796883699999853,,,,,syed_2,001,2020_Feb_07_1537,posner,3.1.5,59.87690505849263,
0.5,180,1,right,2,4,1,0,1,0,9,0,72,5,,,,,,,,,415.8963840999995,416.39629239999977,417.1141514000001,None,416.41331360000004,417.0972634,417.6146326999997,None,right,1,0.2650018000003911,417.6146326999997,None,None,,416.41331360000004,417.5980976000001,0.5116023999999015,0.5948902000000089,1.7133817000003546,1.7966253000004144,,,,,syed_2,001,2020_Feb_07_1537,posner,3.1.5,59.87690505849263,
0.5,180,1,right,2,4,1,0,1,0,9,1,73,6,,,,,,,,,417.89912490000006,418.3990831000001,419.11667880000005,None,418.4158247999994,419.0999495999995,419.6174713999999,None,right,1,0.28619739999976446,419.6174713999999,None,None,,418.4158247999994,419.6005465999997,0.5117541999998139,0.5949822000002314,1.7132029000003968,1.796835199999805,,,,,syed_2,001,2020_Feb_07_1537,posner,3.1.5,59.87690505849263,
-0.5,0,1,left,1,3,1,0,1,0,9,2,74,1,,,,,,,,,419.9353106999997,420.43525689999933,421.15276259999973,None,420.45177969999986,421.13616289999936,421.6537847999998,None,left,1,0.2578571000003649,421.6537847999998,None,None,,420.45177969999986,421.6368087999999,0.5116066000000501,0.5949371000006067,1.713144000000284,1.7964431000000332,,,,,syed_2,001,2020_Feb_07_1537,posner,3.1.5,59.87690505849263,
-0.5,0,1,left,1,3,1,0,1,0,9,3,75,2,,,,,,,,,421.9379756999997,422.4378532999999,423.15572729999985,None,422.45453499999985,423.13884569999937,423.6563338999995,None,left,1,0.3033523000003697,423.6563338999995,None,None,,422.45453499999985,423.6395169999996,0.5117697000005137,0.5951622000002317,1.7134109000007811,1.7968766000003598,,,,,syed_2,001,2020_Feb_07_1537,posner,3.1.5,59.87690505849263,
0.5,0,0,right,1,4,1,0,1,0,9,4,76,3,,,,,,,,,423.99057529999936,424.49083900000005,425.2084189999996,None,424.5075428,425.19169299999976,425.7090984999995,None,right,1,0.3624952000000121,425.7090984999995,None,None,,424.5075428,425.6923434,0.5116865999998481,0.5951228000003539,1.7131710000003295,1.7968442999999752,,,,,syed_2,001,2020_Feb_07_1537,posner,3.1.5,59.87690505849263,
0.5,180,1,right,2,4,1,0,1,0,9,5,77,7,,,,,,,,,426.0935546999999,426.59378599999945,427.31118069999957,None,426.6101899999994,427.2945436,427.8121246999999,None,right,1,0.2673408999999083,427.8121246999999,None,None,,426.6101899999994,427.7954129999998,0.5122953999998572,0.5955974999997125,1.7139062999995076,1.797216699999808,,,,,syed_2,001,2020_Feb_07_1537,posner,3.1.5,59.87690505849263,
-0.5,180,0,left,2,3,1,0,1,0,9,6,78,4,,,,,,,,,428.0966279999993,428.59647330000007,429.3141943999999,None,428.61317710000003,429.29750629999944,429.81483279999975,None,left,1,0.3128004999998666,429.81483279999975,None,None,,428.61317710000003,429.7981639999998,0.5113235999997414,0.5946131000000605,1.7129992999998649,1.796250699999291,,,,,syed_2,001,2020_Feb_07_1537,posner,3.1.5,59.87690505849263,
-0.5,0,1,left,1,3,1,0,1,0,9,7,79,0,,,,,,,,,430.14973219999956,430.6493585999997,431.36701709999943,None,430.66597959999945,431.35011940000004,431.8675323999996,None,left,1,0.2681660999996893,431.8675323999996,None,None,,430.66597959999945,431.85068580000006,0.5115866999994978,0.594875900000261,1.7128979999997682,1.7966626999996151,,,,,syed_2,001,2020_Feb_07_1537,posner,3.1.5,59.87690505849263,
0.5,0,0,right,1,4,1,0,1,0,10,0,80,3,,,,,,,,,432.1530520999995,432.6522291000001,433.3697473000002,None,432.66850629999954,433.35299489999943,433.8702687999994,None,right,1,0.3614620999996987,433.8702687999994,None,None,,432.66850629999954,433.85379789999934,0.5117847000001348,0.5950739999998405,1.7133423999994193,1.796616399999948,,,,,syed_2,001,2020_Feb_07_1537,posner,3.1.5,59.87690505849263,
0.5,180,1,right,2,4,1,0,1,0,10,1,81,6,,,,,,,,,434.2551161000001,434.75479799999994,435.4724704,None,434.7714126000001,435.45585140000003,435.97340259999964,None,right,1,0.2982388999998875,435.97340259999964,None,None,,434.7714126000001,435.9566298,0.5114458999996714,0.5949760999992577,1.7132514999993873,1.7962979999992967,,,,,syed_2,001,2020_Feb_07_1537,posner,3.1.5,59.87690505849263,
-0.5,0,1,left,1,3,1,0,1,0,10,2,82,2,,,,,,,,,436.29094840000016,436.79098449999947,437.5087837000001,None,436.80790009999964,437.4919442999999,438.0094855999996,None,left,1,0.2701860000006491,438.0094855999996,None,None,,436.80790009999964,437.9926250999997,0.5117559000000256,0.5953923000006398,1.7134095999999772,1.7967853000000105,,,,,syed_2,001,2020_Feb_07_1537,posner,3.1.5,59.87690505849263,
-0.5,180,0,left,2,3,1,0,1,0,10,3,83,4,,,,,,,,,438.31028179999976,438.8103930999996,439.52818299999944,None,438.82723559999977,439.5113900999995,440.0288168999996,None,left,1,0.33872859999974025,440.0288168999996,None,None,,438.82723559999977,440.0120483999999,0.5117673000004288,0.5952828999998019,1.7133849000001646,1.796856800000569,,,,,syed_2,001,2020_Feb_07_1537,posner,3.1.5,59.87690505849263,
-0.5,0,1,left,1,3,1,0,1,0,10,4,84,0,,,,,,,,,440.3968291000001,440.8968243999998,441.61449249999987,None,440.9135427000001,441.5977555999998,442.1149970999995,None,left,1,0.26052530000015395,442.1149970999995,None,None,,440.9135427000001,442.0983255000001,0.5116996999995536,0.5949272999996538,1.7131831999995484,1.7965347999997903,,,,,syed_2,001,2020_Feb_07_1537,posner,3.1.5,59.87690505849263,
0.5,180,1,right,2,4,1,0,1,0,10,5,85,7,,,,,,,,,442.3990660999998,442.89930860000004,443.61712910000006,None,442.9161540999994,443.60020239999994,444.1177103,None,right,1,0.36984489999940706,444.1177103,None,None,,442.9161540999994,444.1008938999994,0.5119165000005523,0.5953630000003614,1.713490200000706,1.7969919000006485,,,,,syed_2,001,2020_Feb_07_1537,posner,3.1.5,59.87690505849263,
0.5,180,1,right,2,4,1,0,1,0,10,6,86,5,,,,,,,,,444.51870059999965,445.01903820000007,445.7367233999994,None,445.03578949999974,445.71986239999933,446.2373141999997,None,right,1,0.34621419999984937,446.2373141999997,None,None,,445.03578949999974,446.22051699999975,0.5117799999998169,0.5949821000003794,1.713238000000274,1.7969072000005326,,,,,syed_2,001,2020_Feb_07_1537,posner,3.1.5,59.87690505849263,
-0.5,0,1,left,1,3,1,0,1,0,10,7,87,1,,,,,,,,,446.6054328,447.1051043999996,447.8231146999997,None,447.12180649999937,447.80628459999934,448.3236092999996,None,left,1,0.34796129999995173,448.3236092999996,None,None,,447.12180649999937,448.30692369999997,0.511337499999172,0.5947259999993548,1.7131315999995422,1.7963115999991714,,,,,syed_2,001,2020_Feb_07_1537,posner,3.1.5,59.87690505849263,
,,,,,,1,0,1,0,,,,,,,,,,,,,,,,,,,,,,,,,,,,,,,,,,448.6913930999999,None,1.5700000403739978e-05,0.9956534000002648,syed_2,001,2020_Feb_07_1537,posner,3.1.5,59.87690505849263,
0.5,0,0,right,1,4,2,0,2,0,0,0,0,3,1.0900000233959872e-05,0.09816109999974287,509.70807109999987,None,1.52000002344721e-05,0.09792840000045544,511.8108373999994,None,512.0885540999998,512.5953774,513.2963075999996,None,512.6119181999993,513.2963075999996,513.7969586999998,None,right,1,0.3304585000005318,513.7969586999998,None,left,0.5475279000002047,512.6119181999993,513.7969586999998,0.516318300000421,0.599733600000036,1.7010997000006682,1.8011946000005992,,,,,syed_2,001,2020_Feb_07_1537,posner,3.1.5,59.87690505849263,
0.5,180,1,right,2,4,2,0,2,0,0,1,1,5,,,,,,,,,514.1484375,514.6481613999995,515.3658187000001,None,514.6647417999993,515.3489973999995,515.8664004000002,None,right,1,0.28487779999977647,515.8664004000002,None,None,,514.6647417999993,515.8495278999999,0.5107797000000573,0.5940230000005613,1.7121215000006487,1.7957873000004838,,,,,syed_2,001,2020_Feb_07_1537,posner,3.1.5,59.87690505849263,
0.5,180,1,right,2,4,2,0,2,0,0,2,2,6,,,,,,,,,516.1681614999998,516.6677239,517.3852338999995,None,516.6843609999996,517.3684428999995,517.8859379999994,None,right,1,0.2574322000000393,517.8859379999994,None,None,,516.6843609999996,517.8691472,0.5114651000003505,0.5945100999997521,1.7128738999999769,1.7963361000001896,,,,,syed_2,001,2020_Feb_07_1537,posner,3.1.5,59.87690505849263,
-0.5,0,1,left,1,3,2,0,2,0,0,3,3,1,,,,,,,,,518.1709996,518.6701820999997,519.3881584999999,None,518.6870988000001,519.3711026000001,519.8886044000001,None,left,1,0.3026609999997163,519.8886044000001,None,None,,518.6870988000001,519.8718830999996,0.5110091999995348,0.5946963999995205,1.712687499999447,1.7961315000002287,,,,,syed_2,001,2020_Feb_07_1537,posner,3.1.5,59.87690505849263,
0.5,180,1,right,2,4,2,0,2,0,0,4,4,7,,,,,,,,,520.2236672999998,520.7230903999998,521.4407305999994,None,520.7395913,521.4241130999999,521.9414656999998,None,right,1,0.2739381000001231,521.9414656999998,None,None,,520.7395913,521.9248105999995,0.5115852999997514,0.5951704999997673,1.7132975999993505,1.7968476999994891,,,,,syed_2,001,2020_Feb_07_1537,posner,3.1.5,59.87690505849263,
-0.5,0,1,left,1,3,2,0,2,0,0,5,5,0,,,,,,,,,522.2428332999998,522.7426404999997,523.4602981999997,None,522.7593177999997,523.4435979,523.9609684999996,None,left,1,0.286308700000518,523.9609684999996,None,None,,522.7593177999997,523.9442234999997,0.5116352000004554,0.5951560000003155,1.7131992000004175,1.7967389000004914,,,,,syed_2,001,2020_Feb_07_1537,posner,3.1.5,59.87690505849263,
-0.5,180,0,left,2,3,2,0,2,0,0,6,6,4,,,,,,,,,524.2786247999993,524.7786845999999,525.4963250999999,None,524.7954248999995,525.4796618999999,525.9970257999994,None,left,1,0.282333799999833,525.9970257999994,None,None,,524.7954248999995,525.9801536999994,0.511632699999609,0.5951925999997911,1.713082299999769,1.796788700000434,,,,,syed_2,001,2020_Feb_07_1537,posner,3.1.5,59.87690505849263,
-0.5,0,1,left,1,3,2,0,2,0,0,7,7,2,,,,,,,,,526.2981478000002,526.7981644000001,527.515805,None,526.8149168,527.4991134000002,528.0164274999997,None,left,1,0.2868272000005163,528.0164274999997,None,None,,526.8149168,527.9996580999996,0.511762500000259,0.5950817000002644,1.713246700000127,1.7967826000003697,,,,,syed_2,001,2020_Feb_07_1537,posner,3.1.5,59.87690505849263,
0.5,180,1,right,2,4,2,0,2,0,1,0,8,5,,,,,,,,,528.3343960000002,528.8343478999996,529.5519104999994,None,528.8509531,529.5352640000001,530.0525874999994,None,right,1,0.282679900000403,530.0525874999994,None,None,,528.8509531,530.0359750999996,0.5117051000006541,0.5951535000003787,1.7133142000002408,1.7967938000001595,,,,,syed_2,001,2020_Feb_07_1537,posner,3.1.5,59.87690505849263,
-0.5,180,0,left,2,3,2,0,2,0,1,1,9,4,,,,,,,,,530.3537073999996,530.8536253000002,531.5713170999998,None,530.8703260000002,531.5546131000001,532.0720326999999,None,left,1,0.3192847999998776,532.0720326999999,None,None,,530.8703260000002,532.0553914000002,0.5120411999996577,0.5956539999997403,1.7137839999995776,1.7971875999992335,,,,,syed_2,001,2020_Feb_07_1537,posner,3.1.5,59.87690505849263,
-0.5,0,1,left,1,3,2,0,2,0,1,2,10,2,,,,,,,,,532.4068621999995,532.9066961999997,533.6240465000001,None,532.9234584999995,533.6075308999998,534.1249929999994,None,left,1,0.3381594000002224,534.1249929999994,None,None,,532.9234584999995,534.1083088999994,0.511670600000798,0.5949329000004582,1.7132708000008279,1.7966338000005635,,,,,syed_2,001,2020_Feb_07_1537,posner,3.1.5,59.87690505849263,
-0.5,0,1,left,1,3,2,0,2,0,1,3,11,0,,,,,,,,,534.4928560999997,534.9927283999996,535.7103805999996,None,535.0095406,535.6937964999997,536.2111082000001,None,left,1,0.2681075000000419,536.2111082000001,None,None,,535.0095406,536.1943554,0.5114798000004157,0.5949289000000135,1.7130872999996427,1.7966464000000997,,,,,syed_2,001,2020_Feb_07_1537,posner,3.1.5,59.87690505849263,
0.5,180,1,right,2,4,2,0,2,0,1,4,12,6,,,,,,,,,536.4956229,536.9954705,537.7133819999999,None,537.0121357999997,537.6964787999996,538.2139020999994,None,right,1,0.27342719999978726,538.2139020999994,None,None,,537.0121357999997,538.1975547000002,0.5115598000002137,0.5950167999999394,1.7136203000000023,1.7965377000000444,,,,,syed_2,001,2020_Feb_07_1537,posner,3.1.5,59.87690505849263,
-0.5,0,1,left,1,3,2,0,2,0,1,5,13,1,,,,,,,,,538.5151408000002,539.0149211999997,539.7326893999998,None,539.0314417,539.7160458999997,540.2332694999996,None,left,1,0.26993010000023787,540.2332694999996,None,None,,539.0314417,540.2165057000002,0.5115285000001677,0.5951107000000775,1.7131003000004057,1.7965361000005942,,,,,syed_2,001,2020_Feb_07_1537,posner,3.1.5,59.87690505849263,
0.5,0,0,right,1,4,2,0,2,0,1,6,14,3,,,,,,,,,540.5344854999994,541.0344091999996,541.7520058999999,None,541.0510877999996,541.7355017999998,542.2529660999999,None,right,1,0.2981684000005771,542.2529660999999,None,None,,541.0510877999996,542.2360668000001,0.5115427000000636,0.5949523999997837,1.7131857000003947,1.7967708999995011,,,,,syed_2,001,2020_Feb_07_1537,posner,3.1.5,59.87690505849263,
0.5,180,1,right,2,4,2,0,2,0,1,7,15,7,,,,,,,,,542.5700485999996,543.0704531000001,543.7882104999999,None,543.0873424000001,543.7713964999994,544.2888886999999,None,right,1,0.23823520000041754,544.2888886999999,None,None,,543.0873424000001,544.2721064999996,0.5120372999999745,0.5959806000000754,1.7136532999993506,1.7971348000000944,,,,,syed_2,001,2020_Feb_07_1537,posner,3.1.5,59.87690505849263,
0.5,180,1,right,2,4,2,0,2,0,2,0,16,5,,,,,,,,,544.5565348999999,545.0566997999995,545.7741864999998,None,545.0733088999996,545.7577583000002,546.2750325999996,None,right,1,0.34822170000006736,546.2750325999996,None,right,0.6298407000003863,545.0733088999996,546.2581289999998,0.5113528000001679,0.5946275999995123,1.7127694000000702,1.7962170999999216,,,,,syed_2,001,2020_Feb_07_1537,posner,3.1.5,59.87690505849263,
-0.5,180,0,left,2,3,2,0,2,0,2,1,17,4,,,,,,,,,546.6432289999993,547.1430519999994,547.8604982999996,None,547.1595415000002,547.8438464000001,548.3611137999997,None,left,1,0.3020191999994495,548.3611137999997,None,None,,547.1595415000002,548.3445906999996,0.5112865999999485,0.5945608000001812,1.7128089000007094,1.7962495000001582,,,,,syed_2,001,2020_Feb_07_1537,posner,3.1.5,59.87690505849263,
0.5,180,1,right,2,4,2,0,2,0,2,2,18,6,,,,,,,,,548.6790065999994,549.1790007999998,549.8964937000001,None,549.1957206999996,549.8796670000002,550.3974677999995,None,right,1,0.33768830000008165,550.3974677999995,None,None,,549.1957206999996,550.3804848999998,0.5118174999997791,0.5955437000002348,1.7132874999997512,1.7969542000000729,,,,,syed_2,001,2020_Feb_07_1537,posner,3.1.5,59.87690505849263,
-0.5,0,1,left,1,3,2,0,2,0,2,3,19,0,,,,,,,,,550.7652376999995,551.2652941999995,551.9827387999994,None,551.2818090000001,551.9660926999995,552.4836110999995,None,left,1,0.32368879999921774,552.4836110999995,None,None,,551.2818090000001,552.4666780999996,0.5114343000004737,0.5948093999995763,1.7128046999996513,1.796300699999847,,,,,syed_2,001,2020_Feb_07_1537,posner,3.1.5,59.87690505849263,
-0.5,0,1,left,1,3,2,0,2,0,2,4,20,1,,,,,,,,,552.8349551000001,553.3346332000001,554.0521881999994,None,553.3513763999999,554.0356849,554.5530043999997,None,left,1,0.31007339999996475,554.5530043999997,None,None,,553.3513763999999,554.536411,0.5114666999998008,0.5948969000000943,1.7132220000003144,1.7965205999998943,,,,,syed_2,001,2020_Feb_07_1537,posner,3.1.5,59.87690505849263,
0.5,180,1,right,2,4,2,0,2,0,2,5,21,7,,,,,,,,,554.8874402000001,555.3877343999993,556.1051213000001,None,555.4043222,556.0885850999994,556.6059729999997,None,right,1,0.30535150000014255,556.6059729999997,None,None,,555.4043222,556.5889818999995,0.5120325999996567,0.5950396999996883,1.713264899999558,1.796818599999824,,,,,syed_2,001,2020_Feb_07_1537,posner,3.1.5,59.87690505849263,
-0.5,0,1,left,1,3,2,0,2,0,2,6,22,2,,,,,,,,,556.9398170999993,557.4402583000001,558.1580586999999,None,557.4570121999996,558.1411638,558.6587057999996,None,left,1,0.3325144000000364,558.6587057999996,None,None,,557.4570121999996,558.6419107000002,0.5121735000002445,0.5956571000006079,1.7138055000004897,1.797497900000053,,,,,syed_2,001,2020_Feb_07_1537,posner,3.1.5,59.87690505849263,
0.5,0,0,right,1,4,2,0,2,0,2,7,23,3,,,,,,,,,559.0103486999997,559.5097625999997,560.2275842999998,None,559.5267266999999,560.2107453999997,560.7283121999999,None,right,1,0.31880899999941903,560.7283121999999,None,None,,559.5267266999999,560.7114351,0.511401300000216,0.5949583999999959,1.713054099999681,1.7965610000001107,,,,,syed_2,001,2020_Feb_07_1537,posner,3.1.5,59.87690505849263,
-0.5,0,1,left,1,3,2,0,2,0,3,0,24,0,,,,,,,,,561.0627042999995,561.5627704999997,562.2803291,None,561.5794348,562.2638812999994,562.7810178,None,left,1,0.33803549999993265,562.7810178,None,None,,561.5794348,562.7641841999994,0.5117252000000008,0.5950616000000082,1.7131155999995826,1.796883799999705,,,,,syed_2,001,2020_Feb_07_1537,posner,3.1.5,59.87690505849263,
-0.5,0,1,left,1,3,2,0,2,0,3,1,25,1,,,,,,,,,563.1488633999998,563.6488161999996,564.3664961999993,None,563.6656009999997,564.3496684000002,564.8672503999996,None,left,1,0.3078713999993852,564.8672503999996,None,None,,563.6656009999997,564.8504568999997,0.5116449999995893,0.595067299999755,1.713202299999466,1.796738500000174,,,,,syed_2,001,2020_Feb_07_1537,posner,3.1.5,59.87690505849263,
0.5,180,1,right,2,4,2,0,2,0,3,2,26,7,,,,,,,,,565.2021629000001,565.7016001000002,566.4191817999999,None,565.7183736999996,566.4027213999998,566.9199202,None,right,1,0.29539810000005673,566.9199202,None,None,,565.7183736999996,566.9032278999994,0.5114206999996895,0.5949163999994198,1.7130319999996573,1.7966504999994868,,,,,syed_2,001,2020_Feb_07_1537,posner,3.1.5,59.87690505849263,
0.5,0,0,right,1,4,2,0,2,0,3,3,27,3,,,,,,,,,567.2379289,567.7379657000001,568.4554880999995,None,567.7545376999997,568.4388356,568.9562067999996,None,right,1,0.2670208999998067,568.9562067999996,None,None,,567.7545376999997,568.9392515999998,0.5118108999995457,0.5950604999998177,1.7130831000004036,1.7970463999999993,,,,,syed_2,001,2020_Feb_07_1537,posner,3.1.5,59.87690505849263,
0.5,180,1,right,2,4,2,0,2,0,3,4,28,6,,,,,,,,,569.2409815999999,569.7405081999996,570.4582847000001,None,569.7572423000001,570.4414651999996,570.9590902,None,right,1,0.2719673999999941,570.9590902,None,None,,569.7572423000001,570.9422336999996,0.5113455999999132,0.5948920999999245,1.7130520999999135,1.7965303999999378,,,,,syed_2,001,2020_Feb_07_1537,posner,3.1.5,59.87690505849263,
-0.5,180,0,left,2,3,2,0,2,0,3,5,29,4,,,,,,,,,571.2602042999997,571.7600071999996,572.4776732999999,None,571.7767291999999,572.4609796999994,572.9784786,None,left,1,0.30075570000008156,572.9784786,None,None,,571.7767291999999,572.9617173999995,0.5116977000006955,0.5951891000004252,1.7133844999998473,1.7967490999999427,,,,,syed_2,001,2020_Feb_07_1537,posner,3.1.5,59.87690505849263,
0.5,180,1,right,2,4,2,0,2,0,3,6,30,5,,,,,,,,,573.2961379999997,573.7962315999994,574.5139369999997,None,573.8129961999994,574.4970040999997,575.0144608,None,right,1,0.28877710000051593,575.0144608,None,None,,573.8129961999994,574.9978685999995,0.5117799999998169,0.5949989999999161,1.7133996000002298,1.796721400000024,,,,,syed_2,001,2020_Feb_07_1537,posner,3.1.5,59.87690505849263,
-0.5,0,1,left,1,3,2,0,2,0,3,7,31,2,,,,,,,,,575.3326133999999,575.8322220999999,576.5498431999995,None,575.8488143999994,576.5333089999995,577.0505414999998,None,left,1,0.30080180000004475,577.0505414999998,None,None,,575.8488143999994,577.0339715999999,0.5116047999999864,0.5951133999997182,1.7133335999997144,1.7968618000004426,,,,,syed_2,001,2020_Feb_07_1537,posner,3.1.5,59.87690505849263,
-0.5,0,1,left,1,3,2,0,2,0,4,0,32,2,,,,,,,,,577.3688541000001,577.8686407999994,578.5860445999997,None,577.8852656999998,578.5692264999998,579.0868436000001,None,left,1,0.3042569999997795,579.0868436000001,None,None,,577.8852656999998,579.069966,0.5116147000007913,0.594764500000565,1.7129257000005964,1.796880400000191,,,,,syed_2,001,2020_Feb_07_1537,posner,3.1.5,59.87690505849263,
-0.5,180,0,left,2,3,2,0,2,0,4,1,33,4,,,,,,,,,579.4210868,579.9210803999995,580.6389051999995,None,579.9379584999997,580.6220546999994,581.1394180999996,None,left,1,0.26796829999966576,581.1394180999996,None,None,,579.9379584999997,581.1228467000001,0.5114820999997391,0.5950683000000936,1.7132289999999557,1.7968006999999488,,,,,syed_2,001,2020_Feb_07_1537,posner,3.1.5,59.87690505849263,
-0.5,0,1,left,1,3,2,0,2,0,4,2,34,0,,,,,,,,,581.4244318000001,581.9237986999997,582.6416319999998,None,581.940544,582.6250393999999,583.1423077,None,left,1,0.272849099999803,583.1423077,None,None,,581.940544,583.1256260999999,0.5111391999998887,0.5949103999992076,1.7129448999994565,1.7963560999996844,,,,,syed_2,001,2020_Feb_07_1537,posner,3.1.5,59.87690505849263,
0.5,180,1,right,2,4,2,0,2,0,4,3,35,6,,,,,,,,,583.4437809000001,583.9434606999994,584.6610178000001,None,583.9601303,584.6444950999994,585.1617118999993,None,right,1,0.3412646999995559,585.1617118999993,None,None,,583.9601303,585.1451587000001,0.5115542000003188,0.5949590999998691,1.713238199999978,1.796705099999599,,,,,syed_2,001,2020_Feb_07_1537,posner,3.1.5,59.87690505849263,
0.5,180,1,right,2,4,2,0,2,0,4,4,36,5,,,,,,,,,585.5298002,586.0294941000002,586.7473605999994,None,586.0463411999999,586.7305566999994,587.2479143,None,right,1,0.3672338000005766,587.2479143,None,None,,586.0463411999999,587.2313655999997,0.5114321999999447,0.5951625999996395,1.7132829999991372,1.79677349999929,,,,,syed_2,001,2020_Feb_07_1537,posner,3.1.5,59.87690505849263,
0.5,0,0,right,1,4,2,0,2,0,4,5,37,3,,,,,,,,,587.6329681999996,588.1325665999993,588.8500551999996,None,588.1493657000001,588.8334467999994,589.3508277999999,None,right,1,0.2721572999998898,589.3508277999999,None,None,,588.1493657000001,589.3341181999995,0.5116330999999263,0.5950143000000025,1.7131595000000743,1.7967264999997496,,,,,syed_2,001,2020_Feb_07_1537,posner,3.1.5,59.87690505849263,
-0.5,0,1,left,1,3,2,0,2,0,4,6,38,1,,,,,,,,,589.6521939999993,590.1522147999995,590.8695899999993,None,590.1687408999996,590.8529153,591.3701823000001,None,left,1,0.29291250000005675,591.3701823000001,None,None,,590.1687408999996,591.3537986000001,0.5120228999994652,0.5952932999998666,1.7135843999994904,1.7969911999998658,,,,,syed_2,001,2020_Feb_07_1537,posner,3.1.5,59.87690505849263,
0.5,180,1,right,2,4,2,0,2,0,4,7,39,7,,,,,,,,,591.6880095999995,592.1879536999995,592.9057965000002,None,592.2049612999999,592.8889733999995,593.4063793999994,None,right,1,0.2645816999993258,593.4063793999994,None,None,,592.2049612999999,593.3896550999998,0.5117286999993667,0.5952606999999261,1.713412000000062,1.796994199999972,,,,,syed_2,001,2020_Feb_07_1537,posner,3.1.5,59.87690505849263,
-0.5,0,1,left,1,3,2,0,2,0,5,0,40,0,,,,,,,,,593.6915227,594.1907997999997,594.9086443999995,None,594.2077580999994,594.8917440999994,595.4091461999997,None,left,1,0.30190529999981663,595.4091461999997,None,None,,594.2077580999994,595.3925104999998,0.5113462999997864,0.5947262999998202,1.7130314000005455,1.7965673999997307,,,,,syed_2,001,2020_Feb_07_1537,posner,3.1.5,59.87690505849263,
0.5,180,1,right,2,4,2,0,2,0,5,1,41,5,,,,,,,,,595.7271640999998,596.2270658999996,596.9446753000002,None,596.2438137999998,596.9279441999997,597.4453629,None,right,1,0.289773100000275,597.4453629,None,None,,596.2438137999998,597.4286656999993,0.5116333999994822,0.594910499999969,1.7132205999996586,1.7967088999994303,,,,,syed_2,001,2020_Feb_07_1537,posner,3.1.5,59.87690505849263,
0.5,0,0,right,1,4,2,0,2,0,5,2,42,3,,,,,,,,,597.7633212999999,598.2631523999999,598.9813279,None,598.2796493999995,598.9641668999993,599.4814263999997,None,right,1,0.2856369999999515,599.4814263999997,None,None,,598.2796493999995,599.4649318000002,0.5120427000001655,0.595660200000566,1.713798300000235,1.797091100000216,,,,,syed_2,001,2020_Feb_07_1537,posner,3.1.5,59.87690505849263,
0.5,180,1,right,2,4,2,0,2,0,5,3,43,7,,,,,,,,,599.7826469000001,600.2825105000002,601.0000583000001,None,600.2991364,600.9836479999994,601.5007366,None,right,1,0.2823119000004226,601.5007366,None,None,,600.2991364,601.4841743999996,0.5115270000005694,0.5951113000000987,1.7131671000006463,1.7966691000001447,,,,,syed_2,001,2020_Feb_07_1537,posner,3.1.5,59.87690505849263,
0.5,180,1,right,2,4,2,0,2,0,5,4,44,6,,,,,,,,,601.8023255999997,602.3018671,603.0197199999993,None,602.3186228999994,603.0031098999998,603.5203081,None,right,1,0.27884129999984,603.5203081,None,None,,602.3186228999994,603.5037005999993,0.5115027000001646,0.5949798999999985,1.7133215000003474,1.7967114000002766,,,,,syed_2,001,2020_Feb_07_1537,posner,3.1.5,59.87690505849263,
-0.5,0,1,left,1,3,2,0,2,0,5,5,45,1,,,,,,,,,603.8220874999997,604.3213308999993,605.0391318000002,None,604.3382363000001,605.0227230999999,605.5396471999993,None,left,1,0.3393807000002198,605.5396471999993,None,None,,604.3382363000001,605.5233159,0.5112824999996519,0.5947978000003786,1.7132432999997036,1.7966255999999703,,,,,syed_2,001,2020_Feb_07_1537,posner,3.1.5,59.87690505849263,
-0.5,180,0,left,2,3,2,0,2,0,5,6,46,4,,,,,,,,,605.9077956000001,606.4076878999995,607.1253741999999,None,606.4245458999994,607.1084827999994,607.6259652999997,None,left,1,0.33311610000055225,607.6259652999997,None,None,,606.4245458999994,607.6093452999994,0.5117250000002969,0.5950326000001951,1.7133608000003733,1.7969845999996323,,,,,syed_2,001,2020_Feb_07_1537,posner,3.1.5,59.87690505849263,
-0.5,0,1,left,1,3,2,0,2,0,5,7,47,2,,,,,,,,,607.9775141,608.4773464999998,609.1942598999995,None,608.4938997999998,609.1776215,609.6955296999995,None,left,1,0.3434686000000511,609.6955296999995,None,None,,608.4938997999998,609.6789129999997,0.5117091000001892,0.5948859999998604,1.713257500000509,1.7967601999998806,,,,,syed_2,001,2020_Feb_07_1537,posner,3.1.5,59.87690505849263,
-0.5,180,0,left,2,3,2,0,2,0,6,0,48,4,,,,,,,,,610.0636420999999,610.5637011999997,611.2809969999998,None,610.5799287999998,611.2644246,611.7817262999997,None,left,1,0.321185300000252,611.7817262999997,None,None,,610.5799287999998,611.7650948999999,0.5119182999997065,0.5950597000000926,1.713295200000175,1.7967052000003605,,,,,syed_2,001,2020_Feb_07_1537,posner,3.1.5,59.87690505849263,
-0.5,0,1,left,1,3,2,0,2,0,6,1,49,2,,,,,,,,,612.1328416999995,612.6330183999999,613.3504205999998,None,612.6497746999994,613.3338201999995,613.8511539000001,None,left,1,0.29173329999957787,613.8511539000001,None,None,,612.6497746999994,613.8347231999996,0.5118264000002455,0.5951833999997689,1.713508599999841,1.7967509999998583,,,,,syed_2,001,2020_Feb_07_1537,posner,3.1.5,59.87690505849263,
-0.5,0,1,left,1,3,2,0,2,0,6,2,50,0,,,,,,,,,614.1686494999994,614.6690107999993,615.3866892999995,None,614.6857855999997,615.3698845999998,615.8873272999999,None,left,1,0.30358590000014374,615.8873272999999,None,None,,614.6857855999997,615.8704836999996,0.5120363000005455,0.5955469999998968,1.7134894000000713,1.7971633000006477,,,,,syed_2,001,2020_Feb_07_1537,posner,3.1.5,59.87690505849263,
0.5,180,1,right,2,4,2,0,2,0,6,3,51,6,,,,,,,,,616.2219642999999,616.7218451999997,617.4393387,None,616.7386200999999,617.4228458999996,617.9401864000001,None,right,1,0.2988300999995772,617.9401864000001,None,None,,616.7386200999999,617.9234808000001,0.5116565999996965,0.5950714999999036,1.7132686999993894,1.7967713999996704,,,,,syed_2,001,2020_Feb_07_1537,posner,3.1.5,59.87690505849263,
0.5,180,1,right,2,4,2,0,2,0,6,4,52,5,,,,,,,,,618.2582736999993,618.7579485999995,619.4759285999999,None,618.7747614,619.4588538999997,619.9764237999998,None,right,1,0.3185451999997895,619.9764237999998,None,None,,618.7747614,619.9596849999998,0.5115062999993825,0.5950099000001501,1.71322390000023,1.796803799999907,,,,,syed_2,001,2020_Feb_07_1537,posner,3.1.5,59.87690505849263,
-0.5,0,1,left,1,3,2,0,2,0,6,5,53,1,,,,,,,,,620.3109605,620.8109525999998,621.5284559000002,None,620.8276197999994,621.5117573999996,622.0290024999995,None,left,1,0.30596330000025773,622.0290024999995,None,None,,620.8276197999994,622.0126837999996,0.5119006000004447,0.5953041000002486,1.713608000000022,1.7967650999999023,,,,,syed_2,001,2020_Feb_07_1537,posner,3.1.5,59.87690505849263,
0.5,180,1,right,2,4,2,0,2,0,6,6,54,7,,,,,,,,,622.3638433999995,622.863566,623.5812704999998,None,622.8802417999996,623.5646400999995,624.0820035999996,None,right,1,0.31698860000051354,624.0820035999996,None,None,,622.8802417999996,624.0654052,0.5115507000000434,0.5952696000003925,1.713363500000014,1.7965315000001283,,,,,syed_2,001,2020_Feb_07_1537,posner,3.1.5,59.87690505849263,
0.5,0,0,right,1,4,2,0,2,0,6,7,55,3,,,,,,,,,624.4166083,624.9166123999994,625.6341779999993,None,624.9331882999995,625.6174719999999,626.1348410999999,None,right,1,0.3200167999993937,626.1348410999999,None,None,,624.9331882999995,626.1180280999997,0.5118597000000591,0.5949907000003805,1.7132628999997905,1.7967172999997274,,,,,syed_2,001,2020_Feb_07_1537,posner,3.1.5,59.87690505849263,
-0.5,0,1,left,1,3,2,0,2,0,7,0,56,2,,,,,,,,,626.4860484999999,626.9860173999996,627.703767,None,627.0029085999995,627.6871026999997,628.2042700000002,None,left,1,0.3067378000005192,628.2042700000002,None,None,,627.0029085999995,628.1876746999997,0.5116952000007586,0.5948668000000907,1.7133272000000943,1.7965513000008286,,,,,syed_2,001,2020_Feb_07_1537,posner,3.1.5,59.87690505849263,
0.5,180,1,right,2,4,2,0,2,0,7,1,57,5,,,,,,,,,628.5388597000001,629.0387795999995,629.7564691999996,None,629.0555679999998,629.7395425999994,630.2573511999999,630.7410795999995,None,0,,630.2573511999999,None,None,,629.0555679999998,630.2404135999996,0.5117006999998921,0.5950854000002437,1.7133211000000301,1.7966828999997233,,,,,syed_2,001,2020_Feb_07_1537,posner,3.1.5,59.87690505849263,
0.5,0,0,right,1,4,2,0,2,0,7,2,58,3,,,,,,,,,631.2417351999993,631.7424411000002,632.4602058,631.2417351999993,631.7592450000002,632.4435982999994,632.9608767999998,None,right,1,0.3021011000000726,632.9608767999998,None,None,,631.7592450000002,632.9442314999997,0.5136480999999549,0.597128899999916,1.7154003000005105,1.7993620000006558,,,,,syed_2,001,2020_Feb_07_1537,posner,3.1.5,59.87690505849263,
-0.5,0,1,left,1,3,2,0,2,0,7,3,59,1,,,,,,,,,633.2788694999999,633.7786311999998,634.4964318000002,None,633.7954429000001,634.4796047999998,634.9970327999999,None,left,1,0.3139375000000655,634.9970327999999,None,None,,633.7954429000001,634.9802043,0.5115399999995134,0.5950968999995894,1.7130939999997281,1.7967478999999003,,,,,syed_2,001,2020_Feb_07_1537,posner,3.1.5,59.87690505849263,
0.5,180,1,right,2,4,2,0,2,0,7,4,60,7,,,,,,,,,635.3309488999994,635.8315235999999,636.5491267999996,None,635.8482217000001,636.5323469999994,637.0497306999996,None,right,1,0.25312119999944116,637.0497306999996,None,None,,635.8482217000001,637.0332842999997,0.5116287000000739,0.5949613999991925,1.7133647999999084,1.7966151000000536,,,,,syed_2,001,2020_Feb_07_1537,posner,3.1.5,59.87690505849263,
-0.5,0,1,left,1,3,2,0,2,0,7,5,61,0,,,,,,,,,637.3345737999998,637.8342026,638.5517824999997,None,637.8509613999995,638.5352369000002,639.0526333999996,None,left,1,0.26636599999983446,639.0526333999996,None,None,,637.8509613999995,639.0359763999995,0.5113479000001462,0.5946531999998115,1.713104899999962,1.7964520000004995,,,,,syed_2,001,2020_Feb_07_1537,posner,3.1.5,59.87690505849263,
-0.5,180,0,left,2,3,2,0,2,0,7,6,62,4,,,,,,,,,639.3365134999995,639.8370862000002,640.5546482999998,None,639.8537920999997,640.5379414999998,641.0553024999999,None,left,1,0.3355225999994218,641.0553024999999,None,None,,639.8537920999997,641.0385845999999,0.512254700000085,0.5954378999995242,1.7137394000001223,1.7972595999999612,,,,,syed_2,001,2020_Feb_07_1537,posner,3.1.5,59.87690505849263,
0.5,180,1,right,2,4,2,0,2,0,7,7,63,6,,,,,,,,,641.4063729,641.9065728999994,642.6240748999999,None,641.9232232999993,642.6075652999998,643.1248009000001,None,right,1,0.2901495000005525,643.1248009000001,None,None,,641.9232232999993,643.1081199,0.5119891000003918,0.595211200000449,1.7134894999999233,1.796923500000048,,,,,syed_2,001,2020_Feb_07_1537,posner,3.1.5,59.87690505849263,
0.5,180,1,right,2,4,2,0,2,0,8,0,64,6,,,,,,,,,643.4430763999999,643.9427393999995,644.6602735999995,None,643.9592186,644.6435068000001,645.1609915999998,None,right,1,0.34179760000006354,645.1609915999998,None,None,,643.9592186,645.1443504999997,0.5116805999996359,0.5949553999998898,1.7132771999995384,1.7968708999997034,,,,,syed_2,001,2020_Feb_07_1537,posner,3.1.5,59.87690505849263,
-0.5,0,1,left,1,3,2,0,2,0,8,1,65,2,,,,,,,,,645.5290685,646.0286848999995,646.7465676000002,None,646.0456729999996,646.7297293000001,647.2472326999996,None,left,1,0.27153739999994286,647.2472326999996,None,None,,646.0456729999996,647.2303087999999,0.5114137999999002,0.5951114999998026,1.7130170000000362,1.7968534000001455,,,,,syed_2,001,2020_Feb_07_1537,posner,3.1.5,59.87690505849263,
0.5,180,1,right,2,4,2,0,2,0,8,2,66,5,,,,,,,,,647.5482762000001,648.0481971999998,648.7659991,None,648.0651102000002,648.7491214000001,649.2666868999995,None,right,1,0.2760975999999573,649.2666868999995,None,None,,648.0651102000002,649.2498220999996,0.5115760999997292,0.59516369999983,1.713178699999844,1.7966016999998828,,,,,syed_2,001,2020_Feb_07_1537,posner,3.1.5,59.87690505849263,
0.5,180,1,right,2,4,2,0,2,0,8,3,67,7,,,,,,,,,649.5677799999994,650.0678376999995,650.785535,None,650.0845527000001,650.7686156999998,651.2862564999996,None,right,1,0.2805492999996204,651.2862564999996,None,None,,650.0845527000001,651.2692312999998,0.5116324999999051,0.5949519999994664,1.713014199999634,1.7966350999995484,,,,,syed_2,001,2020_Feb_07_1537,posner,3.1.5,59.87690505849263,
0.5,0,0,right,1,4,2,0,2,0,8,4,68,3,,,,,,,,,651.5876712999998,652.0873514999994,652.8048254999994,None,652.1039492,652.7881112999994,653.3055067999994,None,right,1,0.3093387000008079,653.3055067999994,None,None,,652.1039492,653.2889963999996,0.511496399999487,0.5946561000000656,1.7131230999993932,1.7964545999993788,,,,,syed_2,001,2020_Feb_07_1537,posner,3.1.5,59.87690505849263,
-0.5,180,0,left,2,3,2,0,2,0,8,5,69,4,,,,,,,,,653.6397548999994,654.1392643999998,654.8582030999996,None,654.1562985,654.8405377999998,655.3578237000002,None,left,1,0.32091570000011416,655.3578237000002,None,None,,654.1562985,655.3417506999995,0.5113862999996854,0.5951199999999517,1.713852400000178,1.7972757999996247,,,,,syed_2,001,2020_Feb_07_1537,posner,3.1.5,59.87690505849263,
-0.5,0,1,left,1,3,2,0,2,0,8,6,70,1,,,,,,,,,655.7081755999998,656.2090742,656.9271886999995,None,656.2258672999997,656.9104902999998,657.4278749999994,None,left,1,0.3230311999996047,657.4278749999994,None,None,,656.2258672999997,657.4111171999994,0.5121267000004082,0.5956300000007104,1.7141440000004877,1.7975978000004034,,,,,syed_2,001,2020_Feb_07_1537,posner,3.1.5,59.87690505849263,
-0.5,0,1,left,1,3,2,0,2,0,8,7,71,0,,,,,,,,,657.7787748999999,658.2788268999993,658.9968438999995,None,658.2958973999994,658.9798621,659.4973702999996,None,left,1,0.3093661000002612,659.4973702999996,None,None,,658.2958973999994,659.4805774999995,0.5118312000004153,0.5957624000002397,1.713561700000355,1.7971542000004774,,,,,syed_2,001,2020_Feb_07_1537,posner,3.1.5,59.87690505849263,
-0.5,0,1,left,1,3,2,0,2,0,9,0,72,0,,,,,,,,,659.8323006999999,660.3318670999997,661.0494343,None,660.3485230999995,661.0327841999997,661.5501361999995,None,left,1,0.31269390000034036,661.5501361999995,None,None,,660.3485230999995,661.5335445000001,0.5117436000000453,0.5953798000000461,1.7134040000000823,1.7969261000007464,,,,,syed_2,001,2020_Feb_07_1537,posner,3.1.5,59.87690505849263,
-0.5,180,0,left,2,3,2,0,2,0,9,1,73,4,,,,,,,,,661.8848793999996,662.3846518,663.1024225000001,None,662.4011866000001,663.0857335999999,663.6032482999999,None,left,1,0.33157089999986056,663.6032482999999,None,None,,662.4011866000001,663.5862134999998,0.5116222999995443,0.5951125999999931,1.7131715999994412,1.7965651999993497,,,,,syed_2,001,2020_Feb_07_1537,posner,3.1.5,59.87690505849263,
