targetX,cueOri,congr,corrAns,pin_cue,pin_target,block.thisRepN,block.thisTrialN,block.thisN,block.thisIndex,posner_task.thisRepN,posner_task.thisTrialN,posner_task.thisN,posner_task.thisIndex,port_start_block.started,port_start_block.stopped,text_2.started,text_2.stopped,p_port.started,p_port.stopped,text.started,text.stopped,fixation_1.started,fixation_1.stopped,fixation_2.started,fixation_2.stopped,cue.started,cue.stopped,target.started,target.stopped,correct_key_resp.keys,correct_key_resp.corr,correct_key_resp.rt,correct_key_resp.started,correct_key_resp.stopped,early_resp.keys,early_resp.started,early_resp.stopped,trigger_cue.started,trigger_cue.stopped,trigger_target.started,trigger_target.stopped,break_text.started,break_text.stopped,end_port.started,end_port.stopped,early_resp.rt,participant,session,date,expName,psychopyVersion,frameRate,
0.5,180,1,right,2,4,0,0,0,0,0,0,0,6,1.7299999854003545e-05,0.10011329999997542,48.481617800000095,None,1.5299999631679384e-05,0.09948799999983748,50.38401909999993,None,50.71590400000014,51.218764700000065,51.936305000000175,None,51.23522509999975,51.919656999999916,52.43681340000012,None,right,1,0.22860979999995834,52.43681340000012,None,None,51.23522509999975,52.42037560000017,0.5120804000002863,0.5953462000002219,1.7136748000002626,1.7970619000002443,,,,,,anne_1,001,2020_Feb_10_1221,posner,3.1.5,59.98703080399065,
-0.5,0,1,left,1,3,0,0,0,0,0,1,1,2,,,,,,,,,52.688635200000135,53.187947500000064,53.90556639999977,None,53.20467740000004,53.88895539999976,54.40634739999996,None,left,1,0.24305640000011408,54.40634739999996,None,None,53.20467740000004,54.389617199999975,0.5103895000002012,0.5940717000003133,1.7120591000002605,1.7956914000001234,,,,,,anne_1,001,2020_Feb_10_1221,posner,3.1.5,59.98703080399065,
0.5,180,1,right,2,4,0,0,0,0,0,2,2,5,,,,,,,,,54.674121399999876,55.17408810000006,55.89193299999988,None,55.19068460000017,55.87493979999999,56.39237610000009,None,right,1,0.2250157000003128,56.39237610000009,None,None,55.19068460000017,56.37556799999993,0.5118434999999408,0.5951958999999079,1.7133221999997659,1.7969256999999743,,,,,,anne_1,001,2020_Feb_10_1221,posner,3.1.5,59.98703080399065,
0.5,180,1,right,2,4,0,0,0,0,0,3,3,7,,,,,,,,,56.64337029999979,57.14347439999983,57.86095549999982,None,57.159975399999894,57.844356699999935,58.361816199999794,None,right,1,0.26361499999984517,58.361816199999794,None,None,57.159975399999894,58.344973299999765,0.5116668000000573,0.5951301000000058,1.7131512999999359,1.7967853000000105,,,,,,anne_1,001,2020_Feb_10_1221,posner,3.1.5,59.98703080399065,
0.5,0,0,right,1,4,0,0,0,0,0,4,4,3,,,,,,,,,58.64570229999981,59.14629460000015,59.86369000000013,None,59.16285979999975,59.84698819999994,60.364450099999885,None,right,1,0.3650041000000783,60.364450099999885,None,None,59.16285979999975,60.34809809999979,0.5115599000000657,0.5950329000002057,1.7133488999998008,1.7966458000000785,,,,,,anne_1,001,2020_Feb_10_1221,posner,3.1.5,59.98703080399065,
-0.5,0,1,left,1,3,0,0,0,0,0,5,5,1,,,,,,,,,60.74972879999996,61.24917890000006,61.9665473,None,61.26552450000008,61.950077299999975,62.46727329999976,None,left,1,0.2701033000003008,62.46727329999976,None,None,61.26552450000008,62.45082000000002,0.511352199999692,0.5948072999999567,1.7129782999995768,1.796216099999583,,,,,,anne_1,001,2020_Feb_10_1221,posner,3.1.5,59.98703080399065,
-0.5,180,0,left,2,3,0,0,0,0,0,6,6,4,,,,,,,,,62.76849319999974,63.26851429999988,63.98610610000014,None,63.285274299999855,63.96928939999998,64.48689479999985,None,left,1,0.3865225999998074,64.48689479999985,None,None,63.285274299999855,64.47018109999999,0.5116637999999512,0.5951751000002332,1.7133091999999124,1.7967050000002018,,,,,,anne_1,001,2020_Feb_10_1221,posner,3.1.5,59.98703080399065,
-0.5,0,1,left,1,3,0,0,0,0,0,7,7,0,,,,,,,,,64.90480780000007,65.40463619999991,66.12251639999977,None,65.42154479999999,66.10566139999992,66.62330109999994,None,left,1,0.362287799999649,66.62330109999994,None,None,65.42154479999999,66.60631990000002,0.5114885000002687,0.5951519000000189,1.7131549000000632,1.7968516999999338,,,,,,anne_1,001,2020_Feb_10_1221,posner,3.1.5,59.98703080399065,
-0.5,0,1,left,1,3,0,0,0,0,1,0,8,0,,,,,,,,,67.00820139999996,67.50779629999988,68.22522849999996,None,67.52425820000008,68.2087719000001,68.72597600000017,None,left,1,0.30743040000015753,68.72597600000017,None,None,67.52425820000008,68.70965699999988,0.5112574999998287,0.5946134999999231,1.7130973999996968,1.796178300000065,,,,,,anne_1,001,2020_Feb_10_1221,posner,3.1.5,59.98703080399065,
0.5,180,1,right,2,4,0,0,0,0,1,1,9,7,,,,,,,,,69.06068090000008,69.56053639999982,70.27815090000013,None,69.57717300000013,70.26154309999993,70.77901389999988,None,right,1,0.34230269999989105,70.77901389999988,None,None,69.57717300000013,70.76226210000004,0.5114997999999105,0.5948284999999487,1.713222599999881,1.7965648999997939,,,,,,anne_1,001,2020_Feb_10_1221,posner,3.1.5,59.98703080399065,
-0.5,0,1,left,1,3,0,0,0,0,1,2,10,2,,,,,,,,,71.14698610000005,71.64672419999988,72.36428780000006,None,71.66335859999981,72.34780240000009,72.86504500000001,None,left,1,0.3043118999999024,72.86504500000001,None,None,71.66335859999981,72.84848610000017,0.5115680999997494,0.5950548999999228,1.7133106999999654,1.7966631999997844,,,,,,anne_1,001,2020_Feb_10_1221,posner,3.1.5,59.98703080399065,
0.5,180,1,right,2,4,0,0,0,0,1,3,11,6,,,,,,,,,73.19954770000004,73.69971979999991,74.41716760000008,None,73.71610379999993,74.40069799999992,74.91799420000007,None,right,1,0.2672608000002583,74.91799420000007,None,None,73.71610379999993,74.90138739999975,0.5115253999997549,0.5949640999997428,1.713175599999886,1.7963313999998718,,,,,,anne_1,001,2020_Feb_10_1221,posner,3.1.5,59.98703080399065,
0.5,0,0,right,1,4,0,0,0,0,1,4,12,3,,,,,,,,,75.20207189999974,75.70256130000007,76.42006899999978,None,75.71905000000015,76.4034842000001,76.92070079999985,None,right,1,0.3525736000001416,76.92070079999985,None,None,75.71905000000015,76.90394680000009,0.5119695000003048,0.5950929999999062,1.7133437000002232,1.7969083000002684,,,,,,anne_1,001,2020_Feb_10_1221,posner,3.1.5,59.98703080399065,
-0.5,180,0,left,2,3,0,0,0,0,1,5,13,4,,,,,,,,,77.30491110000003,77.80521409999983,78.5229774999998,None,77.82204349999984,78.50605210000003,79.02371360000006,None,left,1,0.25758089999999356,79.02371360000006,None,None,77.82204349999984,79.00668910000013,0.5121997999999621,0.5957346999998663,1.7136557999997422,1.7974208000000544,,,,,,anne_1,001,2020_Feb_10_1221,posner,3.1.5,59.98703080399065,
0.5,180,1,right,2,4,0,0,0,0,1,6,14,5,,,,,,,,,79.30831059999991,79.80815849999999,80.52562579999994,None,79.82456109999976,80.50897489999988,81.02625399999988,None,right,1,0.27890019999995275,81.02625399999988,None,None,79.82456109999976,81.00963390000015,0.5118516000002273,0.5951705000002221,1.7133120000003146,1.7966902000002847,,,,,,anne_1,001,2020_Feb_10_1221,posner,3.1.5,59.98703080399065,
-0.5,0,1,left,1,3,0,0,0,0,1,7,15,1,,,,,,,,,81.32764279999992,81.82740259999991,82.54497319999973,None,81.84419089999983,82.52821779999977,83.0456208999999,None,left,1,0.27565599999979895,83.0456208999999,None,None,81.84419089999983,83.02888129999974,0.5127227999996649,0.5963165999996818,1.714172299999973,1.7979107999999542,,,,,,anne_1,001,2020_Feb_10_1221,posner,3.1.5,59.98703080399065,
-0.5,0,1,left,1,3,0,0,0,0,2,0,16,1,,,,,,,,,83.34685510000008,83.84671399999979,84.56446770000002,None,83.86359099999981,84.54799550000007,85.06511349999982,None,left,1,0.31208050000032017,85.06511349999982,None,None,83.86359099999981,85.04850600000009,0.5114385000001676,0.5949994000002334,1.7132089000001542,1.7966412000000673,,,,,,anne_1,001,2020_Feb_10_1221,posner,3.1.5,59.98703080399065,
-0.5,0,1,left,1,3,0,0,0,0,2,1,17,2,,,,,,,,,85.4000876,85.90009839999993,86.61733439999989,None,85.91643829999975,86.60073650000004,87.11818649999987,87.60237430000006,None,0,,87.11818649999987,None,None,85.91643829999975,87.10132750000002,0.5118744000001243,0.5949421000000257,1.7131263000001127,1.796502700000019,,,,,,anne_1,001,2020_Feb_10_1221,posner,3.1.5,59.98703080399065,
0.5,180,1,right,2,4,0,0,0,0,2,2,18,5,,,,,,,,,88.10279330000003,88.60359139999991,89.32097729999987,88.10279330000003,88.62029299999995,89.30416609999975,89.82188730000007,None,right,1,0.21933639999997467,89.82188730000007,None,None,88.62029299999995,89.80502250000018,0.5140483000000131,0.5970643000000564,1.7154781999997795,1.799063699999806,,,,,,anne_1,001,2020_Feb_10_1221,posner,3.1.5,59.98703080399065,
0.5,0,0,right,1,4,0,0,0,0,2,3,19,3,,,,,,,,,90.07294109999975,90.5728094000001,91.29048520000015,None,90.58964500000002,91.27401379999992,91.79124330000013,None,right,1,0.29005499999993845,91.79124330000013,None,None,90.58964500000002,91.77468970000018,0.5117092999998931,0.5949090999997679,1.7135770999998385,1.7967874000000847,,,,,,anne_1,001,2020_Feb_10_1221,posner,3.1.5,59.98703080399065,
-0.5,0,1,left,1,3,0,0,0,0,2,4,20,0,,,,,,,,,92.10914719999982,92.60901049999984,93.32657870000003,None,92.6255240999999,93.30988900000011,93.8272320000001,None,left,1,0.27821570000014617,93.8272320000001,None,None,92.6255240999999,93.81058080000003,0.5115986999999222,0.5949100999996517,1.7131512999999359,1.7965816999999333,,,,,,anne_1,001,2020_Feb_10_1221,posner,3.1.5,59.98703080399065,
-0.5,180,0,left,2,3,0,0,0,0,2,5,21,4,,,,,,,,,94.12880760000007,94.6283085,95.34587030000012,None,94.64500369999996,95.32934449999993,95.84661319999987,None,left,1,0.35460890000013023,95.84661319999987,None,None,94.64500369999996,95.83009080000011,0.5114819000000352,0.5951535999997759,1.7132438999997248,1.7965408000000025,,,,,,anne_1,001,2020_Feb_10_1221,posner,3.1.5,59.98703080399065,
0.5,180,1,right,2,4,0,0,0,0,2,6,22,6,,,,,,,,,96.2309808,96.73129930000005,97.44905410000001,None,96.74779039999976,97.43218859999979,97.94965679999996,None,right,1,0.25965560000031473,97.94965679999996,None,None,96.74779039999976,97.93306989999974,0.5117512000001625,0.5950455000001966,1.713515500000085,1.796870200000285,,,,,,anne_1,001,2020_Feb_10_1221,posner,3.1.5,59.98703080399065,
0.5,180,1,right,2,4,0,0,0,0,2,7,23,7,,,,,,,,,98.23375420000002,98.73396879999973,99.45163769999999,None,98.75073539999994,99.43482570000015,99.95258759999979,None,right,1,0.2647543999996742,99.95258759999979,None,None,98.75073539999994,99.93573389999983,0.5116627000002154,0.5954596000001402,1.7134133999998085,1.7970202999999856,,,,,,anne_1,001,2020_Feb_10_1221,posner,3.1.5,59.98703080399065,
-0.5,180,0,left,2,3,0,0,0,0,3,0,24,4,,,,,,,,,100.23692100000017,100.73661899999979,101.4543079,None,100.75335970000015,101.43774510000003,101.9550276,None,left,1,0.32621530000005805,101.9550276,None,None,100.75335970000015,101.9384786999999,0.5112821000002441,0.5947469000002457,1.7131210000002284,1.796408700000029,,,,,,anne_1,001,2020_Feb_10_1221,posner,3.1.5,59.98703080399065,
0.5,180,1,right,2,4,0,0,0,0,3,1,25,7,,,,,,,,,102.30666669999982,102.80632079999987,103.52399539999988,None,102.82283490000009,103.50729860000001,104.02450599999975,None,right,1,0.2889703999999256,104.02450599999975,None,None,102.82283490000009,104.00805140000011,0.5116953000001558,0.5951622000002317,1.7134064000001672,1.7966599000001224,,,,,,anne_1,001,2020_Feb_10_1221,posner,3.1.5,59.98703080399065,
-0.5,0,1,left,1,3,0,0,0,0,3,2,26,2,,,,,,,,,104.34235170000011,104.84257900000011,105.55993829999989,None,104.8590736000001,105.54344910000009,106.06073909999986,None,left,1,0.29245250000030865,106.06073909999986,None,None,104.8590736000001,106.04385219999995,0.511930300000131,0.5949545000003127,1.7131897000003846,1.7970601000001807,,,,,,anne_1,001,2020_Feb_10_1221,posner,3.1.5,59.98703080399065,
-0.5,0,1,left,1,3,0,0,0,0,3,3,27,1,,,,,,,,,106.37796720000006,106.87848480000002,107.59599249999974,None,106.89505240000017,107.57955390000006,108.0967697000001,None,left,1,0.3204019999998309,108.0967697000001,None,None,106.89505240000017,108.08022239999991,0.5123240000002625,0.5960135000000264,1.714034300000094,1.7973525000002155,,,,,,anne_1,001,2020_Feb_10_1221,posner,3.1.5,59.98703080399065,
0.5,180,1,right,2,4,0,0,0,0,3,4,28,6,,,,,,,,,108.44803120000006,108.94810909999978,109.66557950000015,None,108.96467759999996,109.64910959999997,110.16626369999994,None,right,1,0.33101910000004864,110.16626369999994,None,None,108.96467759999996,110.14979099999982,0.5116880999999012,0.5950929000000542,1.7133594000001722,1.7967136000002029,,,,,,anne_1,001,2020_Feb_10_1221,posner,3.1.5,59.98703080399065,
0.5,180,1,right,2,4,0,0,0,0,3,5,29,5,,,,,,,,,110.5177549,111.0174806,111.73509879999983,None,111.03414229999998,111.71867209999982,112.23577620000015,None,right,1,0.28539779999982784,112.23577620000015,None,None,111.03414229999998,112.21921410000004,0.5114644000000226,0.5951122999999825,1.713140100000146,1.7966194000000542,,,,,,anne_1,001,2020_Feb_10_1221,posner,3.1.5,59.98703080399065,
0.5,0,0,right,1,4,0,0,0,0,3,6,30,3,,,,,,,,,112.53697319999992,113.0369811999999,113.75459169999976,None,113.05360549999978,113.73819330000015,114.25556520000009,None,right,1,0.36162740000008853,114.25556520000009,None,None,113.05360549999978,114.2388176999998,0.5116296999999577,0.594938700000057,1.7134627000000364,1.7967241000001195,,,,,,anne_1,001,2020_Feb_10_1221,posner,3.1.5,59.98703080399065,
-0.5,0,1,left,1,3,0,0,0,0,3,7,31,0,,,,,,,,,114.63927719999992,115.13987180000004,115.85775150000018,None,115.15658780000012,115.84084679999978,116.35828880000008,None,left,1,0.3229679999999462,116.35828880000008,None,None,115.15658780000012,116.34145959999978,0.5116161999999349,0.5950078999999278,1.7131808999997702,1.7965257000000747,,,,,,anne_1,001,2020_Feb_10_1221,posner,3.1.5,59.98703080399065,
-0.5,0,1,left,1,3,0,0,0,0,4,0,32,2,,,,,,,,,116.7096590000001,117.2094017999998,117.92696560000013,None,117.22600060000013,117.91020200000003,118.42768309999974,None,left,1,0.3414338000002317,118.42768309999974,None,None,117.22600060000013,118.41117189999977,0.5114057999999204,0.5949182999997902,1.7131617999998525,1.7964968999999655,,,,,,anne_1,001,2020_Feb_10_1221,posner,3.1.5,59.98703080399065,
0.5,180,1,right,2,4,0,0,0,0,4,1,33,5,,,,,,,,,118.79585399999996,119.29543830000011,120.01332300000013,None,119.31217359999982,119.99624420000009,120.51388069999985,None,right,1,0.31922819999999774,120.51388069999985,None,None,119.31217359999982,120.49723170000016,0.5113164999997935,0.5949399000000994,1.7130990000000565,1.796516899999915,,,,,,anne_1,001,2020_Feb_10_1221,posner,3.1.5,59.98703080399065,
0.5,180,1,right,2,4,0,0,0,0,4,2,34,6,,,,,,,,,120.86468930000001,121.36523249999982,122.08289370000011,None,121.38181600000007,122.06594600000017,122.58361689999992,None,right,1,0.329512700000123,122.58361689999992,None,None,121.38181600000007,122.56675210000003,0.5125525000003108,0.5959351999999853,1.714058600000044,1.7975946000001386,,,,,,anne_1,001,2020_Feb_10_1221,posner,3.1.5,59.98703080399065,
0.5,0,0,right,1,4,0,0,0,0,4,3,35,3,,,,,,,,,122.93469159999995,123.43444739999995,124.15230470000006,None,123.45149690000017,124.1355666999998,124.65311350000002,None,right,1,0.3160705999998754,124.65311350000002,None,None,123.45149690000017,124.63627959999985,0.5113114999999198,0.5950252999996337,1.7131227999998373,1.7965692999996463,,,,,,anne_1,001,2020_Feb_10_1221,posner,3.1.5,59.98703080399065,
-0.5,180,0,left,2,3,0,0,0,0,4,4,36,4,,,,,,,,,124.98686309999994,125.48758910000015,126.20492639999975,None,125.50385019999976,126.18845969999984,126.70559709999998,None,left,1,0.3435458999997536,126.70559709999998,None,None,125.50385019999976,126.68914020000011,0.5115692999997918,0.5951875000000655,1.7131097999999838,1.7965195000001586,,,,,,anne_1,001,2020_Feb_10_1221,posner,3.1.5,59.98703080399065,
-0.5,0,1,left,1,3,0,0,0,0,4,5,37,1,,,,,,,,,127.07353079999984,127.57381750000013,128.29140770000004,None,127.59039750000011,128.27462400000013,128.79216229999975,None,left,1,0.24904019999985394,128.79216229999975,None,None,127.59039750000011,128.77526899999975,0.5117841000001135,0.595013800000288,1.7132237000000714,1.796843699999954,,,,,,anne_1,001,2020_Feb_10_1221,posner,3.1.5,59.98703080399065,
-0.5,0,1,left,1,3,0,0,0,0,4,6,38,0,,,,,,,,,129.06024079999997,129.55970810000008,130.27761869999995,None,129.5763710000001,130.26049620000003,130.77811440000005,None,left,1,0.3429685999999492,130.77811440000005,None,None,129.5763710000001,130.76134349999984,0.5113740000001599,0.5949199000001499,1.7129918000000544,1.796291100000417,,,,,,anne_1,001,2020_Feb_10_1221,posner,3.1.5,59.98703080399065,
0.5,180,1,right,2,4,0,0,0,0,4,7,39,7,,,,,,,,,131.14576799999986,131.645708,132.36343540000007,None,131.66269439999996,132.34682999999995,132.86405379999997,None,right,1,0.23311750000038955,132.86405379999997,None,None,131.66269439999996,132.84761799999978,0.5116215999996712,0.5953709000000345,1.7135083999996823,1.7968289000000368,,,,,,anne_1,001,2020_Feb_10_1221,posner,3.1.5,59.98703080399065,
-0.5,0,1,left,1,3,0,0,0,0,5,0,40,1,,,,,,,,,133.11538229999996,133.6152643999999,134.3329979,None,133.63196879999987,134.31624120000015,134.8337673000001,None,left,1,0.3114691999999195,134.8337673000001,None,None,133.63196879999987,134.8169456999999,0.5117201000002751,0.5950841000003493,1.7133928000002925,1.7970728000000236,,,,,,anne_1,001,2020_Feb_10_1221,posner,3.1.5,59.98703080399065,
0.5,180,1,right,2,4,0,0,0,0,5,1,41,6,,,,,,,,,135.16845039999998,135.6682483999998,136.38565070000004,None,135.6847256000001,136.36903789999997,136.88632069999994,None,right,1,0.25873890000002575,136.88632069999994,None,None,135.6847256000001,136.8701603999998,0.5117044999997233,0.59513939999988,1.7136012999999366,1.796636000000035,,,,,,anne_1,001,2020_Feb_10_1221,posner,3.1.5,59.98703080399065,
0.5,0,0,right,1,4,0,0,0,0,5,2,42,3,,,,,,,,,137.17096159999983,137.6709218000001,138.38873569999987,None,137.6876671,138.37186810000003,138.8893038000001,None,right,1,0.36778210000011313,138.8893038000001,None,None,137.6876671,138.87258359999987,0.5113691999999901,0.5947007999998277,1.7130171999997401,1.7963297999999668,,,,,,anne_1,001,2020_Feb_10_1221,posner,3.1.5,59.98703080399065,
-0.5,180,0,left,2,3,0,0,0,0,5,3,43,4,,,,,,,,,139.27360520000002,139.7736421999998,140.4915120999999,None,139.7905940999999,140.47474740000007,140.99229370000012,None,left,1,0.2967924999998104,140.99229370000012,None,None,139.7905940999999,140.97521659999984,0.5117690000001858,0.5952586000003066,1.7133300000000418,1.7969411000003674,,,,,,anne_1,001,2020_Feb_10_1221,posner,3.1.5,59.98703080399065,
0.5,180,1,right,2,4,0,0,0,0,5,4,44,5,,,,,,,,,141.3095426,141.80984690000014,142.52773230000003,None,141.82705750000014,142.51087860000007,143.02799370000002,None,right,1,0.24506620000011026,143.02799370000002,None,None,141.82705750000014,143.01157749999993,0.5120947999998862,0.5957475999998678,1.713810399999602,1.7971174999997857,,,,,,anne_1,001,2020_Feb_10_1221,posner,3.1.5,59.98703080399065,
0.5,180,1,right,2,4,0,0,0,0,5,5,45,7,,,,,,,,,143.29600059999984,143.7959621,144.51367619999974,None,143.81278399999974,144.49664559999974,145.01410690000012,None,right,1,0.3628523999996105,145.01410690000012,None,None,143.81278399999974,144.99776329999986,0.5116389999998319,0.5951331999999638,1.7134209000000737,1.7968125000002146,,,,,,anne_1,001,2020_Feb_10_1221,posner,3.1.5,59.98703080399065,
-0.5,0,1,left,1,3,0,0,0,0,5,6,46,0,,,,,,,,,145.39925399999993,145.89927469999975,146.616489,None,145.91539939999984,146.59998589999987,147.11734049999995,None,left,1,0.291707100000167,147.11734049999995,None,None,145.91539939999984,147.10047299999997,0.5120028000001184,0.5949185000004036,1.7131850000000668,1.7966973000002326,,,,,,anne_1,001,2020_Feb_10_1221,posner,3.1.5,59.98703080399065,
-0.5,0,1,left,1,3,0,0,0,0,5,7,47,2,,,,,,,,,147.43510289999995,147.93491519999998,148.6525372000001,None,147.9517108,148.63594610000018,149.15363149999985,None,left,1,0.3433458000004066,149.15363149999985,None,None,147.9517108,149.1367578999998,0.5117097000002104,0.5952179999999316,1.7135511000001316,1.7968580000001566,,,,,,anne_1,001,2020_Feb_10_1221,posner,3.1.5,59.98703080399065,
0.5,180,1,right,2,4,0,0,0,0,6,0,48,7,,,,,,,,,149.5211177000001,150.0210004999999,150.73927420000018,None,150.0376842999999,150.72227889999976,151.23977550000018,None,right,1,0.29720510000015565,151.23977550000018,None,None,150.0376842999999,151.2223171999999,0.5113547000000835,0.5943207999998776,1.7126587000002473,1.796917300000132,,,,,,anne_1,001,2020_Feb_10_1221,posner,3.1.5,59.98703080399065,
-0.5,0,1,left,1,3,0,0,0,0,6,1,49,1,,,,,,,,,151.55620790000012,152.05736930000012,152.77508469999975,None,152.07437630000004,152.75856750000003,153.27586410000004,None,left,1,0.30097780000005514,153.27586410000004,None,None,152.07437630000004,153.25863470000013,0.5124362999999903,0.5957985999998527,1.7136786999999458,1.7970252000000073,,,,,,anne_1,001,2020_Feb_10_1221,posner,3.1.5,59.98703080399065,
-0.5,0,1,left,1,3,0,0,0,0,6,2,50,0,,,,,,,,,153.5933270999999,154.09336110000004,154.81109609999976,None,154.1101580999998,154.79435090000015,155.3117143999998,None,left,1,0.2813482000001386,155.3117143999998,None,None,154.1101580999998,155.29511619999994,0.5122111000000587,0.595502099999976,1.713952000000063,1.7972978000002513,,,,,,anne_1,001,2020_Feb_10_1221,posner,3.1.5,59.98703080399065,
0.5,180,1,right,2,4,0,0,0,0,6,3,51,5,,,,,,,,,155.61288079999986,156.11286500000006,156.83090850000008,None,156.1300784,156.81443820000004,157.33123720000003,None,right,1,0.2297406000002411,157.33123720000003,None,None,156.1300784,157.31436889999986,0.5115476000000854,0.5950579000000289,1.7130604000003586,1.7968057000002773,,,,,,anne_1,001,2020_Feb_10_1221,posner,3.1.5,59.98703080399065,
0.5,180,1,right,2,4,0,0,0,0,6,4,52,6,,,,,,,,,157.5821102,158.0823320999998,158.7998951999998,None,158.09897969999975,158.78305450000016,159.30057499999975,None,right,1,0.38052509999988615,159.30057499999975,None,None,158.09897969999975,159.2836711,0.511627800000042,0.594980299999861,1.7129455999997845,1.796775599999819,,,,,,anne_1,001,2020_Feb_10_1221,posner,3.1.5,59.98703080399065,
-0.5,0,1,left,1,3,0,0,0,0,6,5,53,2,,,,,,,,,159.70217490000005,160.20182879999993,160.91961649999985,None,160.21865380000008,160.90293840000004,161.42010630000004,None,left,1,0.2768254999996316,161.42010630000004,None,None,160.21865380000008,161.4045074999999,0.5114870000002156,0.5948715000004086,1.7141320000000633,1.7966057000003275,,,,,,anne_1,001,2020_Feb_10_1221,posner,3.1.5,59.98703080399065,
0.5,0,0,right,1,4,0,0,0,0,6,6,54,3,,,,,,,,,161.72131609999997,162.22136120000005,162.93907809999973,None,162.23810569999978,162.92236809999986,163.43976459999976,None,right,1,0.30535430000009,163.43976459999976,None,None,162.23810569999978,163.42292199999974,0.51172250000036,0.5950812000000951,1.7132705000003625,1.7967241999999715,,,,,,anne_1,001,2020_Feb_10_1221,posner,3.1.5,59.98703080399065,
-0.5,180,0,left,2,3,0,0,0,0,6,7,55,4,,,,,,,,,163.77414120000003,164.27401120000013,164.99181689999978,None,164.29090439999982,164.97505,165.4926559999999,None,left,1,0.3242804999999862,165.4926559999999,None,None,164.29090439999982,165.47588610000003,0.5116265999999996,0.5954240999999456,1.713510099999894,1.7969574999997349,,,,,,anne_1,001,2020_Feb_10_1221,posner,3.1.5,59.98703080399065,
-0.5,180,0,left,2,3,0,0,0,0,7,0,56,4,,,,,,,,,165.84319700000015,166.3436569999999,167.06142490000002,None,166.36029849999977,167.04455770000004,167.56206500000008,None,left,1,0.31091269999978977,167.56206500000008,None,None,166.36029849999977,167.5450990999998,0.5115544000000227,0.5952455999999984,1.7129777000000104,1.796694000000116,,,,,,anne_1,001,2020_Feb_10_1221,posner,3.1.5,59.98703080399065,
0.5,180,1,right,2,4,0,0,0,0,7,1,57,5,,,,,,,,,167.89670230000002,168.39670650000016,169.11409379999986,None,168.4132393,169.0978215,169.61464999999998,170.09911599999987,None,0,,169.61464999999998,None,None,168.4132393,169.59814849999975,0.5115844000001744,0.5947934000000714,1.7130035000000134,1.7965899000000718,,,,,,anne_1,001,2020_Feb_10_1221,posner,3.1.5,59.98703080399065,
-0.5,0,1,left,1,3,0,0,0,0,7,2,58,2,,,,,,,,,170.59943340000018,171.1000524000001,171.8180229999998,170.59943340000018,171.1166887999998,171.8013308999998,172.31812679999985,None,left,1,0.2829506000002766,172.31812679999985,None,None,171.1166887999998,172.30193419999978,0.513574200000221,0.5971991000001253,1.7154332999998587,1.798678099999961,,,,,,anne_1,001,2020_Feb_10_1221,posner,3.1.5,59.98703080399065,
0.5,180,1,right,2,4,0,0,0,0,7,3,59,6,,,,,,,,,172.62007809999977,173.1197118,173.83736309999995,None,173.13616709999997,173.82079220000014,174.33812239999997,None,right,1,0.29477189999988695,174.33812239999997,None,None,173.13616709999997,174.3213040999999,0.5113378999999441,0.5947492000000238,1.7129205000001093,1.7963354000003164,,,,,,anne_1,001,2020_Feb_10_1221,posner,3.1.5,59.98703080399065,
-0.5,0,1,left,1,3,0,0,0,0,7,4,60,1,,,,,,,,,174.65565590000006,175.15571020000016,175.873513,None,175.17253249999976,175.85656199999994,176.37410109999973,None,left,1,0.26697509999985414,176.37410109999973,None,None,175.17253249999976,176.3573191999999,0.5116914999998698,0.5953386999999566,1.7132907999998679,1.7968290999997407,,,,,,anne_1,001,2020_Feb_10_1221,posner,3.1.5,59.98703080399065,
0.5,0,0,right,1,4,0,0,0,0,7,5,61,3,,,,,,,,,176.6589982999999,177.15857629999982,177.8761841999999,None,177.17508580000003,177.8594638999998,178.37716920000003,None,right,1,0.35169790000009016,178.37716920000003,None,None,177.17508580000003,178.36009590000003,0.5113167999998041,0.5948676999996678,1.7128027999997357,1.7963545999996313,,,,,,anne_1,001,2020_Feb_10_1221,posner,3.1.5,59.98703080399065,
0.5,180,1,right,2,4,0,0,0,0,7,6,62,7,,,,,,,,,178.7441656000001,179.24468119999983,179.96231989999978,None,179.2615351999998,179.94551439999987,180.4631027999999,None,right,1,0.4097695999998905,180.4631027999999,None,None,179.2615351999998,180.44640729999992,0.5120475000003353,0.5957085000000006,1.7137548000000606,1.7971397000001161,,,,,,anne_1,001,2020_Feb_10_1221,posner,3.1.5,59.98703080399065,
-0.5,0,1,left,1,3,0,0,0,0,7,7,63,0,,,,,,,,,180.89816650000012,181.39808700000003,182.11542550000013,None,181.41427829999975,182.09871780000003,182.6158734999999,None,left,1,0.3130054999996901,182.6158734999999,None,None,181.41427829999975,182.5995127000001,0.5121702999999798,0.5953830999997081,1.7135792999997648,1.7968573999996806,,,,,,anne_1,001,2020_Feb_10_1221,posner,3.1.5,59.98703080399065,
0.5,180,1,right,2,4,0,0,0,0,8,0,64,5,,,,,,,,,182.95092639999984,183.45034140000007,184.1681281000001,None,183.46735959999978,184.15157640000007,184.66866930000015,None,right,1,0.3162942000003568,184.66866930000015,None,None,183.46735959999978,184.65230059999976,0.5111619999997856,0.5956978999997773,1.7130990999999085,1.7963220000001456,,,,,,anne_1,001,2020_Feb_10_1221,posner,3.1.5,59.98703080399065,
-0.5,180,0,left,2,3,0,0,0,0,8,1,65,4,,,,,,,,,185.0031755,185.50343179999982,186.22083909999992,None,185.5200565,186.20401720000018,186.72187480000002,None,left,1,0.2949552999998559,186.72187480000002,None,None,185.5200565,186.70495549999987,0.5119267000000036,0.5952674999998635,1.7134384000000864,1.7970051000002059,,,,,,anne_1,001,2020_Feb_10_1221,posner,3.1.5,59.98703080399065,
-0.5,0,1,left,1,3,0,0,0,0,8,2,66,1,,,,,,,,,187.03956070000004,187.53938040000003,188.25708050000003,None,187.5560989999999,188.24034849999998,188.75790529999995,None,left,1,0.2669651999999587,188.75790529999995,None,None,187.5560989999999,188.74130620000005,0.5114882999996553,0.5948898999999983,1.713390999999774,1.7964098999996168,,,,,,anne_1,001,2020_Feb_10_1221,posner,3.1.5,59.98703080399065,
-0.5,0,1,left,1,3,0,0,0,0,8,3,67,0,,,,,,,,,189.04190770000014,189.54210719999992,190.25997289999987,None,189.55869530000018,190.24310449999984,190.76067610000018,None,left,1,0.26425239999980477,190.76067610000018,None,None,189.55869530000018,190.74397550000003,0.5117437999997492,0.5950694999996813,1.7135977999996612,1.7970151999998052,,,,,,anne_1,001,2020_Feb_10_1221,posner,3.1.5,59.98703080399065,
-0.5,0,1,left,1,3,0,0,0,0,8,4,68,2,,,,,,,,,191.04520869999988,191.54494609999983,192.2626178999999,None,191.5617603999999,192.24578440000005,192.76335789999985,None,left,1,0.32549999999991996,192.76335789999985,None,None,191.5617603999999,192.74662420000004,0.511380299999928,0.5949565999999322,1.7130581999999777,1.7965048000000934,,,,,,anne_1,001,2020_Feb_10_1221,posner,3.1.5,59.98703080399065,
0.5,180,1,right,2,4,0,0,0,0,8,5,69,7,,,,,,,,,193.11428680000017,193.61413570000013,194.3321135000001,None,193.6311885,194.3152169,194.8328293999998,None,right,1,0.2561518999996224,194.8328293999998,None,None,193.6311885,194.81617159999996,0.5113901999998234,0.595102599999791,1.713407599999755,1.7969960000000356,,,,,,anne_1,001,2020_Feb_10_1221,posner,3.1.5,59.98703080399065,
0.5,0,0,right,1,4,0,0,0,0,8,6,70,3,,,,,,,,,195.11736599999995,195.61742079999976,196.3348178000001,None,195.63399029999982,196.31826850000016,196.83547150000004,None,right,1,0.38137400000005073,196.83547150000004,None,None,195.63399029999982,196.81889730000012,0.5119512999999642,0.595092399999885,1.7134123000000727,1.7970000999998774,,,,,,anne_1,001,2020_Feb_10_1221,posner,3.1.5,59.98703080399065,
0.5,180,1,right,2,4,0,0,0,0,8,7,71,6,,,,,,,,,197.2375419,197.73681780000015,198.45433850000018,None,197.75326339999992,198.43795080000018,198.95502179999994,None,right,1,0.3098045000001548,198.95502179999994,None,None,197.75326339999992,198.93856300000016,0.511775000000398,0.5950308000001314,1.713220999999976,1.7964669000002687,,,,,,anne_1,001,2020_Feb_10_1221,posner,3.1.5,59.98703080399065,
-0.5,0,1,left,1,3,0,0,0,0,9,0,72,2,,,,,,,,,199.2894796999999,199.78962479999973,200.50732199999993,None,199.80632560000004,200.49071679999997,201.00798759999998,None,left,1,0.2568921000001865,201.00798759999998,None,None,199.80632560000004,200.99120949999997,0.5118549999997413,0.5953591999996206,1.7134126999999353,1.7967395999999098,,,,,,anne_1,001,2020_Feb_10_1221,posner,3.1.5,59.98703080399065,
0.5,180,1,right,2,4,0,0,0,0,9,1,73,7,,,,,,,,,201.29183160000002,201.79248329999973,202.50986779999994,None,201.80933249999998,202.49330370000007,203.01065870000002,None,right,1,0.23021909999988566,203.01065870000002,None,None,201.80933249999998,202.99406409999983,0.5124760999997306,0.5957896999998411,1.7140394999996715,1.7977891999998974,,,,,,anne_1,001,2020_Feb_10_1221,posner,3.1.5,59.98703080399065,
0.5,0,0,right,1,4,0,0,0,0,9,2,74,3,,,,,,,,,203.26189569999997,203.76183189999983,204.4795307999998,None,203.7783546999999,204.46285119999993,204.98021160000008,None,right,1,0.36456120000002556,204.98021160000008,None,None,203.7783546999999,204.9635014999999,0.5117323999998007,0.5950719999996181,1.7133870999996361,1.7966825999997127,,,,,,anne_1,001,2020_Feb_10_1221,posner,3.1.5,59.98703080399065,
0.5,180,1,right,2,4,0,0,0,0,9,3,75,5,,,,,,,,,205.36473560000013,205.86457530000007,206.5823694999999,None,205.88147789999994,206.5655339,207.08302300000014,None,right,1,0.24574310000025434,207.08302300000014,None,None,205.88147789999994,207.06625489999988,0.5114585000001171,0.5951190000000679,1.7131225000002814,1.7967625999999655,,,,,,anne_1,001,2020_Feb_10_1221,posner,3.1.5,59.98703080399065,
-0.5,180,0,left,2,3,0,0,0,0,9,4,76,4,,,,,,,,,207.3510612,207.85076160000017,208.56831069999998,None,207.86764349999976,208.55182849999983,209.06922699999996,None,left,1,0.3395602000000508,209.06922699999996,None,None,207.86764349999976,209.05225900000005,0.511428799999976,0.5947989000001144,1.712927099999888,1.7962726999999177,,,,,,anne_1,001,2020_Feb_10_1221,posner,3.1.5,59.98703080399065,
-0.5,0,1,left,1,3,0,0,0,0,9,5,77,1,,,,,,,,,209.43697190000012,209.93675369999983,210.65447059999997,None,209.9535034999999,210.63802769999984,211.1551003999998,None,left,1,0.37383920000002036,211.1551003999998,None,None,209.9535034999999,211.1386112,0.5113879999998971,0.5949832000001152,1.7132285000002412,1.7967885000002752,,,,,,anne_1,001,2020_Feb_10_1221,posner,3.1.5,59.98703080399065,
0.5,180,1,right,2,4,0,0,0,0,9,6,78,6,,,,,,,,,211.55677609999975,212.0563287,212.77417289999994,None,212.0733507,212.75750089999974,213.2747006999998,None,right,1,0.2700675000000956,213.2747006999998,None,None,212.0733507,213.25831119999975,0.5113774000001285,0.5948585000001003,1.7133340999998836,1.7966507999999521,,,,,,anne_1,001,2020_Feb_10_1221,posner,3.1.5,59.98703080399065,
-0.5,0,1,left,1,3,0,0,0,0,9,7,79,0,,,,,,,,,213.57598659999985,214.0759594000001,214.79361890000018,None,214.09260640000002,214.7769045,215.29423510000015,None,left,1,0.33052950000001147,215.29423510000015,None,None,214.09260640000002,215.27768149999974,0.5114940999997089,0.5950246999996125,1.7131931999997505,1.7964846999998372,,,,,,anne_1,001,2020_Feb_10_1221,posner,3.1.5,59.98703080399065,
-0.5,0,1,left,1,3,0,0,0,0,10,0,80,2,,,,,,,,,215.64585450000004,216.14532929999996,216.86314360000006,None,216.16217659999984,216.84646190000012,217.36381059999985,None,left,1,0.3571314999999231,217.36381059999985,None,None,216.16217659999984,217.34714910000002,0.5113026000003629,0.5949712999999974,1.7131150000000162,1.796690000000126,,,,,,anne_1,001,2020_Feb_10_1221,posner,3.1.5,59.98703080399065,
-0.5,180,0,left,2,3,0,0,0,0,10,1,81,4,,,,,,,,,217.74858080000013,218.24846549999984,218.9659676000001,None,218.26496580000003,218.94948350000004,219.46669829999973,None,left,1,0.3580802000001313,219.46669829999973,None,None,218.26496580000003,219.45005619999984,0.51163489999999,0.5951135000000249,1.7132058000001962,1.7965845000003355,,,,,,anne_1,001,2020_Feb_10_1221,posner,3.1.5,59.98703080399065,
0.5,180,1,right,2,4,0,0,0,0,10,2,82,6,,,,,,,,,219.8511583999998,220.3515610999998,221.06900799999994,None,220.36789399999998,221.05219529999977,221.5696951,None,right,1,0.3430183999998917,221.5696951,None,None,220.36789399999998,221.55315819999987,0.5120429000003242,0.5950775000001158,1.7136250000003201,1.796882000000096,,,,,,anne_1,001,2020_Feb_10_1221,posner,3.1.5,59.98703080399065,
-0.5,0,1,left,1,3,0,0,0,0,10,3,83,0,,,,,,,,,221.93763579999995,222.43749329999991,223.15491059999977,None,222.45397090000006,223.1384379000001,223.65582540000014,None,left,1,0.30482449999999517,223.65582540000014,None,None,222.45397090000006,223.63916830000016,0.5116767999998046,0.5950778000001264,1.7133385000001908,1.7966624999999112,,,,,,anne_1,001,2020_Feb_10_1221,posner,3.1.5,59.98703080399065,
0.5,180,1,right,2,4,0,0,0,0,10,4,84,5,,,,,,,,,223.98991999999998,224.49029789999986,225.20807819999982,None,224.50687740000012,225.19129220000013,225.70851790000006,None,right,1,0.21226019999994605,225.70851790000006,None,None,224.50687740000012,225.69209349999983,0.5117120999998406,0.5953518999999687,1.7134864999998172,1.7968077000000449,,,,,,anne_1,001,2020_Feb_10_1221,posner,3.1.5,59.98703080399065,
-0.5,0,1,left,1,3,0,0,0,0,10,5,85,1,,,,,,,,,225.9432483999999,226.44326980000005,227.16059210000003,None,226.45966249999992,227.14375699999982,227.66149829999995,None,left,1,0.3312464999999065,227.66149829999995,None,None,226.45966249999992,227.64457889999994,0.511710199999925,0.5946719999997185,1.7130081999998765,1.796673699999701,,,,,,anne_1,001,2020_Feb_10_1221,posner,3.1.5,59.98703080399065,
0.5,180,1,right,2,4,0,0,0,0,10,6,86,7,,,,,,,,,228.01285370000005,228.51249789999974,229.2301911999998,None,228.52923180000016,229.2135242999998,229.73078290000012,None,right,1,0.21397049999995943,229.73078290000012,None,None,228.52923180000016,229.71415960000013,0.511538599999767,0.5948775999995632,1.7131819999999607,1.7966768999999658,,,,,,anne_1,001,2020_Feb_10_1221,posner,3.1.5,59.98703080399065,
0.5,0,0,right,1,4,0,0,0,0,10,7,87,3,,,,,,,,,229.96541419999994,230.46503840000014,231.1827456000001,None,230.48196430000007,231.1659469000001,231.6835084999998,None,right,1,0.3812370999999075,231.6835084999998,None,None,230.48196430000007,231.6667354000001,0.5112960999999814,0.5948479999997289,1.7129956999997376,1.7965419999995902,,,,,,anne_1,001,2020_Feb_10_1221,posner,3.1.5,59.98703080399065,
,,,,,,0,0,0,0,,,,,,,,,,,,,,,,,,,,,,,,,,,,,,,,,232.0853004999999,None,1.8199999885837315e-05,0.9960317999998551,,anne_1,001,2020_Feb_10_1221,posner,3.1.5,59.98703080399065,
0.5,180,1,right,2,4,1,0,1,0,0,0,0,5,1.159999965238967e-05,0.09761600000001636,293.10139649999974,None,1.0700000075303251e-05,0.09774210000023231,295.2040621000001,None,295.4869878999998,295.98870869999973,296.7062298000001,None,296.0053904000001,296.6897048999999,297.20694820000017,None,right,1,0.4575980999998137,297.20694820000017,None,right,296.0053904000001,297.1903833000001,0.5104206999999406,0.5938561000002665,1.7120773000001464,1.795434799999839,,,,,0.41096749999996973,anne_1,001,2020_Feb_10_1221,posner,3.1.5,59.98703080399065,
-0.5,0,1,left,1,3,1,0,1,0,0,1,1,1,,,,,,,,,297.6926364000001,298.191726,298.9093724999998,None,298.2084918999999,298.8927041000002,299.4100276999998,297.6926364000001,left,1,0.3505088000001706,299.4100276999998,None,None,298.2084918999999,299.39333929999975,0.5106897999999092,0.5939742999998998,1.7122917000001507,1.7959098000001177,,,,,,anne_1,001,2020_Feb_10_1221,posner,3.1.5,59.98703080399065,
0.5,180,1,right,2,4,1,0,1,0,0,2,2,7,,,,,,,,,299.77811299999985,300.27777209999977,300.9955719999998,None,300.29444950000016,300.9789993999998,301.4961798999998,None,right,1,0.296216799999911,301.4961798999998,None,None,300.29444950000016,301.47947829999976,0.5112933000000339,0.5948450999999295,1.7129895999996734,1.7964423999997052,,,,,,anne_1,001,2020_Feb_10_1221,posner,3.1.5,59.98703080399065,
0.5,180,1,right,2,4,1,0,1,0,0,3,3,6,,,,,,,,,301.8141055000001,302.3137077000001,303.0316954,None,302.33065739999984,303.014897,303.53239369999983,None,right,1,0.32425249999960215,303.53239369999983,None,None,302.33065739999984,303.5157239,0.5112931999997272,0.594999800000096,1.7132959000000483,1.7966569000000163,,,,,,anne_1,001,2020_Feb_10_1221,posner,3.1.5,59.98703080399065,
-0.5,0,1,left,1,3,1,0,1,0,0,4,4,0,,,,,,,,,303.88336519999984,304.38335199999983,305.1010319000002,None,304.4004240999998,305.0843660999999,305.6016933000001,None,left,1,0.2789914999998473,305.6016933000001,None,None,304.4004240999998,305.58494139999993,0.5116127000001143,0.5952407999998286,1.7131924999998773,1.7969702000000325,,,,,,anne_1,001,2020_Feb_10_1221,posner,3.1.5,59.98703080399065,
-0.5,180,0,left,2,3,1,0,1,0,0,5,5,4,,,,,,,,,305.90335779999987,306.4030023999999,307.12079489999996,None,306.4198446999999,307.1037412999999,307.62137540000003,None,left,1,0.33895910000001095,307.62137540000003,None,None,306.4198446999999,307.60455850000017,0.5118004999999357,0.5951110000000881,1.713339299999916,1.7969268000001648,,,,,,anne_1,001,2020_Feb_10_1221,posner,3.1.5,59.98703080399065,
0.5,0,0,right,1,4,1,0,1,0,0,6,6,3,,,,,,,,,307.9898205999998,308.48935900000015,309.20692610000015,None,308.5058138999998,309.19024039999977,309.70750799999996,None,right,1,0.2688031000002411,309.70750799999996,None,None,308.5058138999998,309.69087009999976,0.5116726999999628,0.5948834000000716,1.7131595000000743,1.7964780000002065,,,,,,anne_1,001,2020_Feb_10_1221,posner,3.1.5,59.98703080399065,
-0.5,0,1,left,1,3,1,0,1,0,0,7,7,2,,,,,,,,,309.99254359999986,310.49218340000016,311.20945459999984,None,310.5088363,311.1929104999999,311.7102602,None,left,1,0.26622660000020915,311.7102602,None,None,310.5088363,311.6935156999998,0.5116781000001538,0.5947577000001729,1.7129710000003797,1.7966111000000637,,,,,,anne_1,001,2020_Feb_10_1221,posner,3.1.5,59.98703080399065,
0.5,180,1,right,2,4,1,0,1,0,1,0,8,6,,,,,,,,,311.9941561999999,312.4945723999999,313.2124239999998,None,312.5114085,313.19552639999984,313.71328649999987,None,right,1,0.28706759999977294,313.71328649999987,None,None,312.5114085,313.6962764,0.5120914000003722,0.5956189000003178,1.7137759000002006,1.7973280000001068,,,,,,anne_1,001,2020_Feb_10_1221,posner,3.1.5,59.98703080399065,
-0.5,0,1,left,1,3,1,0,1,0,1,1,9,1,,,,,,,,,314.0303650999999,314.53083579999975,315.24841030000016,None,314.5474629,315.2318101000001,315.7491372999998,None,left,1,0.2992829999998321,315.7491372999998,None,None,314.5474629,315.73253750000003,0.5118227000002662,0.595252800000253,1.71351709999999,1.7969198000000688,,,,,,anne_1,001,2020_Feb_10_1221,posner,3.1.5,59.98703080399065,
-0.5,0,1,left,1,3,1,0,1,0,1,2,10,0,,,,,,,,,316.0672834000002,316.5670381,317.2840719000001,None,316.5834034999998,317.2674735999999,317.785085,None,left,1,0.3031997999996747,317.785085,None,None,316.5834034999998,317.7685683999998,0.5116711000000578,0.5949459999997089,1.7131868999999824,1.7965927000000192,,,,,,anne_1,001,2020_Feb_10_1221,posner,3.1.5,59.98703080399065,
0.5,180,1,right,2,4,1,0,1,0,1,3,11,5,,,,,,,,,318.1192925999999,318.61966570000004,319.33753780000006,None,318.63634679999996,319.3208558000001,319.8381795,None,right,1,0.28218420000030164,319.8381795,None,None,318.63634679999996,319.8214005,0.512132500000007,0.595634599999812,1.7138437999997223,1.7971827999999732,,,,,,anne_1,001,2020_Feb_10_1221,posner,3.1.5,59.98703080399065,
0.5,180,1,right,2,4,1,0,1,0,1,4,12,7,,,,,,,,,320.13933529999986,320.63926820000006,321.3569600000001,None,320.65583909999987,321.3402802999999,321.8577368000001,None,right,1,0.35857050000004165,321.8577368000001,None,None,320.65583909999987,321.84091769999986,0.5116539000000557,0.5950546999997641,1.713295200000175,1.7964922000001025,,,,,,anne_1,001,2020_Feb_10_1221,posner,3.1.5,59.98703080399065,
-0.5,0,1,left,1,3,1,0,1,0,1,5,13,2,,,,,,,,,322.24206330000015,322.7420701000001,323.45983810000007,None,322.75870209999994,323.4431525,323.96046720000004,None,left,1,0.367789399999765,323.96046720000004,None,None,322.75870209999994,323.94375409999975,0.5117826999999124,0.5948214999998527,1.7134496999997282,1.7968461999998908,,,,,,anne_1,001,2020_Feb_10_1221,posner,3.1.5,59.98703080399065,
0.5,0,0,right,1,4,1,0,1,0,1,6,14,3,,,,,,,,,324.3450714999999,324.84487690000014,325.56273629999987,None,324.8616873000001,325.54591560000017,326.0630894000001,None,right,1,0.36109480000004623,326.0630894000001,None,None,324.8616873000001,326.04653340000004,0.5114194000002499,0.5949967000001379,1.713094799999908,1.7966308000000026,,,,,,anne_1,001,2020_Feb_10_1221,posner,3.1.5,59.98703080399065,
-0.5,180,0,left,2,3,1,0,1,0,1,7,15,4,,,,,,,,,326.44810039999993,326.9479080000001,327.66594299999997,None,326.96457310000005,327.6503069999999,328.1661220000001,None,left,1,0.33019019999983357,328.1661220000001,None,None,326.96457310000005,328.1498938,0.5115143000002718,0.5950548000000708,1.7134768000000804,1.7966535999998996,,,,,,anne_1,001,2020_Feb_10_1221,posner,3.1.5,59.98703080399065,
-0.5,0,1,left,1,3,1,0,1,0,2,0,16,0,,,,,,,,,328.51780759999974,329.0173160999998,329.73493959999996,None,329.03401080000003,329.71831040000006,330.23578,None,left,1,0.36464909999995143,330.23578,None,None,329.03401080000003,330.2191511000001,0.5114917000000787,0.5949343000002045,1.713312500000029,1.7967391000001953,,,,,,anne_1,001,2020_Feb_10_1221,posner,3.1.5,59.98703080399065,
-0.5,0,1,left,1,3,1,0,1,0,2,1,17,1,,,,,,,,,330.62041279999994,331.1203126999999,331.83787189999975,None,331.13699880000013,331.82128699999976,332.3386989999999,None,left,1,0.3816084999998566,332.3386989999999,None,None,331.13699880000013,332.32178010000007,0.5114653000000544,0.5947225999998409,1.7129218000000037,1.7963346000001366,,,,,,anne_1,001,2020_Feb_10_1221,posner,3.1.5,59.98703080399065,
0.5,180,1,right,2,4,1,0,1,0,2,2,18,7,,,,,,,,,332.73997370000006,333.2400054,333.95753149999973,None,333.2564358999998,333.9410401,334.45823359999986,None,right,1,0.3661443999999392,334.45823359999986,None,None,333.2564358999998,334.44172819999994,0.511694400000124,0.5949894999998833,1.7134025999998812,1.7966998000001695,,,,,,anne_1,001,2020_Feb_10_1221,posner,3.1.5,59.98703080399065,
0.5,0,0,right,1,4,1,0,1,0,2,3,19,3,,,,,,,,,334.8429016,335.3426448,336.06039199999987,None,335.35941649999995,336.0435158,336.56113719999985,None,right,1,0.3591415999999299,336.56113719999985,None,None,335.35941649999995,336.5444152,0.5114293000001453,0.5948874999999134,1.7131890000000567,1.7966197000000648,,,,,,anne_1,001,2020_Feb_10_1221,posner,3.1.5,59.98703080399065,
-0.5,180,0,left,2,3,1,0,1,0,2,4,20,4,,,,,,,,,336.94559419999996,337.4456159000001,338.1631991999998,None,337.4624927,338.1467428000001,338.66390580000007,None,left,1,0.35235889999967185,338.66390580000007,None,None,337.4624927,338.6474042,0.5117447000002358,0.5952471000000514,1.7135098000003381,1.7969315000000279,,,,,,anne_1,001,2020_Feb_10_1221,posner,3.1.5,59.98703080399065,
0.5,180,1,right,2,4,1,0,1,0,2,5,21,6,,,,,,,,,339.03185489999987,339.5318499,340.2494686,None,339.5486371000002,340.23295370000005,340.74999530000014,None,right,1,0.30633859999989,340.74999530000014,None,None,339.5486371000002,340.7334657000001,0.5117135000000417,0.5951633999998194,1.71330799999987,1.7968335999998999,,,,,,anne_1,001,2020_Feb_10_1221,posner,3.1.5,59.98703080399065,
0.5,180,1,right,2,4,1,0,1,0,2,6,22,5,,,,,,,,,341.0847703999998,341.58452810000017,342.3025226,None,341.60140679999995,342.2855338999998,342.8030875999998,None,right,1,0.32516290000012305,342.8030875999998,None,None,341.60140679999995,342.78635499999973,0.5115084999997634,0.5951209999998355,1.7133233999998083,1.796759700000166,,,,,,anne_1,001,2020_Feb_10_1221,posner,3.1.5,59.98703080399065,
-0.5,0,1,left,1,3,1,0,1,0,2,7,23,2,,,,,,,,,343.1537979,343.6540221999999,344.3719492,None,343.6709562000001,344.35515320000013,344.8724492000001,None,left,1,0.4239879000001565,344.8724492000001,None,None,343.6709562000001,344.8558158999999,0.5120267000002059,0.5955631000001631,1.7137990000001082,1.7973998000002211,,,,,,anne_1,001,2020_Feb_10_1221,posner,3.1.5,59.98703080399065,
0.5,180,1,right,2,4,1,0,1,0,3,0,24,7,,,,,,,,,345.3237567000001,345.82371699999976,346.5414731999999,None,345.8405195999999,346.52460440000004,347.0421621999999,None,right,1,0.3180485000002591,347.0421621999999,None,None,345.8405195999999,347.02545740000005,0.511584099999709,0.5951548999996703,1.7133091000000604,1.7968415999998797,,,,,,anne_1,001,2020_Feb_10_1221,posner,3.1.5,59.98703080399065,
0.5,180,1,right,2,4,1,0,1,0,3,1,25,5,,,,,,,,,347.3758585999999,347.87665100000004,348.59421489999977,None,347.8933152999998,348.57773700000007,349.09485989999985,None,right,1,0.34528669999963313,349.09485989999985,None,None,347.8933152999998,349.0781621000001,0.5117897999998604,0.5952617999996619,1.7132739999997284,1.797096899999815,,,,,,anne_1,001,2020_Feb_10_1221,posner,3.1.5,59.98703080399065,
0.5,0,0,right,1,4,1,0,1,0,3,2,26,3,,,,,,,,,349.4630456,349.9630456,350.6805174000001,None,349.9795417,350.6636819999999,351.1812581999998,None,right,1,0.3390132999998059,351.1812581999998,None,None,349.9795417,351.1645125,0.5117124999997031,0.5949169000000438,1.713167599999906,1.796636099999887,,,,,,anne_1,001,2020_Feb_10_1221,posner,3.1.5,59.98703080399065,
0.5,180,1,right,2,4,1,0,1,0,3,3,27,6,,,,,,,,,351.5492441000001,352.0490215,352.7668942,None,352.0656518999999,352.7501207999999,353.26739450000014,None,right,1,0.3328010999998696,353.26739450000014,None,None,352.0656518999999,353.25074889999996,0.5113701999998739,0.5948903999997128,1.7130803999998534,1.7963878000000477,,,,,,anne_1,001,2020_Feb_10_1221,posner,3.1.5,59.98703080399065,
-0.5,0,1,left,1,3,1,0,1,0,3,4,28,0,,,,,,,,,353.6186382000001,354.11850719999984,354.8360125999998,None,354.1352218000002,354.81953859999976,355.3369941000001,None,left,1,0.3832891000001837,355.3369941000001,None,None,354.1352218000002,355.32009530000005,0.5113729999998213,0.594955999999911,1.7129436999998688,1.7963159999999334,,,,,,anne_1,001,2020_Feb_10_1221,posner,3.1.5,59.98703080399065,
-0.5,0,1,left,1,3,1,0,1,0,3,5,29,1,,,,,,,,,355.73878680000007,356.2383580999999,356.95583309999984,None,356.2547276,356.9392638999998,357.4564765,None,left,1,0.32765100000005987,357.4564765,None,None,356.2547276,357.4398652,0.5114868999999089,0.5946739999999409,1.7129817000000003,1.7964587000001302,,,,,,anne_1,001,2020_Feb_10_1221,posner,3.1.5,59.98703080399065,
-0.5,0,1,left,1,3,1,0,1,0,3,6,30,2,,,,,,,,,357.80823550000014,358.30763019999995,359.02535439999974,None,358.32416139999987,359.0088903999999,359.5259559000001,None,left,1,0.29819709999992483,359.5259559000001,None,None,358.32416139999987,359.5093407999998,0.51115690000006,0.5948394000001826,1.712843199999952,1.7963402000000315,,,,,,anne_1,001,2020_Feb_10_1221,posner,3.1.5,59.98703080399065,
-0.5,180,0,left,2,3,1,0,1,0,3,7,31,4,,,,,,,,,359.84350730000006,360.3437064,361.06147280000005,None,360.3605674999999,361.0445893000001,361.5620085999999,362.04613979999976,left,1,0.47823809999999867,361.5620085999999,None,None,360.3605674999999,361.5453612000001,0.5118957999998202,0.5952098999996451,1.7135294999998223,1.797088299999814,,,,,,anne_1,001,2020_Feb_10_1221,posner,3.1.5,59.98703080399065,
0.5,180,1,right,2,4,1,0,1,0,4,0,32,7,,,,,,,,,362.0636196999999,362.56333619999987,363.28125569999975,None,362.5801716000001,363.26441750000004,363.78175120000014,None,right,1,0.35446700000011333,363.78175120000014,None,None,362.5801716000001,363.7651860000001,0.5113847000002352,0.5951465000002827,1.7132150000002184,1.7969265000001542,,,,,,anne_1,001,2020_Feb_10_1221,posner,3.1.5,59.98703080399065,
0.5,180,1,right,2,4,1,0,1,0,4,1,33,6,,,,,,,,,364.1659940999998,364.6664614000001,365.38395869999977,None,364.68307419999974,365.3675997999999,365.8846616999999,None,right,1,0.33960179999985485,365.8846616999999,None,None,364.68307419999974,365.8679397000001,0.5116845999996258,0.5950843999999051,1.7131669999998849,1.7969797999999173,,,,,,anne_1,001,2020_Feb_10_1221,posner,3.1.5,59.98703080399065,
-0.5,180,0,left,2,3,1,0,1,0,4,2,34,4,,,,,,,,,366.25253010000006,366.75262889999976,367.47035019999976,None,366.76922379999996,367.45350389999976,367.9710676999998,None,left,1,0.3650283000001764,367.9710676999998,None,None,366.76922379999996,367.9541413000002,0.5117643999997199,0.5952082999997401,1.7132659999997486,1.7968541000000187,,,,,,anne_1,001,2020_Feb_10_1221,posner,3.1.5,59.98703080399065,
0.5,0,0,right,1,4,1,0,1,0,4,3,35,3,,,,,,,,,368.35528079999995,368.8554187,369.5732251999998,None,368.87226869999995,369.55655339999976,370.07368339999994,None,right,1,0.3183552000000418,370.07368339999994,None,None,368.87226869999995,370.0572545,0.5119094000001496,0.5954713000000993,1.7137212000002364,1.7970596000000114,,,,,,anne_1,001,2020_Feb_10_1221,posner,3.1.5,59.98703080399065,
0.5,180,1,right,2,4,1,0,1,0,4,4,36,5,,,,,,,,,370.40844519999973,370.9083531000001,371.62594949999993,None,370.9248898999999,371.6092711000001,372.1266627,None,right,1,0.30550110000012864,372.1266627,None,None,370.9248898999999,372.10998089999975,0.5114481000000524,0.5948485000003529,1.7130624999999782,1.7967156000004252,,,,,,anne_1,001,2020_Feb_10_1221,posner,3.1.5,59.98703080399065,
-0.5,0,1,left,1,3,1,0,1,0,4,5,37,0,,,,,,,,,372.46131090000017,372.9612169000002,373.6786677,None,372.9776529999999,373.6623786,374.17958309999995,None,left,1,0.38055789999998524,374.17958309999995,None,None,372.9776529999999,374.16281819999995,0.5114521000000423,0.5948489000002155,1.7130299999998897,1.7964913999999226,,,,,,anne_1,001,2020_Feb_10_1221,posner,3.1.5,59.98703080399065,
-0.5,0,1,left,1,3,1,0,1,0,4,6,38,1,,,,,,,,,374.58074869999973,375.08081489999995,375.79833069999995,None,375.0973346999999,375.7817639,376.2991858999999,None,left,1,0.33293970000022455,376.2991858999999,None,None,375.0973346999999,376.28252870000006,0.5115410999997039,0.5947461999999177,1.71324149999964,1.7963781999997082,,,,,,anne_1,001,2020_Feb_10_1221,posner,3.1.5,59.98703080399065,
-0.5,0,1,left,1,3,1,0,1,0,4,7,39,2,,,,,,,,,376.6505295000002,377.1503327999999,377.8680036999999,None,377.16698859999997,377.8513385000001,378.3687968999998,None,left,1,0.3512835999999879,378.3687968999998,None,None,377.16698859999997,378.35195239999985,0.511576000000332,0.5948746000003666,1.7131849000002148,1.7963886000002276,,,,,,anne_1,001,2020_Feb_10_1221,posner,3.1.5,59.98703080399065,
-0.5,0,1,left,1,3,1,0,1,0,5,0,40,1,,,,,,,,,378.73637389999976,379.23630939999975,379.95381399999997,None,379.2530321999998,379.9376593000002,380.4547118999999,None,left,1,0.3133060000000114,380.4547118999999,None,None,379.2530321999998,380.43821160000016,0.5115915999999743,0.5952612999999474,1.713468699999794,1.7970040000000154,,,,,,anne_1,001,2020_Feb_10_1221,posner,3.1.5,59.98703080399065,
0.5,0,0,right,1,4,1,0,1,0,5,1,41,3,,,,,,,,,380.7894099,381.28954209999984,382.00681940000004,None,381.30598659999987,381.99031809999997,382.5078948999999,None,right,1,0.34811100000024453,382.5078948999999,None,None,381.30598659999987,382.49095279999983,0.5117986000000201,0.5949288000001616,1.7131930000000466,1.7965143999999782,,,,,,anne_1,001,2020_Feb_10_1221,posner,3.1.5,59.98703080399065,
-0.5,0,1,left,1,3,1,0,1,0,5,2,42,0,,,,,,,,,382.8754783999998,383.37530590000006,384.0931522000001,None,383.39228790000016,384.0766447000001,384.593746,None,left,1,0.446284900000137,384.593746,None,None,383.39228790000016,384.5772035,0.5114914000000681,0.5950178000002779,1.713361900000109,1.7968132000000878,,,,,,anne_1,001,2020_Feb_10_1221,posner,3.1.5,59.98703080399065,
0.5,180,1,right,2,4,1,0,1,0,5,3,43,5,,,,,,,,,385.0619674999998,385.5619225999999,386.27968759999976,None,385.57863739999993,386.26263199999994,386.7800636000002,None,right,1,0.37213340000016615,386.7800636000002,None,None,385.57863739999993,386.76349040000014,0.5117802999998275,0.5955706999998256,1.7133346000000529,1.7968166000000565,,,,,,anne_1,001,2020_Feb_10_1221,posner,3.1.5,59.98703080399065,
0.5,180,1,right,2,4,1,0,1,0,5,4,44,6,,,,,,,,,387.1813539999998,387.6815062999999,388.3991256999998,None,387.6983288000001,388.38230139999996,388.89996599999995,None,right,1,0.32405930000004446,388.89996599999995,None,None,387.6983288000001,388.88303689999975,0.5118109000000004,0.5949313999999504,1.7133255999997345,1.7967799999996714,,,,,,anne_1,001,2020_Feb_10_1221,posner,3.1.5,59.98703080399065,
-0.5,180,0,left,2,3,1,0,1,0,5,5,45,4,,,,,,,,,389.25065859999995,389.7509881000001,390.46848950000003,None,389.7677094999999,390.4518011,390.9691063,None,left,1,0.3670795999996699,390.9691063,None,None,389.7677094999999,390.9524455999999,0.5118600999999217,0.5951315000002069,1.7133058999997957,1.7967306000000463,,,,,,anne_1,001,2020_Feb_10_1221,posner,3.1.5,59.98703080399065,
-0.5,0,1,left,1,3,1,0,1,0,5,6,46,2,,,,,,,,,391.3540223,391.85370090000015,392.5717688,None,391.87056859999984,392.55476610000005,393.07231779999984,None,left,1,0.3436529000000519,393.07231779999984,None,None,391.87056859999984,393.0553617999999,0.5112758000000213,0.5947792000001755,1.7129196000000775,1.7965198000001692,,,,,,anne_1,001,2020_Feb_10_1221,posner,3.1.5,59.98703080399065,
0.5,180,1,right,2,4,1,0,1,0,5,7,47,7,,,,,,,,,393.43997409999974,393.94014190000007,394.6576460000001,None,393.95659339999975,394.64109559999997,395.1582162999998,None,right,1,0.2978077000002486,395.1582162999998,None,None,393.95659339999975,395.14179060000015,0.5118599000002177,0.5949974999998631,1.7134895999997752,1.7967106999999487,,,,,,anne_1,001,2020_Feb_10_1221,posner,3.1.5,59.98703080399065,
-0.5,180,0,left,2,3,1,0,1,0,6,0,48,4,,,,,,,,,395.4764790999998,395.9761813,396.69377239999994,None,395.9929661000001,396.6771149000001,397.1945056999998,None,left,1,0.3176739999998972,397.1945056999998,None,None,395.9929661000001,397.17787850000013,0.5119623999999021,0.5951746999999159,1.7133767000000262,1.7966812999998183,,,,,,anne_1,001,2020_Feb_10_1221,posner,3.1.5,59.98703080399065,
-0.5,0,1,left,1,3,1,0,1,0,6,1,49,2,,,,,,,,,397.5293044,398.02889920000007,398.74658390000013,None,398.0456315000001,398.72992999999997,399.2472079999998,None,left,1,0.2648033000000396,399.2472079999998,None,None,398.0456315000001,399.23086090000015,0.5111140999997588,0.5945553999999902,1.7130541999999878,1.7961233999999422,,,,,,anne_1,001,2020_Feb_10_1221,posner,3.1.5,59.98703080399065,
0.5,180,1,right,2,4,1,0,1,0,6,2,50,7,,,,,,,,,399.53202680000004,400.03178260000004,400.7496931999999,None,400.04841290000013,400.73267069999974,401.25011110000014,None,right,1,0.2858691999999792,401.25011110000014,None,None,400.04841290000013,401.2333607999999,0.5115484000002652,0.5949687000002086,1.7131165000000692,1.7966968999999153,,,,,,anne_1,001,2020_Feb_10_1221,posner,3.1.5,59.98703080399065,
0.5,0,0,right,1,4,1,0,1,0,6,3,51,3,,,,,,,,,401.5676518,402.06787080000004,402.7854609000001,None,402.0846161999998,402.7689145999998,403.28606880000007,None,right,1,0.29811460000018997,403.28606880000007,None,None,402.0846161999998,403.2694999,0.511577600000237,0.5949961999999687,1.713195700000142,1.7966541000000689,,,,,,anne_1,001,2020_Feb_10_1221,posner,3.1.5,59.98703080399065,
0.5,180,1,right,2,4,1,0,1,0,6,4,52,6,,,,,,,,,403.60326159999977,404.10384320000003,404.82165699999996,None,404.12074029999985,404.8049268,405.32249,None,right,1,0.34149210000032326,405.32249,None,None,404.12074029999985,405.3059057999999,0.5112457999998696,0.5948812999999973,1.7132910000000265,1.7964630000001307,,,,,,anne_1,001,2020_Feb_10_1221,posner,3.1.5,59.98703080399065,
0.5,180,1,right,2,4,1,0,1,0,6,5,53,5,,,,,,,,,405.6904052,406.19035669999994,406.9079864,None,406.2069007,406.8912558000002,407.4087024999999,None,right,1,0.31929100000024846,407.4087024999999,None,None,406.2069007,407.39177900000004,0.5118078999998943,0.5950005999998211,1.7132191000000603,1.7966351000000031,,,,,,anne_1,001,2020_Feb_10_1221,posner,3.1.5,59.98703080399065,
-0.5,0,1,left,1,3,1,0,1,0,6,6,54,0,,,,,,,,,407.75967230000015,408.2596183999999,408.97732540000015,None,408.27626109999983,408.9606355000001,409.47812620000013,None,left,1,0.3458292000000256,409.47812620000013,None,None,408.27626109999983,409.46146839999983,0.5114392000000407,0.5947080000000824,1.7132654000001821,1.7965269000001172,,,,,,anne_1,001,2020_Feb_10_1221,posner,3.1.5,59.98703080399065,
-0.5,0,1,left,1,3,1,0,1,0,6,7,55,1,,,,,,,,,409.8459637000001,410.3459266,411.0632756,None,410.36245229999986,411.0468737000001,411.5641866000001,None,left,1,0.323827700000038,411.5641866000001,None,None,410.36245229999986,411.547642,0.5116784000001644,0.5953905000001214,1.7133717000001525,1.7968722000000525,,,,,,anne_1,001,2020_Feb_10_1221,posner,3.1.5,59.98703080399065,
-0.5,0,1,left,1,3,1,0,1,0,7,0,56,1,,,,,,,,,411.91571780000004,412.41524100000015,413.1331461999998,None,412.4321540000001,413.11639490000016,413.6336415999999,None,left,1,0.25427270000000135,413.6336415999999,None,None,412.4321540000001,413.6169433,0.5113225000000057,0.5949325999999928,1.7130011999997805,1.7965509999999085,,,,,,anne_1,001,2020_Feb_10_1221,posner,3.1.5,59.98703080399065,
-0.5,0,1,left,1,3,1,0,1,0,7,1,57,0,,,,,,,,,413.9182332999999,414.4182827999998,415.1358316000001,None,414.43483259999994,415.11898740000015,415.6365262999998,None,left,1,0.32350210000004154,415.6365262999998,None,None,414.43483259999994,415.6196995999999,0.5116648000002897,0.5948751000000811,1.713071200000286,1.7964371000002757,,,,,,anne_1,001,2020_Feb_10_1221,posner,3.1.5,59.98703080399065,
0.5,0,0,right,1,4,1,0,1,0,7,2,58,3,,,,,,,,,415.9879457000002,416.48775369999976,417.20516240000006,None,416.50427009999976,417.1887769,417.70583829999987,None,right,1,0.3742909000002328,417.70583829999987,None,None,416.50427009999976,417.6892901000001,0.5116823999996996,0.5950410999998894,1.713195799999994,1.7965509999999085,,,,,,anne_1,001,2020_Feb_10_1221,posner,3.1.5,59.98703080399065,
0.5,180,1,right,2,4,1,0,1,0,7,3,59,6,,,,,,,,,418.1066866000001,418.60715119999986,419.32487649999985,None,418.6239728999999,419.3084518999999,419.82547109999996,None,right,1,0.46267840000018623,419.82547109999996,None,None,418.6239728999999,419.80883349999976,0.5115805999998884,0.5952056999999513,1.7132378000001154,1.796871099999862,,,,,,anne_1,001,2020_Feb_10_1221,posner,3.1.5,59.98703080399065,
0.5,180,1,right,2,4,1,0,1,0,7,4,60,5,,,,,,,,,420.3107341,420.8102651999998,421.5282320000001,None,420.8269108999998,421.5112847999999,422.0287871999999,420.3107341,right,1,0.30726030000005267,422.0287871999999,None,None,420.8269108999998,422.0119616000002,0.5112887000000228,0.594772599999942,1.7129711000002317,1.7964691000001949,,,,,,anne_1,001,2020_Feb_10_1221,posner,3.1.5,59.98703080399065,
-0.5,180,0,left,2,3,1,0,1,0,7,5,61,4,,,,,,,,,422.3631882999998,422.8631043999999,423.58083829999987,None,422.8799611999998,423.5640365999998,424.0814415,None,left,1,0.3744474000000082,424.0814415,None,None,422.8799611999998,424.0648193000002,0.5115829000001213,0.5951726999996936,1.7132908999997198,1.796822499999962,,,,,,anne_1,001,2020_Feb_10_1221,posner,3.1.5,59.98703080399065,
-0.5,0,1,left,1,3,1,0,1,0,7,6,62,2,,,,,,,,,424.48282329999984,424.98255470000004,425.7004658999999,None,424.9993405,425.6836325999998,426.20115989999977,None,left,1,0.4387516999995569,426.20115989999977,None,None,424.9993405,426.1842409000001,0.5115427000000636,0.5950019000001703,1.7132454000002326,1.7969465000001037,,,,,,anne_1,001,2020_Feb_10_1221,posner,3.1.5,59.98703080399065,
0.5,180,1,right,2,4,1,0,1,0,7,7,63,7,,,,,,,,,426.6691016,427.16889979999996,427.8868398999998,None,427.18567380000013,427.86990509999987,428.38729699999976,428.8715336,right,1,0.5486038000003646,428.38729699999976,None,None,427.18567380000013,428.3709506,0.5115012000001116,0.5950935000000754,1.7135293000001184,1.7965955000004215,,,,,,anne_1,001,2020_Feb_10_1221,posner,3.1.5,59.98703080399065,
0.5,180,1,right,2,4,1,0,1,0,8,0,64,7,,,,,,,,,428.9561700999998,429.4554056000002,430.17311870000003,None,429.4721328999999,430.1565458,430.67368869999973,None,right,1,0.3262045000001308,430.67368869999973,None,None,429.4721328999999,430.65708589999986,0.5112977000003411,0.5948652000001857,1.7129408000000694,1.796469700000216,,,,,,anne_1,001,2020_Feb_10_1221,posner,3.1.5,59.98703080399065,
-0.5,0,1,left,1,3,1,0,1,0,8,1,65,0,,,,,,,,,431.02535320000015,431.5250824,432.2427794,None,431.54182809999975,432.22596029999977,432.74338439999974,None,left,1,0.26451600000018516,432.74338439999974,None,None,431.54182809999975,432.72681920000014,0.5116726999999628,0.5951239999999416,1.7133920999999646,1.7967570000000705,,,,,,anne_1,001,2020_Feb_10_1221,posner,3.1.5,59.98703080399065,
0.5,180,1,right,2,4,1,0,1,0,8,2,66,5,,,,,,,,,433.0281239000001,433.52759620000006,434.24530019999975,None,433.5444306999998,434.2287505999998,434.74631150000005,None,right,1,0.26168920000009166,434.74631150000005,None,None,433.5444306999998,434.72926559999996,0.5112451999998484,0.5949305999997705,1.7128962000001593,1.796386800000164,,,,,,anne_1,001,2020_Feb_10_1221,posner,3.1.5,59.98703080399065,
-0.5,180,0,left,2,3,1,0,1,0,8,3,67,4,,,,,,,,,435.0306234999998,435.5306572999998,436.24827019999975,None,435.54743670000016,436.23149680000006,436.7489765,None,left,1,0.354824699999881,436.7489765,None,None,435.54743670000016,436.7321797999998,0.5116655000001629,0.5949165000001813,1.7131675000000541,1.7965324000001601,,,,,,anne_1,001,2020_Feb_10_1221,posner,3.1.5,59.98703080399065,
0.5,180,1,right,2,4,1,0,1,0,8,4,68,6,,,,,,,,,437.1332180999998,437.63320410000006,438.3511365999998,None,437.6499881,438.33446030000005,438.8518371,None,right,1,0.28394969999999375,438.8518371,None,None,437.6499881,438.8349595999998,0.5115891999998894,0.5951737999998841,1.713327500000105,1.7970289999998386,,,,,,anne_1,001,2020_Feb_10_1221,posner,3.1.5,59.98703080399065,
-0.5,0,1,left,1,3,1,0,1,0,8,5,69,2,,,,,,,,,439.1527264000001,439.6527694000001,440.37064499999997,None,439.6694674999999,440.3537104000002,440.8711222000002,None,left,1,0.33667800000011994,440.8711222000002,None,None,439.6694674999999,440.85444830000006,0.5117027999999664,0.5950004999999692,1.7133632999998554,1.7969783999997162,,,,,,anne_1,001,2020_Feb_10_1221,posner,3.1.5,59.98703080399065,
-0.5,0,1,left,1,3,1,0,1,0,8,6,70,1,,,,,,,,,441.2392,441.73899630000005,442.4568377999999,None,441.7560563000002,442.4399500999998,442.95754350000016,None,left,1,0.34610109999994165,442.95754350000016,None,None,441.7560563000002,442.94088680000004,0.5115249000000404,0.5950929000000542,1.713393399999859,1.7965555000000677,,,,,,anne_1,001,2020_Feb_10_1221,posner,3.1.5,59.98703080399065,
0.5,0,0,right,1,4,1,0,1,0,8,7,71,3,,,,,,,,,443.3250094,443.82511620000014,444.5428836000001,None,443.8421337,444.5260509999998,445.0436031999998,None,right,1,0.31631460000016887,445.0436031999998,None,None,443.8421337,445.02703440000005,0.51165280000032,0.5951889000002666,1.7135496000000785,1.7970131000001857,,,,,,anne_1,001,2020_Feb_10_1221,posner,3.1.5,59.98703080399065,
0.5,180,1,right,2,4,1,0,1,0,9,0,72,6,,,,,,,,,445.3777556,445.8779598000001,446.5958704999998,None,445.89461859999983,446.5790879000001,447.0965019,None,right,1,0.3994133999999576,447.0965019,None,None,445.89461859999983,447.0798602,0.5113213999998152,0.5950989999996636,1.7132010999998784,1.7965724000000591,,,,,,anne_1,001,2020_Feb_10_1221,posner,3.1.5,59.98703080399065,
-0.5,0,1,left,1,3,1,0,1,0,9,1,73,2,,,,,,,,,447.5138594,448.01428099999976,448.7321213,None,448.03111260000014,448.7152581,449.23270390000016,None,left,1,0.3031140999996751,449.23270390000016,None,None,448.03111260000014,449.2162134,0.5113178999999946,0.5948649000001751,1.7132301999999981,1.7964271000000736,,,,,,anne_1,001,2020_Feb_10_1221,posner,3.1.5,59.98703080399065,
-0.5,180,0,left,2,3,1,0,1,0,9,2,74,4,,,,,,,,,449.566605,450.0671539,450.78488830000015,None,450.0839089000001,450.7682577999999,451.2855260000001,None,left,1,0.3782473999999638,451.2855260000001,None,None,450.0839089000001,451.2688073999998,0.512173999999959,0.5957983000002969,1.7138047000003098,1.7972792000000481,,,,,,anne_1,001,2020_Feb_10_1221,posner,3.1.5,59.98703080399065,
-0.5,0,1,left,1,3,1,0,1,0,9,3,75,0,,,,,,,,,451.6868682999998,452.18672890000016,452.90441180000016,None,452.2032611999998,452.88780429999997,453.40513090000013,None,left,1,0.370585900000151,453.40513090000013,None,None,452.2032611999998,453.38879169999973,0.5117016999997759,0.5952041000000463,1.7137416000000485,1.7967955999997685,,,,,,anne_1,001,2020_Feb_10_1221,posner,3.1.5,59.98703080399065,
0.5,0,0,right,1,4,1,0,1,0,9,4,76,3,,,,,,,,,453.8056047,454.3064389000001,455.0241041999998,None,454.3228739000001,455.0075630000001,455.52463839999973,None,right,1,0.33914069999991625,455.52463839999973,None,None,454.3228739000001,455.5081746000001,0.5118408999996973,0.5954553999999916,1.7135553999996773,1.7970218999998906,,,,,,anne_1,001,2020_Feb_10_1221,posner,3.1.5,59.98703080399065,
-0.5,0,1,left,1,3,1,0,1,0,9,5,77,1,,,,,,,,,455.8925868000001,456.3925359,457.11012059999985,None,456.40925500000003,457.09341059999997,457.611046,None,left,1,0.35677430000032473,457.611046,None,None,456.40925500000003,457.5940212999999,0.5117620999999417,0.5954532000000654,1.7132356000001892,1.7970091000001958,,,,,,anne_1,001,2020_Feb_10_1221,posner,3.1.5,59.98703080399065,
0.5,180,1,right,2,4,1,0,1,0,9,6,78,7,,,,,,,,,457.99566159999995,458.49525200000016,459.2129636999998,None,458.5121663,459.1966047000001,459.7136965999998,None,right,1,0.31806879999976445,459.7136965999998,None,None,458.5121663,459.69700139999986,0.5113604000002852,0.5950576999998702,1.7130888000001505,1.7966347999999925,,,,,,anne_1,001,2020_Feb_10_1221,posner,3.1.5,59.98703080399065,
0.5,180,1,right,2,4,1,0,1,0,9,7,79,5,,,,,,,,,460.0483909999998,460.54831250000007,461.26589779999995,None,460.56476029999976,461.24932709999985,461.7665846,None,right,1,0.35312740000017584,461.7665846,None,None,460.56476029999976,461.74997410000014,0.5114751999999498,0.5949703000001136,1.7131145000003016,1.7965567000001101,,,,,,anne_1,001,2020_Feb_10_1221,posner,3.1.5,59.98703080399065,
0.5,0,0,right,1,4,1,0,1,0,10,0,80,3,,,,,,,,,462.15040850000014,462.6512195,463.3690249000001,None,462.66790779999974,463.35224500000004,463.8695220999998,None,right,1,0.37819020000006276,463.8695220999998,None,None,462.66790779999974,463.8528379999998,0.5127526999999645,0.5960460000001149,1.7143580000001748,1.79825720000008,,,,,,anne_1,001,2020_Feb_10_1221,posner,3.1.5,59.98703080399065,
-0.5,0,1,left,1,3,1,0,1,0,10,1,81,2,,,,,,,,,464.27076910000005,464.7706870000002,465.4885564000001,None,464.78755950000004,465.4716371999998,465.98925099999997,None,left,1,0.3865185999998175,465.98925099999997,None,None,464.78755950000004,465.9723823999998,0.511720299999979,0.5949429000002056,1.7134016999998494,1.7969028000002254,,,,,,anne_1,001,2020_Feb_10_1221,posner,3.1.5,59.98703080399065,
0.5,180,1,right,2,4,1,0,1,0,10,2,82,7,,,,,,,,,466.40710750000017,466.9069786,467.6246046000001,None,466.92368039999974,467.6080966999998,468.1253707999999,None,right,1,0.29050450000022465,468.1253707999999,None,None,466.92368039999974,468.10854949999975,0.5114274000002297,0.5949221000000762,1.7129704000003585,1.7966199000002234,,,,,,anne_1,001,2020_Feb_10_1221,posner,3.1.5,59.98703080399065,
-0.5,180,0,left,2,3,1,0,1,0,10,3,83,4,,,,,,,,,468.44321709999986,468.9432409000001,469.66093779999983,None,468.95989169999984,469.6440056000001,470.1615489999999,None,left,1,0.34204810000028374,470.1615489999999,None,None,468.95989169999984,470.1447856,0.511833999999908,0.5953878000000259,1.7133218999997553,1.7967499000001226,,,,,,anne_1,001,2020_Feb_10_1221,posner,3.1.5,59.98703080399065,
0.5,180,1,right,2,4,1,0,1,0,10,4,84,5,,,,,,,,,470.5294718,471.0293993999999,471.74706160000005,None,471.046073,471.7305176,472.24793150000005,None,right,1,0.4158804999997301,472.24793150000005,None,None,471.046073,472.23113779999994,0.5115851000000475,0.5948919999996178,1.7133002999999007,1.7965298999997685,,,,,,anne_1,001,2020_Feb_10_1221,posner,3.1.5,59.98703080399065,
0.5,180,1,right,2,4,1,0,1,0,10,5,85,6,,,,,,,,,472.68243489999986,473.1823009999998,473.8999367000001,None,473.19901149999987,473.88312369999994,474.4008945999999,None,right,1,0.4069133000002694,474.4008945999999,None,None,473.19901149999987,474.3839334999998,0.5115317999998297,0.5948496000000887,1.7131530000001476,1.7967972999999802,,,,,,anne_1,001,2020_Feb_10_1221,posner,3.1.5,59.98703080399065,
-0.5,0,1,left,1,3,1,0,1,0,10,6,86,0,,,,,,,,,474.8353812999999,475.33508200000006,476.05289330000005,None,475.3521283,476.0363060999998,476.5536628,None,left,1,0.35013619999972434,476.5536628,None,None,475.3521283,476.5371242000001,0.5113713000000644,0.594966800000293,1.7133908999999221,1.7968897000000652,,,,,,anne_1,001,2020_Feb_10_1221,posner,3.1.5,59.98703080399065,
-0.5,0,1,left,1,3,1,0,1,0,10,7,87,1,,,,,,,,,476.9216545999998,477.42156479999994,478.1391600000002,None,477.4382824999998,478.1224705999998,478.6399287999998,None,left,1,0.335747099999935,478.6399287999998,None,None,477.4382824999998,478.62284409999984,0.5117182999997567,0.5950589999997646,1.7129878999999164,1.7968212999999196,,,,,,anne_1,001,2020_Feb_10_1221,posner,3.1.5,59.98703080399065,
,,,,,,1,0,1,0,,,,,,,,,,,,,,,,,,,,,,,,,,,,,,,,,479.0073788999998,None,1.1900000117748277e-05,0.9956004000000576,,anne_1,001,2020_Feb_10_1221,posner,3.1.5,59.98703080399065,
-0.5,0,1,left,1,3,2,0,2,0,0,0,0,2,1.13999999484804e-05,0.09784730000001218,540.0243434999998,None,1.0600000223348616e-05,0.09764570000015738,542.1272803000002,None,542.7795418000001,543.2787970999998,543.9964709000001,None,543.29531,543.9797933,544.4970093000002,None,left,1,0.3505208000001403,544.4970093000002,None,None,543.29531,544.4805794999997,0.5083044000002701,0.5916139999999359,1.7100713999998334,1.7932175000000825,,,,,,anne_1,001,2020_Feb_10_1221,posner,3.1.5,59.98703080399065,
0.5,0,0,right,1,4,2,0,2,0,0,1,1,3,,,,,,,,,544.8653226000001,545.3649172999999,546.0824266,None,545.3816677,546.0658607999999,546.5832071999998,None,right,1,0.26432599999998274,546.5832071999998,None,None,545.3816677,546.5666820000001,0.5107170000001133,0.5941717999999128,1.7124579999999696,1.7958943999997246,,,,,,anne_1,001,2020_Feb_10_1221,posner,3.1.5,59.98703080399065,
0.5,180,1,right,2,4,2,0,2,0,0,2,2,5,,,,,,,,,546.8678519,547.3685016999998,548.0851495000002,None,547.3843090999999,548.0686722,548.586151,None,right,1,0.4531535000000986,548.586151,None,None,547.3843090999999,548.5691395999997,0.5121174000000792,0.594775799999752,1.712743699999919,1.7962603999999374,,,,,,anne_1,001,2020_Feb_10_1221,posner,3.1.5,59.98703080399065,
0.5,180,1,right,2,4,2,0,2,0,0,3,3,7,,,,,,,,,549.0701055,549.5707007000001,550.2884951999999,None,549.5872802999997,550.2717248999998,550.7891583,549.0701055,right,1,0.31417529999998806,550.7891583,None,None,549.5872802999997,550.7722488999998,0.5124203999998826,0.5958551999997326,1.7139471999998932,1.797527799999898,,,,,,anne_1,001,2020_Feb_10_1221,posner,3.1.5,59.98703080399065,
-0.5,180,0,left,2,3,2,0,2,0,0,4,4,4,,,,,,,,,551.1235606,551.6234943,552.3411566999998,None,551.6409386,552.3245572000001,552.8419955999998,None,left,1,0.41335350000008475,552.8419955999998,None,None,551.6409386,552.8251252999999,0.5115384000000631,0.5951073000001088,1.7131693000001178,1.796660100000281,,,,,,anne_1,001,2020_Feb_10_1221,posner,3.1.5,59.98703080399065,
-0.5,0,1,left,1,3,2,0,2,0,0,5,5,0,,,,,,,,,553.2765715999999,553.7765235000002,554.4940883999998,None,553.7931085999999,554.4777036,554.9949099,None,left,1,0.38050680000014836,554.9949099,None,None,553.7931085999999,554.9781532000002,0.5113894999999502,0.5949083000000428,1.7129954000001817,1.7964603999998872,,,,,,anne_1,001,2020_Feb_10_1221,posner,3.1.5,59.98703080399065,
0.5,180,1,right,2,4,2,0,2,0,0,6,6,6,,,,,,,,,555.3952761,555.8966918000001,556.6137018,None,555.9127451999998,556.597127,557.1144036000001,None,right,1,0.20531139999957304,557.1144036000001,None,None,555.9127451999998,557.0977723999999,0.5124104000001353,0.5953991000001224,1.7134814999999435,1.7968474999997852,,,,,,anne_1,001,2020_Feb_10_1221,posner,3.1.5,59.98703080399065,
-0.5,0,1,left,1,3,2,0,2,0,0,7,7,1,,,,,,,,,557.3482221999998,557.8490299999999,558.5664314999999,None,557.8654431999998,558.5498809000001,559.0673299999999,None,left,1,0.3001734999998007,559.0673299999999,None,None,557.8654431999998,559.0506375999998,0.5118413000000146,0.595035999999709,1.7134336999997686,1.796803799999907,,,,,,anne_1,001,2020_Feb_10_1221,posner,3.1.5,59.98703080399065,
-0.5,0,1,left,1,3,2,0,2,0,1,0,8,2,,,,,,,,,559.3840900999999,559.8847471999998,560.6025685,None,559.9019370000001,560.5859568999999,561.1031352999998,None,left,1,0.33620139999993626,561.1031352999998,None,None,559.9019370000001,561.0868031,0.5117522000000463,0.5953809999996338,1.713789899999938,1.7973173000000315,,,,,,anne_1,001,2020_Feb_10_1221,posner,3.1.5,59.98703080399065,
0.5,0,0,right,1,4,2,0,2,0,1,1,9,3,,,,,,,,,561.4708421999999,561.9711023999998,562.6888543999999,None,561.9880786999997,562.6718944999998,563.1897414,None,right,1,0.26585030000023835,563.1897414,None,None,561.9880786999997,563.1726604999999,0.5117898000003152,0.59517440000036,1.7133441000000857,1.7968465000003562,,,,,,anne_1,001,2020_Feb_10_1221,posner,3.1.5,59.98703080399065,
0.5,180,1,right,2,4,2,0,2,0,1,2,10,7,,,,,,,,,563.4743023999999,563.9737350999999,564.6914806999998,None,563.9904056,564.6747608000001,565.1922903,None,right,1,0.4232692999999017,565.1922903,None,None,563.9904056,565.1754965999999,0.5113237999999001,0.5946344999997564,1.7130930999996963,1.7965810000000602,,,,,,anne_1,001,2020_Feb_10_1221,posner,3.1.5,59.98703080399065,
0.5,180,1,right,2,4,2,0,2,0,1,3,11,5,,,,,,,,,565.6434454999999,566.1433416,566.8611228,None,566.1603421999998,566.8444737,567.3618041999998,None,right,1,0.4214116999996804,567.3618041999998,None,None,566.1603421999998,567.345061,0.5114484999999149,0.5950483000001441,1.7131475999999566,1.7966633000000911,,,,,,anne_1,001,2020_Feb_10_1221,posner,3.1.5,59.98703080399065,
0.5,180,1,right,2,4,2,0,2,0,1,4,12,6,,,,,,,,,567.8125561000002,568.3129940999997,569.0308781999997,None,568.3298266000002,569.0140612,569.5316367,None,right,1,0.3636980000001131,569.5316367,None,None,568.3298266000002,569.5148033999999,0.5117949000000408,0.5955876000002718,1.713585299999977,1.797109100000398,,,,,,anne_1,001,2020_Feb_10_1221,posner,3.1.5,59.98703080399065,
-0.5,0,1,left,1,3,2,0,2,0,1,5,13,0,,,,,,,,,569.9168728,570.4160594999998,571.1336668999998,None,570.4324996,571.1170400000001,571.6344061,None,left,1,0.2688876000001983,571.6344061,None,None,570.4324996,571.6177099000001,0.5113401999997222,0.5947661999998672,1.7129758999999467,1.7963242999999238,,,,,,anne_1,001,2020_Feb_10_1221,posner,3.1.5,59.98703080399065,
-0.5,0,1,left,1,3,2,0,2,0,1,6,14,1,,,,,,,,,571.9192104999997,572.4190840000001,573.1363963999997,None,572.4354122999998,573.1200330000001,573.6372330999998,None,left,1,0.37826419999964855,573.6372330999998,None,None,572.4354122999998,573.6207150999999,0.5114890999998352,0.5944747999997162,1.7131025999997291,1.7962422000000515,,,,,,anne_1,001,2020_Feb_10_1221,posner,3.1.5,59.98703080399065,
-0.5,180,0,left,2,3,2,0,2,0,1,7,15,4,,,,,,,,,574.0389486999998,574.5384119,575.2561040999999,None,574.5547940000001,575.2398147999997,575.7568772999998,None,left,1,0.434375700000146,575.7568772999998,None,None,574.5547940000001,575.7401180000002,0.5112366000003021,0.5944859999999608,1.7129281000002266,1.7964042000003246,,,,,,anne_1,001,2020_Feb_10_1221,posner,3.1.5,59.98703080399065,
0.5,180,1,right,2,4,2,0,2,0,2,0,16,5,,,,,,,,,576.2079051000001,576.7079714000001,577.4256473999999,None,576.7247778000001,577.4090498999999,577.9264349999999,None,right,1,0.3448614999997517,577.9264349999999,None,None,576.7247778000001,577.9097188999999,0.5115375000000313,0.5952895000000353,1.7132627999999386,1.7966729999998279,,,,,,anne_1,001,2020_Feb_10_1221,posner,3.1.5,59.98703080399065,
0.5,0,0,right,1,4,2,0,2,0,2,1,17,3,,,,,,,,,578.2943280999998,578.7941044999998,579.5118625,None,578.8108932,579.4950352000001,580.012585,None,right,1,0.3952558000000863,580.012585,None,None,578.8108932,579.9959162,0.5113264999999956,0.5950334999997722,1.7131199999998898,1.7965096999996604,,,,,,anne_1,001,2020_Feb_10_1221,posner,3.1.5,59.98703080399065,
0.5,180,1,right,2,4,2,0,2,0,2,2,18,7,,,,,,,,,580.4308256999998,580.9307233,581.6481552999999,None,580.9473044000001,581.6317423,582.1488487000001,None,right,1,0.3144854000001942,582.1488487000001,None,None,580.9473044000001,582.1321039,0.5115528000001177,0.5945833000000675,1.7129125999999815,1.7964563999998973,,,,,,anne_1,001,2020_Feb_10_1221,posner,3.1.5,59.98703080399065,
-0.5,180,0,left,2,3,2,0,2,0,2,3,19,4,,,,,,,,,582.4836178,582.9831961,583.7010016999998,None,583.0000983,583.6841282999999,584.2017643999998,None,left,1,0.4453318000000763,584.2017643999998,None,None,583.0000983,584.1847575000002,0.5111956000000646,0.594789000000219,1.7127381000000241,1.7963736000001518,,,,,,anne_1,001,2020_Feb_10_1221,posner,3.1.5,59.98703080399065,
0.5,180,1,right,2,4,2,0,2,0,2,4,20,6,,,,,,,,,584.6700433999999,585.1695491,585.8874525000001,None,585.1865110999997,585.8706517,586.3881264000001,None,right,1,0.37910669999973834,586.3881264000001,None,None,585.1865110999997,586.3714538999998,0.5111858999998731,0.5946232999999665,1.7130690999997569,1.796169799999916,,,,,,anne_1,001,2020_Feb_10_1221,posner,3.1.5,59.98703080399065,
-0.5,0,1,left,1,3,2,0,2,0,2,5,21,0,,,,,,,,,586.7893697999998,587.2894253999998,588.0069686000002,None,587.3060000999999,587.9904916,588.5077891999999,None,left,1,0.4115748000003805,588.5077891999999,None,None,587.3060000999999,588.4910986999998,0.5116653999998562,0.5948177000000214,1.7133233999998083,1.7965962999996918,,,,,,anne_1,001,2020_Feb_10_1221,posner,3.1.5,59.98703080399065,
-0.5,0,1,left,1,3,2,0,2,0,2,6,22,1,,,,,,,,,588.9423886999998,589.4423194999999,590.1598728999998,None,589.4590014999999,590.1431702999998,590.6607605999998,None,left,1,0.3704350000002705,590.6607605999998,None,None,589.4590014999999,590.6437660000001,0.5116335000002437,0.5950164999999288,1.7130674,1.796796699999959,,,,,,anne_1,001,2020_Feb_10_1221,posner,3.1.5,59.98703080399065,
-0.5,0,1,left,1,3,2,0,2,0,2,7,23,2,,,,,,,,,591.0614673999999,591.5617166000002,592.2795486,None,591.5785233000001,592.2626188999998,592.7803475999999,None,left,1,0.4588690000000497,592.7803475999999,None,None,591.5785233000001,592.7635010999998,0.5115608000000975,0.5949495999998362,1.7133334999998624,1.7967650999999023,,,,,,anne_1,001,2020_Feb_10_1221,posner,3.1.5,59.98703080399065,
-0.5,0,1,left,1,3,2,0,2,0,3,0,24,0,,,,,,,,,593.2649539999998,593.7648930999999,594.4823357,None,593.781512,594.4659031000001,594.9831303000001,593.2649539999998,left,1,0.33615379999992,594.9831303000001,None,None,593.781512,594.9664991999998,0.5117009999999027,0.5952794999998332,1.7132830999998987,1.7966418000000886,,,,,,anne_1,001,2020_Feb_10_1221,posner,3.1.5,59.98703080399065,
0.5,180,1,right,2,4,2,0,2,0,3,1,25,5,,,,,,,,,595.3508228000001,595.8512289999999,596.5687311000002,None,595.8678153999999,596.5518612000001,597.0694643000002,None,right,1,0.4577429000000848,597.0694643000002,None,None,595.8678153999999,597.0526485,0.511862100000144,0.5949654000000919,1.7132642000001397,1.7967573000000812,,,,,,anne_1,001,2020_Feb_10_1221,posner,3.1.5,59.98703080399065,
0.5,0,0,right,1,4,2,0,2,0,3,2,26,3,,,,,,,,,597.5538062,598.0540077,598.7717641999998,None,598.0708131000001,598.7550538999999,599.2725125000002,597.5538062,right,1,0.41472699999985707,599.2725125000002,None,None,598.0708131000001,599.2558771999998,0.5119196999999076,0.5955714000001535,1.7137732000001051,1.7972193999999035,,,,,,anne_1,001,2020_Feb_10_1221,posner,3.1.5,59.98703080399065,
-0.5,0,1,left,1,3,2,0,2,0,3,3,27,2,,,,,,,,,599.7075583999999,600.2071216999998,600.9245909000001,None,600.223547,600.9079649,601.4253868000001,None,left,1,0.37393480000037016,601.4253868000001,None,None,600.223547,601.4086238,0.5114397999996072,0.5948601999998573,1.7129456999996364,1.7963708999996015,,,,,,anne_1,001,2020_Feb_10_1221,posner,3.1.5,59.98703080399065,
0.5,180,1,right,2,4,2,0,2,0,3,4,28,7,,,,,,,,,601.8268355,602.3268668999999,603.0441836,None,602.3431362000001,603.0276665000001,603.5449247000001,None,right,1,0.29421599999977843,603.5449247000001,None,None,602.3431362000001,603.5282167999999,0.5117725000000064,0.5949768999998923,1.713107300000047,1.796693100000084,,,,,,anne_1,001,2020_Feb_10_1221,posner,3.1.5,59.98703080399065,
0.5,180,1,right,2,4,2,0,2,0,3,5,29,6,,,,,,,,,603.8618731000001,604.3624728999998,605.0804367000001,None,604.3795478000002,605.0635579999998,605.5812442000001,None,right,1,0.40991600000006656,605.5812442000001,None,None,604.3795478000002,605.5643952,0.511617500000284,0.5953936000000795,1.7135087000001477,1.7969020000000455,,,,,,anne_1,001,2020_Feb_10_1221,posner,3.1.5,59.98703080399065,
-0.5,0,1,left,1,3,2,0,2,0,3,6,30,1,,,,,,,,,606.0157687999999,606.5158145,607.2331304999998,None,606.5322772999998,607.2168576999998,607.7338896000001,None,left,1,0.3132018999999673,607.7338896000001,None,None,606.5322772999998,607.7173275,0.5117477999997391,0.5953629000000547,1.713223299999754,1.7965802999997322,,,,,,anne_1,001,2020_Feb_10_1221,posner,3.1.5,59.98703080399065,
-0.5,180,0,left,2,3,2,0,2,0,3,7,31,4,,,,,,,,,608.0686344000001,608.5686295999999,609.2863527,None,608.5852537000001,609.2696040000001,609.7870656999999,None,left,1,0.42008320000013555,609.7870656999999,None,None,608.5852537000001,609.7703259,0.5116250000000946,0.5951245999999628,1.713293700000122,1.7965458999997281,,,,,,anne_1,001,2020_Feb_10_1221,posner,3.1.5,59.98703080399065,
0.5,180,1,right,2,4,2,0,2,0,4,0,32,5,,,,,,,,,610.2380196999998,610.7383267,611.4561671000001,None,610.7547460000001,611.4394090000001,611.9565075999999,None,right,1,0.3146062000000711,611.9565075999999,None,None,610.7547460000001,611.9400651000001,0.5118480000001,0.5950967999997374,1.7135643999999957,1.7965989999997873,,,,,,anne_1,001,2020_Feb_10_1221,posner,3.1.5,59.98703080399065,
-0.5,0,1,left,1,3,2,0,2,0,4,1,33,0,,,,,,,,,612.2912465999998,612.7910861999999,613.5087140999999,None,612.8078608000001,613.4918521,614.0092540999999,None,left,1,0.30990799999972296,614.0092540999999,None,None,612.8078608000001,613.9926485000001,0.5116371999997682,0.5947105999998712,1.7131881999998768,1.7966209999999592,,,,,,anne_1,001,2020_Feb_10_1221,posner,3.1.5,59.98703080399065,
-0.5,0,1,left,1,3,2,0,2,0,4,2,34,2,,,,,,,,,614.3438307000001,614.8436585999998,615.5613549999998,None,614.8605754999999,615.5447235000001,616.0621937999999,None,left,1,0.3368897999998808,616.0621937999999,None,None,614.8605754999999,616.0454518000001,0.5114385000001676,0.5951513999998497,1.713220900000124,1.7966416999997818,,,,,,anne_1,001,2020_Feb_10_1221,posner,3.1.5,59.98703080399065,
-0.5,0,1,left,1,3,2,0,2,0,4,3,35,1,,,,,,,,,616.4296893999999,616.9300465000001,617.6477338999998,None,616.9467491999999,617.6311772999998,618.1487222999999,None,left,1,0.3464395999999397,618.1487222999999,None,None,616.9467491999999,618.1317697999998,0.511846400000195,0.5951592999999775,1.7135542000000896,1.7967272999999295,,,,,,anne_1,001,2020_Feb_10_1221,posner,3.1.5,59.98703080399065,
-0.5,180,0,left,2,3,2,0,2,0,4,4,36,4,,,,,,,,,618.5165846999998,619.0163318999998,619.7337036999998,None,619.0328149000002,619.7172900999999,620.2344426999998,620.7185329999998,left,1,0.5086377000002358,620.2344426999998,None,None,619.0328149000002,620.2179550000001,0.5115175999999337,0.5949674999997114,1.7131368000000293,1.7966354999998657,,,,,,anne_1,001,2020_Feb_10_1221,posner,3.1.5,59.98703080399065,
0.5,180,1,right,2,4,2,0,2,0,4,5,37,6,,,,,,,,,620.7692652999999,621.2693307,621.9870629000002,None,621.2859170000002,621.9704149999998,622.4877492999999,622.9717307999999,right,1,0.487399699999969,622.4877492999999,None,None,621.2859170000002,622.4710789999999,0.5114487000000736,0.5948553000002903,1.71318250000013,1.7963650000001508,,,,,,anne_1,001,2020_Feb_10_1221,posner,3.1.5,59.98703080399065,
0.5,0,0,right,1,4,2,0,2,0,4,6,38,3,,,,,,,,,623.0056957000002,623.5057993,624.2236806999999,None,623.5223421999999,624.2067084,624.7241395000001,None,right,1,0.3709356999997908,624.7241395000001,None,None,623.5223421999999,624.7074649000001,0.5117493999996441,0.5952069999998457,1.7133920999999646,1.7968316999999843,,,,,,anne_1,001,2020_Feb_10_1221,posner,3.1.5,59.98703080399065,
0.5,180,1,right,2,4,2,0,2,0,4,7,39,7,,,,,,,,,625.1248233000001,625.6253493999998,626.343014,None,625.6422397000001,626.3263129000002,626.8436465999998,None,right,1,0.43538959999978033,626.8436465999998,None,None,625.6422397000001,626.8270862999998,0.5117199000001165,0.5950760999999147,1.7134353000001283,1.7968110000001616,,,,,,anne_1,001,2020_Feb_10_1221,posner,3.1.5,59.98703080399065,
-0.5,0,1,left,1,3,2,0,2,0,5,0,40,1,,,,,,,,,627.2953968000002,627.7950316000001,628.5123853999999,None,627.8115938999999,628.4960993999998,629.0132558999999,None,left,1,0.38582129999986137,629.0132558999999,None,None,627.8115938999999,628.9966651,0.5116283000002113,0.5948010000001887,1.7132116000002497,1.7967309999999088,,,,,,anne_1,001,2020_Feb_10_1221,posner,3.1.5,59.98703080399065,
0.5,180,1,right,2,4,2,0,2,0,5,1,41,6,,,,,,,,,629.4148446999998,629.9145691999997,630.6321766000001,None,629.9313311999999,630.6155917000001,631.1328090000002,None,right,1,0.40225329999975656,631.1328090000002,None,None,629.9313311999999,631.1162322999999,0.5114943999997195,0.5949310000000878,1.7131349000001137,1.7965951000001041,,,,,,anne_1,001,2020_Feb_10_1221,posner,3.1.5,59.98703080399065,
-0.5,0,1,left,1,3,2,0,2,0,5,2,42,0,,,,,,,,,631.5506624999998,632.0508647000001,632.7684057000001,None,632.0677242000002,632.7518067000001,633.2691156000001,None,left,1,0.4419044999999642,633.2691156000001,None,None,632.0677242000002,633.2521655999999,0.5117444000002251,0.5951303000001644,1.7130333000000064,1.7969176000001426,,,,,,anne_1,001,2020_Feb_10_1221,posner,3.1.5,59.98703080399065,
0.5,0,0,right,1,4,2,0,2,0,5,3,43,3,,,,,,,,,633.7373388999999,634.2373041999999,634.9547764999998,None,634.2538252999998,634.9380873,635.4555691,None,right,1,0.327444099999866,635.4555691,None,None,634.2538252999998,635.4388122,0.5116799000002175,0.5950932999999168,1.713177099999939,1.7966027000002214,,,,,,anne_1,001,2020_Feb_10_1221,posner,3.1.5,59.98703080399065,
0.5,180,1,right,2,4,2,0,2,0,5,4,44,5,,,,,,,,,635.8071807000001,636.3065470000001,637.0242786999997,None,636.3232005,637.0078245999998,637.5249617999998,None,right,1,0.36233179999999265,637.5249617999998,None,None,636.3232005,637.5084087,0.5112120000003415,0.59496530000024,1.7130497000002833,1.7964316000002327,,,,,,anne_1,001,2020_Feb_10_1221,posner,3.1.5,59.98703080399065,
-0.5,0,1,left,1,3,2,0,2,0,5,5,45,2,,,,,,,,,637.9099061000002,638.4096135999998,639.1272171999999,None,638.4262389,639.1104983999999,639.6281202,None,left,1,0.26693669999986014,639.6281202,None,None,638.4262389,639.6114013000001,0.5113102999998773,0.5946838999998363,1.7130839999999807,1.7963393999998516,,,,,,anne_1,001,2020_Feb_10_1221,posner,3.1.5,59.98703080399065,
-0.5,180,0,left,2,3,2,0,2,0,5,6,46,4,,,,,,,,,639.9119716999999,640.4123986,641.1300544999999,None,640.4290059999998,641.1131168000002,641.6308024,642.1145869000002,left,1,0.4722097999997459,641.6308024,None,None,640.4290059999998,641.6139152999999,0.5119811999998092,0.5956882999998925,1.7134793000000172,1.7971048999997947,,,,,,anne_1,001,2020_Feb_10_1221,posner,3.1.5,59.98703080399065,
0.5,180,1,right,2,4,2,0,2,0,5,7,47,7,,,,,,,,,642.1319604,642.6319398,643.3496500000001,None,642.6486543000001,643.3331496000001,643.8503750999998,None,right,1,0.35680429999956687,643.8503750999998,None,None,642.6486543000001,643.8336248,0.5115859000002274,0.5949740000000929,1.713258499999938,1.7968095000001085,,,,,,anne_1,001,2020_Feb_10_1221,posner,3.1.5,59.98703080399065,
-0.5,180,0,left,2,3,2,0,2,0,6,0,48,4,,,,,,,,,644.2349377999999,644.7348020999998,645.4523506,None,644.7515214999999,645.4357574,645.9530817999998,None,left,1,0.33395370000016555,645.9530817999998,None,None,644.7515214999999,645.9366698999997,0.5116149999998925,0.5950655000001461,1.713445800000045,1.7968387999999322,,,,,,anne_1,001,2020_Feb_10_1221,posner,3.1.5,59.98703080399065,
0.5,0,0,right,1,4,2,0,2,0,6,1,49,3,,,,,,,,,646.3048712999998,646.8043736,647.5218810000001,None,646.8211326999999,647.5056270999999,648.0226711,None,right,1,0.3043096000001242,648.0226711,None,None,646.8211326999999,648.0061765,0.5112135000003946,0.5948665000000801,1.7129987000002984,1.7965371000000232,,,,,,anne_1,001,2020_Feb_10_1221,posner,3.1.5,59.98703080399065,
-0.5,0,1,left,1,3,2,0,2,0,6,2,50,2,,,,,,,,,648.3572573000001,648.8572346000001,649.5748653999999,None,648.8738011,649.558055,650.0754167,650.5597864000001,left,1,0.5557966999999735,650.0754167,None,None,648.8738011,650.0589710999998,0.5113522000001467,0.5950726000000941,1.713072800000191,1.7962883000000147,,,,,,anne_1,001,2020_Feb_10_1221,posner,3.1.5,59.98703080399065,
0.5,180,1,right,2,4,2,0,2,0,6,3,51,5,,,,,,,,,650.6597264000002,651.1602790000002,651.8781255999997,None,651.1770485000002,651.8613774,652.3787001000001,None,right,1,0.34040820000018357,652.3787001000001,None,None,651.1770485000002,652.3618840999998,0.5118317999999817,0.5953588000002128,1.7134258000000955,1.7971689999999398,,,,,,anne_1,001,2020_Feb_10_1221,posner,3.1.5,59.98703080399065,
-0.5,0,1,left,1,3,2,0,2,0,6,4,52,1,,,,,,,,,652.7467342,653.2466543,653.964461,None,653.2632785000001,653.9476814999998,654.4650462999998,None,left,1,0.3419343000000481,654.4650462999998,None,None,653.2632785000001,654.4482365999997,0.5115987999997742,0.5952345000000605,1.7131776000001082,1.796458199999961,,,,,,anne_1,001,2020_Feb_10_1221,posner,3.1.5,59.98703080399065,
0.5,180,1,right,2,4,2,0,2,0,6,5,53,7,,,,,,,,,654.8323031999998,655.3328439000002,656.0507195,None,655.3497280000001,656.0337140000001,656.551242,None,right,1,0.2717219000001023,656.551242,None,None,655.3497280000001,656.5343689000001,0.5122802999999294,0.5958497000001444,1.7137861999999586,1.7973612999999204,,,,,,anne_1,001,2020_Feb_10_1221,posner,3.1.5,59.98703080399065,
-0.5,0,1,left,1,3,2,0,2,0,6,6,54,0,,,,,,,,,656.8519154,657.3522662,658.0701536000001,None,657.3688664000001,658.0531488000001,658.5707806,None,left,1,0.3881453999997575,658.5707806,None,None,657.3688664000001,658.5537678999999,0.5119741999997132,0.5954134999997223,1.7134619999997085,1.7972024000000602,,,,,,anne_1,001,2020_Feb_10_1221,posner,3.1.5,59.98703080399065,
0.5,180,1,right,2,4,2,0,2,0,6,7,55,6,,,,,,,,,658.9882935999999,659.4887817999997,660.2061519999997,None,659.5054829999999,660.1895549000001,660.7069688000001,None,right,1,0.3639786000003369,660.7069688000001,None,None,659.5054829999999,660.6902685999999,0.5118472000003749,0.5947410000003401,1.7133309000000736,1.7966913000000204,,,,,,anne_1,001,2020_Feb_10_1221,posner,3.1.5,59.98703080399065,
-0.5,180,0,left,2,3,2,0,2,0,7,0,56,4,,,,,,,,,661.0928736999999,661.5916502,662.3092434,None,661.6081264999998,662.2923009000001,662.8096747999998,None,left,1,0.38130279999995764,662.8096747999998,None,None,661.6081264999998,662.7929887,0.5110316000000239,0.5942256000002999,1.7123287000003984,1.7958104000003914,,,,,,anne_1,001,2020_Feb_10_1221,posner,3.1.5,59.98703080399065,
0.5,180,1,right,2,4,2,0,2,0,7,1,57,7,,,,,,,,,663.2112284,663.7109571000001,664.4288135000002,None,663.7277666999998,664.4120014,664.9293314000001,None,right,1,0.42958950000002005,664.9293314000001,None,None,663.7277666999998,664.9126725000001,0.5108049000000392,0.5942874000002121,1.7125028000000384,1.796031700000185,,,,,,anne_1,001,2020_Feb_10_1221,posner,3.1.5,59.98703080399065,
0.5,0,0,right,1,4,2,0,2,0,7,2,58,3,,,,,,,,,665.3808319,665.8807796000001,666.5983703000002,None,665.8976781000001,666.5816604000001,667.0991869999998,667.5830295000001,right,1,0.4756416000000172,667.0991869999998,None,None,665.8976781000001,667.0823080999999,0.5116428000001179,0.5950665000000299,1.7131603000002542,1.7967750000002525,,,,,,anne_1,001,2020_Feb_10_1221,posner,3.1.5,59.98703080399065,
-0.5,0,1,left,1,3,2,0,2,0,7,3,59,2,,,,,,,,,667.6003762999999,668.1006358999998,668.8181344,None,668.1172858999998,668.8014957999999,669.3187027999998,None,left,1,0.3602026999997179,669.3187027999998,None,None,668.1172858999998,669.3019254999999,0.5118312999998125,0.5950505999999223,1.7131054000001313,1.796903999999813,,,,,,anne_1,001,2020_Feb_10_1221,posner,3.1.5,59.98703080399065,
0.5,180,1,right,2,4,2,0,2,0,7,4,60,6,,,,,,,,,669.7031892,670.2032128000001,670.9208519999997,None,670.2200236999997,670.9042025999997,671.4215201000002,None,right,1,0.3453002999999626,671.4215201000002,None,None,670.2200236999997,671.4048054,0.5117309000002024,0.5954197000000931,1.7133127000001878,1.796920300000238,,,,,,anne_1,001,2020_Feb_10_1221,posner,3.1.5,59.98703080399065,
-0.5,0,1,left,1,3,2,0,2,0,7,5,61,1,,,,,,,,,671.7893808999997,672.2895385000002,673.0072006999999,None,672.3059299000001,672.9906252000001,673.5078380999998,None,left,1,0.3390873999996984,673.5078380999998,None,None,672.3059299000001,673.4910550999998,0.5116070999997646,0.5950268000001415,1.7131223000001228,1.7967024999998102,,,,,,anne_1,001,2020_Feb_10_1221,posner,3.1.5,59.98703080399065,
0.5,180,1,right,2,4,2,0,2,0,7,6,62,5,,,,,,,,,673.8761358000002,674.3757701999998,675.0932856999998,None,674.3923472000001,675.0767409,675.5938587,None,right,1,0.37316059999966456,675.5938587,None,None,674.3923472000001,675.5770810999998,0.5117342999997163,0.5951497000000927,1.713035299999774,1.79675989999987,,,,,,anne_1,001,2020_Feb_10_1221,posner,3.1.5,59.98703080399065,
-0.5,0,1,left,1,3,2,0,2,0,7,7,63,0,,,,,,,,,675.9947624000001,676.4953504999999,677.2129541999998,None,676.5120667000001,677.1964250999999,677.7135557000001,None,left,1,0.2533063000000766,677.7135557000001,None,None,676.5120667000001,677.6968990999999,0.5119690999999875,0.5954771000001529,1.7135081999999784,1.7970786000000771,,,,,,anne_1,001,2020_Feb_10_1221,posner,3.1.5,59.98703080399065,
-0.5,0,1,left,1,3,2,0,2,0,8,0,64,0,,,,,,,,,677.9973912999999,678.4980769999997,679.2156973000001,None,678.5145237000002,679.1992313999999,679.7164223999998,None,left,1,0.35452029999987644,679.7164223999998,None,None,678.5145237000002,679.6997634999998,0.5122999000000164,0.5957296999999926,1.7139623000002757,1.7972225000003164,,,,,,anne_1,001,2020_Feb_10_1221,posner,3.1.5,59.98703080399065,
0.5,0,0,right,1,4,2,0,2,0,8,1,65,3,,,,,,,,,680.1006638999997,680.6009638,681.3187503999998,None,680.6177189999999,681.3016965000002,681.8193637999998,None,right,1,0.37136199999986275,681.8193637999998,None,None,680.6177189999999,681.8023241000001,0.5117497000001094,0.5950093999999808,1.713097100000141,1.796927500000038,,,,,,anne_1,001,2020_Feb_10_1221,posner,3.1.5,59.98703080399065,
0.5,180,1,right,2,4,2,0,2,0,8,2,66,6,,,,,,,,,682.2203709,682.7205399999998,683.4380593999999,None,682.7372543000001,683.4213375999998,683.9389427000001,None,right,1,0.3720308000001751,683.9389427000001,None,None,682.7372543000001,683.9220203999998,0.5116689999999835,0.5950407000000268,1.7131287999995948,1.796977699999843,,,,,,anne_1,001,2020_Feb_10_1221,posner,3.1.5,59.98703080399065,
0.5,180,1,right,2,4,2,0,2,0,8,3,67,5,,,,,,,,,684.3403611999997,684.839622,685.5577678999998,None,684.8563828000001,685.5412766,686.0583175000002,None,right,1,0.3406860999998571,686.0583175000002,None,None,684.8563828000001,686.0419146999998,0.511238399999911,0.5950419000000693,1.7134946000001037,1.7967665999999554,,,,,,anne_1,001,2020_Feb_10_1221,posner,3.1.5,59.98703080399065,
-0.5,0,1,left,1,3,2,0,2,0,8,4,68,1,,,,,,,,,686.4260165999999,686.926324,687.6439532999998,None,686.9429363999998,687.6274085999999,688.1445457999998,688.6286113000001,left,1,0.49437550000038755,688.1445457999998,None,None,686.9429363999998,688.1279280999997,0.5123433000003388,0.5957696000000396,1.71392220000007,1.7974451000000045,,,,,,anne_1,001,2020_Feb_10_1221,posner,3.1.5,59.98703080399065,
-0.5,0,1,left,1,3,2,0,2,0,8,5,69,2,,,,,,,,,688.6627002,689.1626216999998,689.8804614999999,None,689.1793871999998,689.8635945000001,690.3811563999998,None,left,1,0.34558200000037687,690.3811563999998,None,None,689.1793871999998,690.3641376,0.5116855000001124,0.5951764999999796,1.7131934999997611,1.7967595999998593,,,,,,anne_1,001,2020_Feb_10_1221,posner,3.1.5,59.98703080399065,
-0.5,180,0,left,2,3,2,0,2,0,8,6,70,4,,,,,,,,,690.7488032000001,691.2488816999999,691.9665781999997,None,691.2655239999999,691.9499654000001,692.4672322000001,None,left,1,0.42756580000013855,692.4672322000001,None,None,691.2655239999999,692.4506539999998,0.51186910000024,0.5953582000001916,1.7136249000000134,1.7968092999999499,,,,,,anne_1,001,2020_Feb_10_1221,posner,3.1.5,59.98703080399065,
0.5,180,1,right,2,4,2,0,2,0,8,7,71,7,,,,,,,,,692.9191544999999,693.4184648,694.1362949999998,None,693.4352140999999,694.1195763999999,694.6368809999999,None,right,1,0.3538214000000153,694.6368809999999,None,None,693.4352140999999,694.6200537999998,0.5110599999998158,0.5944138999998358,1.7126392999998643,1.7961260000001857,,,,,,anne_1,001,2020_Feb_10_1221,posner,3.1.5,59.98703080399065,
0.5,0,0,right,1,4,2,0,2,0,9,0,72,3,,,,,,,,,695.0213484999999,695.5213147,696.2393599000002,None,695.5380202000001,696.2222787999999,696.7398963999999,None,right,1,0.3548926000003121,696.7398963999999,None,None,695.5380202000001,696.7231579999998,0.5115600999997696,0.5951218000000154,1.713385499999731,1.7969459999999344,,,,,,anne_1,001,2020_Feb_10_1221,posner,3.1.5,59.98703080399065,
-0.5,0,1,left,1,3,2,0,2,0,9,1,73,0,,,,,,,,,697.1239762,697.6243362,698.3423102000002,None,697.6410024000002,698.3254345,698.8426208000001,None,left,1,0.3081110000002809,698.8426208000001,None,None,697.6410024000002,698.8258925,0.511542400000053,0.5951872000000549,1.7130800999998428,1.7966528000001745,,,,,,anne_1,001,2020_Feb_10_1221,posner,3.1.5,59.98703080399065,
0.5,180,1,right,2,4,2,0,2,0,9,2,74,6,,,,,,,,,699.1773935000001,699.6773088,700.3948858999997,None,699.6936433999999,700.3780710000001,700.8955172000001,None,right,1,0.41526359999988927,700.8955172000001,None,None,699.6936433999999,700.8790045999999,0.5115095999999539,0.5947901999998066,1.7131890000000567,1.7963338999998086,,,,,,anne_1,001,2020_Feb_10_1221,posner,3.1.5,59.98703080399065,
-0.5,180,0,left,2,3,2,0,2,0,9,3,75,4,,,,,,,,,701.3299453999998,701.8299687999997,702.5478881999998,None,701.8467289,702.5310129,703.0485822999999,703.5323945,left,1,0.5101853999999548,703.0485822999999,None,None,701.8467289,703.0316954,0.5115547999998853,0.5950232999998661,1.7132676999999603,1.796980000000076,,,,,,anne_1,001,2020_Feb_10_1221,posner,3.1.5,59.98703080399065,
0.5,180,1,right,2,4,2,0,2,0,9,4,76,7,,,,,,,,,703.5831944000001,704.0830437999998,704.8009112999998,None,704.0999557999999,704.7840803999998,705.3015681000002,None,right,1,0.40919300000041403,705.3015681000002,None,None,704.0999557999999,705.2847483,0.5114793000002464,0.5950126000002456,1.713166000000001,1.796667200000229,,,,,,anne_1,001,2020_Feb_10_1221,posner,3.1.5,59.98703080399065,
