targetX,cueOri,congr,corrAns,pin_cue,pin_target,block.thisRepN,block.thisTrialN,block.thisN,block.thisIndex,posner_task.thisRepN,posner_task.thisTrialN,posner_task.thisN,posner_task.thisIndex,port_start_block.started,port_start_block.stopped,text_2.started,text_2.stopped,p_port.started,p_port.stopped,text.started,text.stopped,fixation_1.started,fixation_1.stopped,fixation_2.started,fixation_2.stopped,cue.started,cue.stopped,target.started,target.stopped,correct_key_resp.keys,correct_key_resp.corr,correct_key_resp.rt,correct_key_resp.started,correct_key_resp.stopped,early_resp.keys,early_resp.started,early_resp.stopped,trigger_cue.started,trigger_cue.stopped,trigger_target.started,trigger_target.stopped,early_resp.rt,break_text.started,break_text.stopped,end_port.started,end_port.stopped,participant,session,date,expName,psychopyVersion,frameRate,
0.5,180,1,right,2,4,0,0,0,0,0,0,0,5,2.010000025620684e-05,0.0997323999999935,16.290296499999386,None,1.3500000022759195e-05,0.09953609999956825,18.175939199999448,None,18.51774000000023,19.02688020000005,19.727962599999955,None,19.02688020000005,19.727962599999955,20.228779199999735,None,right,1,0.4085776000001715,20.228779199999735,None,None,19.02688020000005,20.212310500000058,0.5027497999999468,0.6027623999998468,1.7044694999995045,1.7876384000001053,,,,,,syed_3,001,2020_Feb_07_1550,posner,3.1.5,59.94883966007837,
-0.5,180,0,left,2,3,0,0,0,0,0,1,1,4,,,,,,,,,20.663487599999826,21.163451399999758,21.881225600000107,None,21.1803261999994,21.864488399999573,22.38179029999992,None,left,1,0.343644000000495,22.38179029999992,None,None,21.1803261999994,22.36504160000004,0.5109693000003972,0.5945897999999943,1.7125377000002118,1.7959755000001678,,,,,,syed_3,001,2020_Feb_07_1550,posner,3.1.5,59.94883966007837,
-0.5,0,1,left,1,3,0,0,0,0,0,2,2,1,,,,,,,,,22.749470900000233,23.24989269999969,23.967092400000183,None,23.26618039999994,23.95011969999996,24.46790020000026,None,left,1,0.30576339999970514,24.46790020000026,None,None,23.26618039999994,24.45136689999981,0.511872800000674,0.5951103000006697,1.7133231000007072,1.7965740000008736,,,,,,syed_3,001,2020_Feb_07_1550,posner,3.1.5,59.94883966007837,
0.5,180,1,right,2,4,0,0,0,0,0,3,3,6,,,,,,,,,24.802083999999923,25.302450999999564,26.020182399999612,None,25.31918609999957,26.003569999999854,26.52080669999941,None,right,1,0.33268690000022616,26.52080669999941,None,None,25.31918609999957,26.504084899999725,0.5115642999999181,0.5949626999999964,1.7131901000002472,1.796641200000522,,,,,,syed_3,001,2020_Feb_07_1550,posner,3.1.5,59.94883966007837,
0.5,0,0,right,1,4,0,0,0,0,0,4,4,3,,,,,,,,,26.87282409999989,27.371924999999464,28.08978979999938,None,27.388745299999755,28.072951600000124,28.59035849999964,None,right,1,0.31901879999986704,28.59035849999964,None,None,27.388745299999755,28.573785499999758,0.5109822000003987,0.5944343000001027,1.7128242999997383,1.79604449999988,,,,,,syed_3,001,2020_Feb_07_1550,posner,3.1.5,59.94883966007837,
0.5,180,1,right,2,4,0,0,0,0,0,5,5,7,,,,,,,,,28.92479749999984,29.42478299999948,30.142353100000037,None,29.441609900000003,30.125524099999893,30.64331829999992,None,right,1,0.30615059999945515,30.64331829999992,None,None,29.441609900000003,30.62632289999965,0.5116113000003679,0.5953282999998919,1.7131392999999662,1.797852600000624,,,,,,syed_3,001,2020_Feb_07_1550,posner,3.1.5,59.94883966007837,
-0.5,0,1,left,1,3,0,0,0,0,0,6,6,0,,,,,,,,,30.977511299999605,31.47756609999942,32.195275399999446,None,31.494196900000134,32.1786960999998,32.6958654,None,left,1,0.2454715000003489,32.6958654,None,None,31.494196900000134,32.67922079999971,0.5117583000001105,0.5951428999997006,1.7133975999995528,1.7969133999995393,,,,,,syed_3,001,2020_Feb_07_1550,posner,3.1.5,59.94883966007837,
-0.5,0,1,left,1,3,0,0,0,0,0,7,7,2,,,,,,,,,32.96393110000008,33.463772099999915,34.18138629999976,None,33.480379900000116,34.1646968999994,34.682158900000104,None,left,1,0.2670428000001266,34.682158900000104,None,None,33.480379900000116,34.66512760000023,0.5115919999998368,0.5948199000004024,1.7129338000004282,1.7967716000002838,,,,,,syed_3,001,2020_Feb_07_1550,posner,3.1.5,59.94883966007837,
-0.5,180,0,left,2,3,0,0,0,0,1,0,8,4,,,,,,,,,34.96678090000023,35.466269499999726,36.18413629999941,None,35.483201399999416,36.167356400000244,36.68475369999942,None,left,1,0.2884766999995918,36.68475369999942,None,None,35.483201399999416,36.66873409999971,0.5112475000005361,0.5949367000002894,1.7136888000004546,1.7967932000001383,,,,,,syed_3,001,2020_Feb_07_1550,posner,3.1.5,59.94883966007837,
0.5,180,1,right,2,4,0,0,0,0,1,1,9,7,,,,,,,,,37.00317840000025,37.502514099999644,38.22018449999996,None,37.51930279999942,38.20367230000011,38.72090930000013,None,right,1,0.3882869999997638,38.72090930000013,None,None,37.51930279999942,38.70444690000022,0.5101534000004904,0.5935667000003377,1.712063500000113,1.7951988000004349,,,,,,syed_3,001,2020_Feb_07_1550,posner,3.1.5,59.94883966007837,
0.5,180,1,right,2,4,0,0,0,0,1,2,10,6,,,,,,,,,39.138853200000085,39.639032099999895,40.35639689999971,None,39.655453999999736,40.33984229999987,40.857293399999435,None,right,1,0.25997910000023694,40.857293399999435,None,None,39.655453999999736,40.84045520000018,0.5120262999998886,0.5952824000005421,1.7134336999997686,1.796803700000055,,,,,,syed_3,001,2020_Feb_07_1550,posner,3.1.5,59.94883966007837,
0.5,180,1,right,2,4,0,0,0,0,1,3,11,5,,,,,,,,,41.141710500000045,41.64168079999945,42.359292500000265,None,41.65835569999945,42.34258320000026,42.860070099999575,None,right,1,0.3132276999995156,42.860070099999575,None,None,41.65835569999945,42.843328400000246,0.5117969999992056,0.5949326999998448,1.7134310999999798,1.7967203999996855,,,,,,syed_3,001,2020_Feb_07_1550,posner,3.1.5,59.94883966007837,
-0.5,0,1,left,1,3,0,0,0,0,1,4,12,0,,,,,,,,,43.19484850000026,43.69442049999998,44.41213489999973,None,43.711117699999704,44.395384899999954,44.91275229999974,None,left,1,0.2925239000005604,44.91275229999974,None,None,43.711117699999704,44.896022599999924,0.5114720000001398,0.5948494000003848,1.7130491999996593,1.7968008999996528,,,,,,syed_3,001,2020_Feb_07_1550,posner,3.1.5,59.94883966007837,
-0.5,0,1,left,1,3,0,0,0,0,1,5,13,2,,,,,,,,,45.230827399999725,45.73053160000018,46.44828199999938,None,45.74718589999975,46.43159099999957,46.94891800000005,None,left,1,0.29627960000016174,46.94891800000005,None,None,45.74718589999975,46.93221199999971,0.5114260000000286,0.5949534000001222,1.7130809000000227,1.7964093999999022,,,,,,syed_3,001,2020_Feb_07_1550,posner,3.1.5,59.94883966007837,
-0.5,0,1,left,1,3,0,0,0,0,1,6,14,1,,,,,,,,,47.26608839999972,47.76659800000016,48.48435429999972,None,47.7834541000002,48.46756289999939,48.98498909999944,None,left,1,0.26018930000009277,48.98498909999944,None,None,47.7834541000002,48.96837400000004,0.5114794999999503,0.5949701999998069,1.7132483999994292,1.7966593000001012,,,,,,syed_3,001,2020_Feb_07_1550,posner,3.1.5,59.94883966007837,
0.5,0,0,right,1,4,0,0,0,0,1,7,15,3,,,,,,,,,49.26956220000011,49.769474400000036,50.487039300000106,None,49.78601669999989,50.4704627000001,50.98771839999972,None,right,1,0.2974584000003233,50.98771839999972,None,None,49.78601669999989,50.97107909999977,0.5116152999999031,0.5950251000003846,1.7131993000002694,1.796851400000378,,,,,,syed_3,001,2020_Feb_07_1550,posner,3.1.5,59.94883966007837,
-0.5,180,0,left,2,3,0,0,0,0,2,0,16,4,,,,,,,,,51.30562439999994,51.805162499999824,52.52314709999973,None,51.821592899999814,52.506563599999936,53.023876199999904,None,left,1,0.3013270999999804,53.023876199999904,None,None,51.821592899999814,53.007237499999974,0.5114487000000736,0.5952704999999696,1.7134712000006402,1.7970543000001271,,,,,,syed_3,001,2020_Feb_07_1550,posner,3.1.5,59.94883966007837,
-0.5,0,1,left,1,3,0,0,0,0,2,1,17,0,,,,,,,,,53.34130449999975,53.841678099999626,54.55950639999992,None,53.85851579999962,54.54266149999967,55.05999569999949,None,left,1,0.2812178000003769,55.05999569999949,None,None,53.85851579999962,55.043451900000036,0.5119460999994772,0.5952612000000954,1.7136922999998205,1.7969564999993963,,,,,,syed_3,001,2020_Feb_07_1550,posner,3.1.5,59.94883966007837,
0.5,180,1,right,2,4,0,0,0,0,2,2,18,6,,,,,,,,,55.36138669999946,55.86107879999963,56.57886679999956,None,55.8777841000001,56.56213800000023,57.07942709999952,None,right,1,0.2697328000003836,57.07942709999952,None,None,55.8777841000001,57.06286249999994,0.5113534000001891,0.5949287000003096,1.7131140999999843,1.7964591999998447,,,,,,syed_3,001,2020_Feb_07_1550,posner,3.1.5,59.94883966007837,
0.5,180,1,right,2,4,0,0,0,0,2,3,19,7,,,,,,,,,57.380661999999575,57.8806083999998,58.59821759999977,None,57.89714509999976,58.581607500000246,59.09903849999955,None,right,1,0.25032110000029206,59.09903849999955,None,None,57.89714509999976,59.0821664999994,0.5115632999995796,0.5950677000000724,1.7131067000000257,1.7966120000000956,,,,,,syed_3,001,2020_Feb_07_1550,posner,3.1.5,59.94883966007837,
-0.5,0,1,left,1,3,0,0,0,0,2,4,20,1,,,,,,,,,59.36610699999983,59.86658079999961,60.58430200000021,None,59.88328639999963,60.56769879999956,61.08475519999956,None,left,1,0.312468600000102,61.08475519999956,None,None,59.88328639999963,61.06843409999965,0.5113733000007414,0.5947854000005464,1.7132211000007374,1.7965556000008291,,,,,,syed_3,001,2020_Feb_07_1550,posner,3.1.5,59.94883966007837,
0.5,0,0,right,1,4,0,0,0,0,2,5,21,3,,,,,,,,,61.42007310000008,61.91962820000026,62.637058100000104,None,61.9360300999997,62.620453699999416,63.13778899999943,None,right,1,0.27537610000035784,63.13778899999943,None,None,61.9360300999997,63.121127200000046,0.511504099999911,0.594865199999731,1.7129847999995036,1.796516800000063,,,,,,syed_3,001,2020_Feb_07_1550,posner,3.1.5,59.94883966007837,
-0.5,0,1,left,1,3,0,0,0,0,2,6,22,2,,,,,,,,,63.43940659999953,63.938978000000134,64.65657269999974,None,63.95554749999974,64.63982899999974,65.15726279999944,None,left,1,0.3439232999999149,65.15726279999944,None,None,63.95554749999974,65.1405679999998,0.5116584999996121,0.5952403000001141,1.7132206999995105,1.7967398000000685,,,,,,syed_3,001,2020_Feb_07_1550,posner,3.1.5,59.94883966007837,
0.5,180,1,right,2,4,0,0,0,0,2,7,23,5,,,,,,,,,65.5254761999995,66.02515369999946,66.74280459999954,None,66.04191480000009,66.72601639999993,67.24354640000001,None,right,1,0.2657177999999476,67.24354640000001,None,None,66.04191480000009,67.22673680000025,0.5115208999995957,0.5950490999994145,1.7130924999992203,1.796469399999296,,,,,,syed_3,001,2020_Feb_07_1550,posner,3.1.5,59.94883966007837,
-0.5,0,1,left,1,3,0,0,0,0,3,0,24,0,,,,,,,,,67.52824820000023,68.02791979999984,68.74588459999995,None,68.04448520000005,68.72879730000022,69.24640699999964,None,left,1,0.3187428000001091,69.24640699999964,None,None,68.04448520000005,69.22964869999942,0.5115823000005548,0.5949090000003707,1.713283400000364,1.7967195999999603,,,,,,syed_3,001,2020_Feb_07_1550,posner,3.1.5,59.94883966007837,
-0.5,180,0,left,2,3,0,0,0,0,3,1,25,4,,,,,,,,,69.58076129999972,70.08070489999955,70.79851020000024,None,70.0973729999996,70.78180609999981,71.29905039999994,None,left,1,0.34602710000035586,71.29905039999994,None,None,70.0973729999996,71.28240079999978,0.5115662999996857,0.594959199999721,1.713238199999978,1.7964492000000973,,,,,,syed_3,001,2020_Feb_07_1550,posner,3.1.5,59.94883966007837,
-0.5,0,1,left,1,3,0,0,0,0,3,2,26,1,,,,,,,,,71.66714649999994,72.16690159999962,72.88447749999978,None,72.18367130000024,72.86795419999999,73.38520580000022,None,left,1,0.30003169999963575,73.38520580000022,None,None,72.18367130000024,73.36861690000023,0.5115574000001288,0.5951939999995375,1.7135151000002224,1.7967521000000488,,,,,,syed_3,001,2020_Feb_07_1550,posner,3.1.5,59.94883966007837,
0.5,180,1,right,2,4,0,0,0,0,3,3,27,5,,,,,,,,,73.7035264999995,74.20315119999941,74.92065300000013,None,74.2197656999997,74.90400119999958,75.42129529999966,None,right,1,0.24777300000005198,75.42129529999966,None,None,74.2197656999997,75.40490839999984,0.5115836000004492,0.5948277000006783,1.7133237000007284,1.7967249000002994,,,,,,syed_3,001,2020_Feb_07_1550,posner,3.1.5,59.94883966007837,
0.5,180,1,right,2,4,0,0,0,0,3,4,28,7,,,,,,,,,75.68897479999941,76.18915800000013,76.9066757999999,None,76.2057619999996,76.8901648000001,77.40735969999969,None,right,1,0.29374900000038906,77.40735969999969,None,None,76.2057619999996,77.39074110000001,0.5122303999996802,0.5957307999997283,1.7137849999999162,1.7973210000000108,,,,,,syed_3,001,2020_Feb_07_1550,posner,3.1.5,59.94883966007837,
0.5,180,1,right,2,4,0,0,0,0,3,5,29,6,,,,,,,,,77.72548339999958,78.22501430000011,78.94309619999967,None,78.24201429999994,78.92620329999954,79.44361789999948,None,right,1,0.31360339999991993,79.44361789999948,None,None,78.24201429999994,79.4268532999995,0.5113765999994939,0.5950783999996929,1.7131972999995924,1.7967923999995037,,,,,,syed_3,001,2020_Feb_07_1550,posner,3.1.5,59.94883966007837,
0.5,0,0,right,1,4,0,0,0,0,3,6,30,3,,,,,,,,,79.77850059999946,80.27800620000016,80.99569359999987,None,80.29480330000024,80.97902049999993,81.49626100000023,None,left,0,0.21272290000069916,81.49626100000023,None,None,80.29480330000024,81.47977489999994,0.5115317999998297,0.595021899999665,1.713246799999979,1.796724799999538,,,,,,syed_3,001,2020_Feb_07_1550,posner,3.1.5,59.94883966007837,
-0.5,0,1,left,1,3,0,0,0,0,3,7,31,2,,,,,,,,,81.73087419999956,82.2309424999994,82.94842059999974,None,82.24769680000009,82.93180990000019,83.44920309999998,None,right,0,0.4519566999997551,83.44920309999998,None,None,82.24769680000009,83.43244309999955,0.5116652999995495,0.5948271999995995,1.7131492999997135,1.7964264000002004,,,,,,syed_3,001,2020_Feb_07_1550,posner,3.1.5,59.94883966007837,
0.5,180,1,right,2,4,0,0,0,0,4,0,32,6,,,,,,,,,83.91688900000008,84.41705209999964,85.13468909999938,None,84.43384919999971,85.11828109999988,85.63522889999967,None,left,0,0.3378843999998935,85.63522889999967,None,None,84.43384919999971,85.6188758999997,0.5115229000002728,0.5949422000003324,1.7133441000005405,1.7966486000004807,,,,,,syed_3,001,2020_Feb_07_1550,posner,3.1.5,59.94883966007837,
-0.5,0,1,left,1,3,0,0,0,0,4,1,33,1,,,,,,,,,86.00294239999948,86.5033214999994,87.22094000000016,None,86.52003479999985,87.2042591999998,87.72171160000016,None,right,0,0.3474234000004799,87.72171160000016,None,None,86.52003479999985,87.70492399999966,0.5117835000000923,0.5953104000000167,1.713372199999867,1.7969703999997364,,,,,,syed_3,001,2020_Feb_07_1550,posner,3.1.5,59.94883966007837,
-0.5,0,1,left,1,3,0,0,0,0,4,2,34,2,,,,,,,,,88.08979720000025,88.58967119999943,89.30728799999997,None,88.6062678999997,89.29061610000008,89.80812489999971,None,right,0,0.2610538999997516,89.80812489999971,None,None,88.6062678999997,89.79119089999949,0.5117098000000624,0.5950400000001537,1.713215400000081,1.7966723999998067,,,,,,syed_3,001,2020_Feb_07_1550,posner,3.1.5,59.94883966007837,
-0.5,180,0,left,2,3,0,0,0,0,4,3,35,4,,,,,,,,,90.09263409999949,90.59256249999999,91.3099457999997,None,90.60895889999938,91.29327689999991,91.81069409999964,None,right,0,0.3143291999995199,91.81069409999964,None,None,90.60895889999938,91.79383849999977,0.5117790999993304,0.5947523999993791,1.713043299999299,1.7965219999996407,,,,,,syed_3,001,2020_Feb_07_1550,posner,3.1.5,59.94883966007837,
0.5,180,1,right,2,4,0,0,0,0,4,4,36,5,,,,,,,,,92.14520689999972,92.64492239999981,93.36283749999984,None,92.66182489999937,93.34597250000024,93.86361149999993,None,left,0,0.3495639000002484,93.86361149999993,None,None,92.66182489999937,93.8467596999999,0.5113993000004484,0.5952699000008579,1.7132211000007374,1.7966964000006556,,,,,,syed_3,001,2020_Feb_07_1550,posner,3.1.5,59.94883966007837,
-0.5,0,1,left,1,3,0,0,0,0,4,5,37,0,,,,,,,,,94.23156389999986,94.73137399999996,95.4489910000002,None,94.7482785000002,95.4322487999998,95.94975410000006,None,right,0,0.3592469999994137,95.94975410000006,None,None,94.7482785000002,95.9329990999995,0.5113639999999577,0.5946632000004684,1.712973300000158,1.7962655999999697,,,,,,syed_3,001,2020_Feb_07_1550,posner,3.1.5,59.94883966007837,
0.5,180,1,right,2,4,0,0,0,0,4,6,38,7,,,,,,,,,96.33382459999939,96.83439420000013,97.55194609999944,None,96.85078869999961,97.53507339999942,98.05268890000025,None,right,1,0.28831739999986894,98.05268890000025,None,None,96.85078869999961,98.03567539999949,0.512359700000161,0.5955343000005087,1.7136371000005965,1.797267599999941,,,,,,syed_3,001,2020_Feb_07_1550,posner,3.1.5,59.94883966007837,
0.5,0,0,right,1,4,0,0,0,0,4,7,39,3,,,,,,,,,98.37046680000003,98.87042399999973,99.58780289999959,None,98.88687479999953,99.57134529999985,100.08875160000025,None,right,1,0.29231499999968946,100.08875160000025,None,None,98.88687479999953,100.07203019999997,0.5118544000006295,0.5953025999997408,1.7134455000004891,1.796795899999779,,,,,,syed_3,001,2020_Feb_07_1550,posner,3.1.5,59.94883966007837,
0.5,0,0,right,1,4,0,0,0,0,5,0,40,3,,,,,,,,,100.40689819999989,100.90639680000004,101.6241799999998,None,100.92323089999991,101.6074936999994,102.12483040000006,None,right,1,0.3201712000000043,102.12483040000006,None,None,100.92323089999991,102.10836319999999,0.5115928999994139,0.5950719000002209,1.713525600000139,1.7967952999997578,,,,,,syed_3,001,2020_Feb_07_1550,posner,3.1.5,59.94883966007837,
-0.5,0,1,left,1,3,0,0,0,0,5,1,41,1,,,,,,,,,102.4761252999997,102.97605779999958,103.6936211000002,None,102.99282760000006,103.67691360000026,104.19431889999942,None,left,1,0.2746533999998064,104.19431889999942,None,None,102.99282760000006,104.17764199999965,0.5115685999999187,0.5950801999997566,1.7131260999994993,1.7966489999998885,,,,,,syed_3,001,2020_Feb_07_1550,posner,3.1.5,59.94883966007837,
-0.5,0,1,left,1,3,0,0,0,0,5,2,42,2,,,,,,,,,104.49504929999966,104.99540419999994,105.71305299999949,None,105.01222179999968,105.69633939999949,106.21380849999969,None,left,1,0.4072790999998688,106.21380849999969,None,None,105.01222179999968,106.19701449999957,0.5122071000005235,0.5956502000008186,1.713798300000235,1.7973798000002716,,,,,,syed_3,001,2020_Feb_07_1550,posner,3.1.5,59.94883966007837,
-0.5,180,0,left,2,3,0,0,0,0,5,3,43,4,,,,,,,,,106.64855369999987,107.14857709999978,107.86596329999975,None,107.1650523999997,107.849424,108.36661219999951,None,left,1,0.3583510999997088,108.36661219999951,None,None,107.1650523999997,108.34995519999939,0.5117810000001555,0.59512260000065,1.7131477000002633,1.7967647000004945,,,,,,syed_3,001,2020_Feb_07_1550,posner,3.1.5,59.94883966007837,
0.5,180,1,right,2,4,0,0,0,0,5,4,44,6,,,,,,,,,108.75103359999957,109.25125939999998,109.96898099999999,None,109.26785039999959,109.95227419999992,110.46953269999995,None,right,1,0.2874041999994006,110.46953269999995,None,None,109.26785039999959,110.45301019999988,0.5122381999999561,0.5956165999996301,1.7139660999991975,1.7972348999992391,,,,,,syed_3,001,2020_Feb_07_1550,posner,3.1.5,59.94883966007837,
-0.5,0,1,left,1,3,0,0,0,0,5,5,45,0,,,,,,,,,110.78767650000009,111.28738319999957,112.00466729999971,None,111.30406870000024,111.98872049999954,112.50560020000012,None,left,1,0.3154103999995641,112.50560020000012,None,None,111.30406870000024,112.48922429999948,0.5115951999996469,0.5949428999992961,1.7134126999999353,1.7967813999994178,,,,,,syed_3,001,2020_Feb_07_1550,posner,3.1.5,59.94883966007837,
0.5,180,1,right,2,4,0,0,0,0,5,6,46,7,,,,,,,,,112.84070299999985,113.34028330000001,114.05824620000021,None,113.35691580000002,114.04107179999937,114.55870279999999,None,right,1,0.2622489000004862,114.55870279999999,None,None,113.35691580000002,114.54199509999944,0.5114776000000347,0.5950647999998182,1.713173299999653,1.7965272999999797,,,,,,syed_3,001,2020_Feb_07_1550,posner,3.1.5,59.94883966007837,
0.5,180,1,right,2,4,0,0,0,0,5,7,47,5,,,,,,,,,114.84335229999942,115.3430902,116.06058669999948,None,115.3596609999995,116.04391080000005,116.5613913999996,None,right,1,0.3636956000000282,116.5613913999996,None,None,115.3596609999995,116.54458059999979,0.5116895999999542,0.594959299999573,1.7131638999999268,1.7966679000001022,,,,,,syed_3,001,2020_Feb_07_1550,posner,3.1.5,59.94883966007837,
-0.5,0,1,left,1,3,0,0,0,0,6,0,48,0,,,,,,,,,116.94539439999971,117.44585509999979,118.16343210000014,None,117.46276969999963,118.14680869999938,118.66418919999978,None,left,1,0.2687780999995084,118.66418919999978,None,right,117.46276969999963,118.64739829999962,0.512026500000502,0.5955227000004015,1.7135495000002265,1.7972254000005705,0.8942009000002145,,,,,syed_3,001,2020_Feb_07_1550,posner,3.1.5,59.94883966007837,
0.5,180,1,right,2,4,0,0,0,0,6,1,49,5,,,,,,,,,118.94924009999977,119.44865130000017,120.16618029999972,None,119.46512619999976,120.14955389999977,120.66693839999971,None,right,1,0.2260560999993686,120.66693839999971,None,None,119.46512619999976,120.65046050000001,0.5115601999996215,0.595046899999943,1.7133577999993577,1.7965788999999859,,,,,,syed_3,001,2020_Feb_07_1550,posner,3.1.5,59.94883966007837,
0.5,180,1,right,2,4,0,0,0,0,6,2,50,6,,,,,,,,,120.91840859999957,121.41800899999998,122.13558499999999,None,121.43461810000008,122.1189661999997,122.63631759999953,None,right,1,0.41671080000014626,122.63631759999953,None,left,121.43461810000008,122.61977149999984,0.5116459000000759,0.5949313000000984,1.713351899999907,1.7967413000005763,0.49041789999955654,,,,,syed_3,001,2020_Feb_07_1550,posner,3.1.5,59.94883966007837,
0.5,180,1,right,2,4,0,0,0,0,6,3,51,7,,,,,,,,,123.07059789999948,123.5710595999999,124.2889553999994,None,123.58758549999948,124.27185730000019,124.78950499999974,None,right,1,0.3115047000001141,124.78950499999974,None,None,123.58758549999948,124.77265739999984,0.5121398000001136,0.5954462999998213,1.713721600000099,1.7972196999999142,,,,,,syed_3,001,2020_Feb_07_1550,posner,3.1.5,59.94883966007837,
0.5,0,0,right,1,4,0,0,0,0,6,4,52,3,,,,,,,,,125.12395449999985,125.6237928999999,126.34151800000018,None,125.64060770000015,126.32473669999945,126.84204499999942,127.3261550999996,None,0,,126.84204499999942,None,right,125.64060770000015,126.82547780000004,0.5117067999999563,0.5951871999996001,1.7133641999998872,1.7967480999996042,0.36429169999973965,,,,,syed_3,001,2020_Feb_07_1550,posner,3.1.5,59.94883966007837,
-0.5,0,1,left,1,3,0,0,0,0,6,5,53,1,,,,,,,,,127.82690039999943,128.3273847999999,129.04514430000017,127.82690039999943,128.34423100000004,129.02847329999986,129.5457821,None,left,1,0.2991492000001017,129.5457821,None,None,128.34423100000004,129.52924989999974,0.5134567000004608,0.5970446999999695,1.7152992999999697,1.79862729999968,,,,,,syed_3,001,2020_Feb_07_1550,posner,3.1.5,59.94883966007837,
-0.5,180,0,left,2,3,0,0,0,0,6,6,54,4,,,,,,,,,129.86397839999972,130.36371419999978,131.08124099999986,None,130.38037079999958,131.06454609999946,131.58206059999975,132.06581610000012,left,1,0.47082619999946473,131.58206059999975,None,None,130.38037079999958,131.5650883999997,0.5116428000001179,0.5948578999996244,1.7129839999997785,1.796775300000263,,,,,,syed_3,001,2020_Feb_07_1550,posner,3.1.5,59.94883966007837,
-0.5,0,1,left,1,3,0,0,0,0,6,7,55,2,,,,,,,,,132.08299119999992,132.58349660000022,133.30103580000014,None,132.5998823,133.28433609999956,133.8018108999995,None,left,1,0.3071393000000171,133.8018108999995,None,None,132.5998823,133.7848071999997,0.5118742999993628,0.5951408000000811,1.713167899999462,1.7969619999994393,,,,,,syed_3,001,2020_Feb_07_1550,posner,3.1.5,59.94883966007837,
0.5,180,1,right,2,4,0,0,0,0,7,0,56,7,,,,,,,,,134.13716509999995,134.6361138000002,135.35381919999963,None,134.6529129999999,135.3370562,135.85473249999995,None,right,1,0.2701579999993555,135.85473249999995,None,None,134.6529129999999,135.83774249999988,0.5109528000002683,0.5943710999999894,1.7125714000003427,1.796150199999829,,,,,,syed_3,001,2020_Feb_07_1550,posner,3.1.5,59.94883966007837,
0.5,0,0,right,1,4,0,0,0,0,7,1,57,3,,,,,,,,,136.1555370999995,136.65553379999983,137.37335840000014,None,136.67232749999948,137.35666599999968,137.87390779999987,138.35790689999976,right,1,0.6990794999992431,137.87390779999987,None,None,136.67232749999948,137.85741609999968,0.5116154000006645,0.5952756000006048,1.7134841000006418,1.7967038000006141,,,,,,syed_3,001,2020_Feb_07_1550,posner,3.1.5,59.94883966007837,
-0.5,0,1,left,1,3,0,0,0,0,7,2,58,2,,,,,,,,,138.59227079999982,139.09246280000025,139.81006609999986,None,139.1093893999996,139.79330479999953,140.31067540000004,None,left,1,0.3182394999994358,140.31067540000004,None,None,139.1093893999996,140.29420149999987,0.5119412000003649,0.5953128000001016,1.713666600000579,1.796824000000015,,,,,,syed_3,001,2020_Feb_07_1550,posner,3.1.5,59.94883966007837,
-0.5,0,1,left,1,3,0,0,0,0,7,3,59,1,,,,,,,,,140.64523740000004,141.14501299999938,141.86271570000008,None,141.16190749999987,141.84600760000012,142.3635489999997,142.84742050000023,left,1,0.5773445000004358,142.3635489999997,None,None,141.16190749999987,142.34674910000012,0.5115365000001475,0.5952237999999852,1.7132572000000437,1.7968780000001061,,,,,,syed_3,001,2020_Feb_07_1550,posner,3.1.5,59.94883966007837,
-0.5,0,1,left,1,3,0,0,0,0,7,4,60,0,,,,,,,,,142.96510519999993,143.46482949999972,144.18268999999964,None,143.48172710000017,144.1659110999999,144.68343749999985,None,left,1,0.42541699999947014,144.68343749999985,None,None,143.48172710000017,144.66681479999988,0.5116129999996701,0.5952532999999676,1.713585299999977,1.7970585000002757,,,,,,syed_3,001,2020_Feb_07_1550,posner,3.1.5,59.94883966007837,
-0.5,180,0,left,2,3,0,0,0,0,7,5,61,4,,,,,,,,,145.1350051999998,145.63485899999978,146.3524994999998,None,145.6513745000002,146.3356321000001,146.85314279999966,None,left,1,0.32803920000060316,146.85314279999966,None,None,145.6513745000002,146.8364763999998,0.5117141999999149,0.5948973999993541,1.7133172999992894,1.796651099999508,,,,,,syed_3,001,2020_Feb_07_1550,posner,3.1.5,59.94883966007837,
0.5,180,1,right,2,4,0,0,0,0,7,6,62,5,,,,,,,,,147.2049877999998,147.7041193999994,148.42174669999986,None,147.72091369999998,148.4050628999994,148.92254700000012,None,right,1,0.35425240000040503,148.92254700000012,None,None,147.72091369999998,148.90588209999987,0.5110804999994798,0.5945283999999447,1.7128304999996544,1.796363299999939,,,,,,syed_3,001,2020_Feb_07_1550,posner,3.1.5,59.94883966007837,
0.5,180,1,right,2,4,0,0,0,0,7,7,63,6,,,,,,,,,149.3071119999995,149.80699949999962,150.52464379999947,None,149.82371439999952,150.50821929999984,151.0251978999995,151.5093783000002,right,1,0.5796161000007487,151.0251978999995,None,None,149.82371439999952,151.00895949999995,0.5117044999997233,0.5952986000002056,1.7136492999998154,1.7968541999998706,,,,,,syed_3,001,2020_Feb_07_1550,posner,3.1.5,59.94883966007837,
0.5,180,1,right,2,4,0,0,0,0,8,0,64,5,,,,,,,,,151.62735799999973,152.12681819999943,152.8445571000002,None,152.14378380000016,152.82788309999978,153.34517919999962,None,right,1,0.3316446000008,153.34517919999962,None,None,152.14378380000016,153.32876919999944,0.5114456999999675,0.5949866999999358,1.7133891000003132,1.7965678999999,,,,,,syed_3,001,2020_Feb_07_1550,posner,3.1.5,59.94883966007837,
-0.5,0,1,left,1,3,0,0,0,0,8,1,65,0,,,,,,,,,153.69677299999967,154.19638769999983,154.91416039999967,None,154.21321199999966,154.8972858999996,155.41479209999943,None,left,1,0.33405620000030467,155.41479209999943,None,None,154.21321199999966,155.39834470000005,0.511528900000485,0.5952389000003677,1.7134712000006402,1.796834000000672,,,,,,syed_3,001,2020_Feb_07_1550,posner,3.1.5,59.94883966007837,
0.5,0,0,right,1,4,0,0,0,0,8,2,66,3,,,,,,,,,155.76646439999968,156.26571330000024,156.98357880000003,None,156.28272920000018,156.96696470000006,157.48423319999984,None,right,1,0.376626700000088,157.48423319999984,None,None,156.28272920000018,157.46747109999978,0.5110699000006207,0.5947540000006484,1.7128342000005432,1.796365600000172,,,,,,syed_3,001,2020_Feb_07_1550,posner,3.1.5,59.94883966007837,
-0.5,0,1,left,1,3,0,0,0,0,8,3,67,1,,,,,,,,,157.8855937999997,158.38544959999945,159.10307620000003,None,158.40228469999965,159.08649849999983,159.60389589999977,None,left,1,0.28904309999961697,159.60389589999977,None,None,158.40228469999965,159.58733909999955,0.5116998999992575,0.5953938999991806,1.7135709999993196,1.7969326999991608,,,,,,syed_3,001,2020_Feb_07_1550,posner,3.1.5,59.94883966007837,
-0.5,0,1,left,1,3,0,0,0,0,8,4,68,2,,,,,,,,,159.92191039999943,160.42157189999944,161.13936269999977,None,160.4383600000001,161.1225857999998,161.64002530000016,162.1239274999998,left,1,0.5328644000001077,161.64002530000016,None,None,160.4383600000001,161.62351119999948,0.5113642999995136,0.5948760999999649,1.7132799999999406,1.7964752999996563,,,,,,syed_3,001,2020_Feb_07_1550,posner,3.1.5,59.94883966007837,
0.5,180,1,right,2,4,0,0,0,0,8,5,69,7,,,,,,,,,162.19178319999992,162.69154089999938,163.40913759999967,None,162.7084372999998,163.39260300000024,163.90977079999993,None,right,1,0.295018899999377,163.90977079999993,None,None,162.7084372999998,163.89302559999942,0.5114588999995249,0.5946782999999414,1.7129270999994333,1.796537599999283,,,,,,syed_3,001,2020_Feb_07_1550,posner,3.1.5,59.94883966007837,
0.5,180,1,right,2,4,0,0,0,0,8,6,70,6,,,,,,,,,164.22826949999944,164.72752799999944,165.4450724999997,None,164.74442929999987,165.42857259999982,165.9458236999999,None,left,0,0.36287999999967724,165.9458236999999,None,None,164.74442929999987,165.92944989999978,0.5114568999997573,0.5950757000000522,1.7133561999999074,1.7966222999993988,,,,,,syed_3,001,2020_Feb_07_1550,posner,3.1.5,59.94883966007837,
-0.5,180,0,left,2,3,0,0,0,0,8,7,71,4,,,,,,,,,166.3305252,166.83052109999971,167.54828540000017,None,166.84710509999968,167.53152789999967,168.04885360000026,168.5328724000001,None,0,,168.04885360000026,None,None,166.84710509999968,168.0321374999994,0.5114681999993991,0.5948014999994484,1.7130680000000211,1.7964812000000165,,,,,,syed_3,001,2020_Feb_07_1550,posner,3.1.5,59.94883966007837,
-0.5,180,0,left,2,3,0,0,0,0,9,0,72,4,,,,,,,,,169.03349590000016,169.53426859999945,170.25187670000014,169.03349590000016,169.55080829999952,170.23501010000018,170.75269449999996,171.23634409999977,left,1,0.5562434999992547,170.75269449999996,None,None,169.55080829999952,170.7358233999994,0.5137684999999692,0.5972360999994635,1.7153110999997807,1.7989109999998618,,,,,,syed_3,001,2020_Feb_07_1550,posner,3.1.5,59.94883966007837,
0.5,180,1,right,2,4,0,0,0,0,9,1,73,7,,,,,,,,,171.33753109999998,171.83731179999995,172.55516720000014,None,171.85406169999987,172.5383450999998,173.05577379999977,None,right,1,0.3970651999998154,173.05577379999977,None,None,171.85406169999987,173.03917980000006,0.5116170999999667,0.5950880000000325,1.7134618999998565,1.7967407999994975,,,,,,syed_3,001,2020_Feb_07_1550,posner,3.1.5,59.94883966007837,
-0.5,0,1,left,1,3,0,0,0,0,9,2,74,2,,,,,,,,,173.4739712999999,173.97370299999966,174.69133809999948,None,173.99038729999938,174.67453039999964,175.1921016999995,None,left,1,0.42060229999970034,175.1921016999995,None,None,173.99038729999938,175.1753073,0.5115142999993623,0.5949620000001232,1.713104999999814,1.7966130999993766,,,,,,syed_3,001,2020_Feb_07_1550,posner,3.1.5,59.94883966007837,
-0.5,0,1,left,1,3,0,0,0,0,9,3,75,0,,,,,,,,,175.64336230000026,176.14334969999982,176.8610321999995,None,176.1601080999999,176.84431700000005,177.3618392999997,None,left,1,0.3308814000001803,177.3618392999997,None,None,176.1601080999999,177.3448453000001,0.5116221000007499,0.594978699999956,1.7131016000003,1.796550400000342,,,,,,syed_3,001,2020_Feb_07_1550,posner,3.1.5,59.94883966007837,
0.5,180,1,right,2,4,0,0,0,0,9,4,76,5,,,,,,,,,177.71306269999968,178.21289089999937,178.93054419999953,None,178.22967059999974,178.9137667999994,179.43113230000017,None,right,1,0.2856274999994639,179.43113230000017,None,None,178.22967059999974,179.41448870000022,0.5115881000001536,0.5948086999997031,1.713170899999568,1.7964050999999017,,,,,,syed_3,001,2020_Feb_07_1550,posner,3.1.5,59.94883966007837,
0.5,180,1,right,2,4,0,0,0,0,9,5,77,6,,,,,,,,,179.74939929999982,180.24930419999964,180.96656189999976,None,180.2655396,180.94983700000012,181.46728710000025,None,right,1,0.2814973000004102,181.46728710000025,None,None,180.2655396,181.4505976999999,0.511845899999571,0.5951070000000982,1.7131264999998166,1.7964603999998872,,,,,,syed_3,001,2020_Feb_07_1550,posner,3.1.5,59.94883966007837,
-0.5,0,1,left,1,3,0,0,0,0,9,6,78,1,,,,,,,,,181.76787839999997,182.2684816000001,182.98591359999955,None,182.2849629000002,182.96940600000016,183.4865989,None,left,1,0.4220798999995168,183.4865989,None,None,182.2849629000002,183.46998769999936,0.5115502000007837,0.5948607000000266,1.7130364000004192,1.7965656000005765,,,,,,syed_3,001,2020_Feb_07_1550,posner,3.1.5,59.94883966007837,
0.5,0,0,right,1,4,0,0,0,0,9,7,79,3,,,,,,,,,183.9379455999997,184.43800079999983,185.15574629999992,None,184.45481550000022,185.1391451999998,185.65634379999938,None,right,1,0.3404189000002589,185.65634379999938,None,None,184.45481550000022,185.63971669999955,0.5114375000002838,0.5950259000001097,1.7131348000002617,1.7966765000001033,,,,,,syed_3,001,2020_Feb_07_1550,posner,3.1.5,59.94883966007837,
0.5,180,1,right,2,4,0,0,0,0,10,0,80,5,,,,,,,,,186.0244888999996,186.52442749999955,187.2419020999996,None,186.54086300000017,187.22511880000002,187.7425876999996,None,right,1,0.35021750000032625,187.7425876999996,None,None,186.54086300000017,187.72581040000023,0.5118949000006978,0.5951904000003196,1.7132668000003832,1.7969750000002023,,,,,,syed_3,001,2020_Feb_07_1550,posner,3.1.5,59.94883966007837,
0.5,0,0,right,1,4,0,0,0,0,10,1,81,3,,,,,,,,,188.1108806000002,188.61059959999966,189.32806040000014,None,188.62706900000012,189.3114617000001,189.82885149999947,None,right,1,0.25589080000008835,189.82885149999947,None,None,188.62706900000012,189.81196009999985,0.511469500000203,0.5946853000004921,1.7128175000007104,1.7962664000006043,,,,,,syed_3,001,2020_Feb_07_1550,posner,3.1.5,59.94883966007837,
0.5,180,1,right,2,4,0,0,0,0,10,2,82,7,,,,,,,,,190.11324030000014,190.61326589999953,191.33096690000002,None,190.62993389999974,191.31411620000017,191.83156289999988,None,right,1,0.3090569999994841,191.83156289999988,None,None,190.62993389999974,191.81470489999992,0.5117565000000468,0.5951466999995318,1.7131775999996535,1.7967606000001979,,,,,,syed_3,001,2020_Feb_07_1550,posner,3.1.5,59.94883966007837,
-0.5,0,1,left,1,3,0,0,0,0,10,3,83,1,,,,,,,,,192.1662822999997,192.66582949999975,193.3836771999995,None,192.68283659999997,193.36692829999993,193.88440679999985,None,left,1,0.3041855999999825,193.88440679999985,None,None,192.68283659999997,193.8675800000001,0.511276899999757,0.5952213000000484,1.713002399999823,1.7965900999997757,,,,,,syed_3,001,2020_Feb_07_1550,posner,3.1.5,59.94883966007837,
-0.5,0,1,left,1,3,0,0,0,0,10,4,84,0,,,,,,,,,194.21891589999996,194.71896259999994,195.43635900000027,None,194.73549699999967,195.41982300000018,195.93707480000012,None,left,1,0.3957991999996011,195.93707480000012,None,None,194.73549699999967,195.92043699999977,0.5116548999994848,0.5949934000000212,1.7131215999997949,1.7967404999999417,,,,,,syed_3,001,2020_Feb_07_1550,posner,3.1.5,59.94883966007837,
-0.5,0,1,left,1,3,0,0,0,0,10,5,85,2,,,,,,,,,196.35570259999986,196.85513939999964,197.57284830000026,None,196.87194159999945,197.55605800000012,198.07346159999997,None,left,1,0.2673099000003276,198.07346159999997,None,None,196.87194159999945,198.0567000000001,0.5114456999999675,0.5950013000001491,1.7129865000006248,1.7965398000005735,,,,,,syed_3,001,2020_Feb_07_1550,posner,3.1.5,59.94883966007837,
-0.5,180,0,left,2,3,0,0,0,0,10,6,86,4,,,,,,,,,198.35808499999985,198.8582403999999,199.57542639999974,None,198.87450350000017,199.55882999999994,200.07610990000012,None,left,1,0.336497799999961,200.07610990000012,None,None,198.87450350000017,200.05957679999938,0.5123758999998245,0.5953915000000052,1.7136907000003703,1.7969591999999466,,,,,,syed_3,001,2020_Feb_07_1550,posner,3.1.5,59.94883966007837,
0.5,180,1,right,2,4,0,0,0,0,10,7,87,6,,,,,,,,,200.4438001999997,200.94399759999942,201.66180949999944,None,200.9607748999997,201.64484170000014,202.16234949999944,None,right,1,0.29043780000029074,202.16234949999944,None,None,200.9607748999997,202.14567780000016,0.5116106999994372,0.5951712999994925,1.7132721999996647,1.7968026999997164,,,,,,syed_3,001,2020_Feb_07_1550,posner,3.1.5,59.94883966007837,
,,,,,,0,0,0,0,,,,,,,,,,,,,,,,,,,,,,,,,,,,,,,,,,202.48044899999968,None,1.83000001925393e-05,0.9955112999996345,syed_3,001,2020_Feb_07_1550,posner,3.1.5,59.94883966007837,
0.5,180,1,right,2,4,1,0,1,0,0,0,0,7,1.269999938813271e-05,0.09773439999935363,263.49675860000025,None,1.4500000361294951e-05,0.09763120000025083,265.59969159999946,None,265.8768485999999,266.38414490000014,267.0850456999997,None,266.4007348999994,267.0850456999997,267.5856342999996,None,right,1,0.2988504000004468,267.5856342999996,None,None,266.4007348999994,267.5856342999996,0.5164617000000362,0.5997913999999582,1.7013637999998537,1.801553999999669,,,,,,syed_3,001,2020_Feb_07_1550,posner,3.1.5,59.94883966007837,
0.5,180,1,right,2,4,1,0,1,0,0,1,1,5,,,,,,,,,267.90478579999944,268.4036894999999,269.1211825999999,None,268.4202028999998,269.1044806,269.6219374000002,None,right,1,0.2787293999999747,269.6219374000002,None,None,268.4202028999998,269.60525340000004,0.5108575000003839,0.5940123000000312,1.7124029000005976,1.7958642000003238,,,,,,syed_3,001,2020_Feb_07_1550,posner,3.1.5,59.94883966007837,
-0.5,0,1,left,1,3,1,0,1,0,0,2,2,2,,,,,,,,,269.9231585999996,270.4230470000002,271.1406694999996,None,270.4394941999999,271.123826,271.64138249999996,None,left,1,0.31508260000009614,271.64138249999996,None,None,270.4394941999999,271.62453409999944,0.5113707000000431,0.5947219999998197,1.7128414999997403,1.7967349999998987,,,,,,syed_3,001,2020_Feb_07_1550,posner,3.1.5,59.94883966007837,
-0.5,0,1,left,1,3,1,0,1,0,0,3,3,0,,,,,,,,,271.9752671999995,272.47581639999953,273.19355910000013,None,272.4926343999996,273.17673659999946,273.69406419999996,None,left,1,0.27022199999919394,273.69406419999996,None,None,272.4926343999996,273.67756329999975,0.5115748999996867,0.5950952999992296,1.7135596999996778,1.7967425999995612,,,,,,syed_3,001,2020_Feb_07_1550,posner,3.1.5,59.94883966007837,
-0.5,0,1,left,1,3,1,0,1,0,0,4,4,1,,,,,,,,,273.9951685999995,274.4952438,275.21280079999997,None,274.5121574999994,275.19615239999985,275.71345719999954,None,left,1,0.29904399999941234,275.71345719999954,None,None,274.5121574999994,275.69685219999974,0.5116958999997223,0.5951633999993646,1.713284699999349,1.7967573999994784,,,,,,syed_3,001,2020_Feb_07_1550,posner,3.1.5,59.94883966007837,
0.5,180,1,right,2,4,1,0,1,0,0,5,5,6,,,,,,,,,276.03163570000015,276.5314704000002,277.2494962999999,None,276.5480897999996,277.23230799999965,277.7501333,None,right,1,0.22235280000040802,277.7501333,None,None,276.5480897999996,277.7329638000001,0.5115698999998131,0.5947069000003466,1.713047899999765,1.7964603999998872,,,,,,syed_3,001,2020_Feb_07_1550,posner,3.1.5,59.94883966007837,
-0.5,180,0,left,2,3,1,0,1,0,0,6,6,4,,,,,,,,,278.00077340000007,278.5008846999999,279.21853139999985,None,278.51766919999955,279.2019429000002,279.7192149000002,None,right,0,0.20530450000023848,279.7192149000002,None,None,278.51766919999955,279.7025004999996,0.5115295000005062,0.5948284000005515,1.7131313000008959,1.7964205000007496,,,,,,syed_3,001,2020_Feb_07_1550,posner,3.1.5,59.94883966007837,
0.5,0,0,right,1,4,1,0,1,0,0,7,7,3,,,,,,,,,279.95335989999967,280.4534546999994,281.17118029999983,None,280.47005009999975,281.1544187999998,281.67182219999995,None,right,1,0.2684589999998934,281.67182219999995,None,None,280.47005009999975,281.6551448,0.5117265999997471,0.5951340000001437,1.7134028999998918,1.7968697000005704,,,,,,syed_3,001,2020_Feb_07_1550,posner,3.1.5,59.94883966007837,
0.5,180,1,right,2,4,1,0,1,0,1,0,8,7,,,,,,,,,281.9564341999994,282.4561825999999,283.1739228999995,None,282.47295529999974,283.1571766999996,283.6746598999998,None,right,1,0.2576896000000488,283.6746598999998,None,None,282.47295529999974,283.6579673999995,0.5114791000005425,0.5950844999997571,1.7132449999999153,1.796696299999894,,,,,,syed_3,001,2020_Feb_07_1550,posner,3.1.5,59.94883966007837,
-0.5,0,1,left,1,3,1,0,1,0,1,1,9,1,,,,,,,,,283.9591731999999,284.4590280000002,285.1765510999994,None,284.47551010000006,285.1600658999996,285.6774317999998,None,left,1,0.4229333000002953,285.6774317999998,None,None,284.47551010000006,285.66056649999973,0.5116398000000117,0.5950541000001976,1.7131555999994816,1.7966384999999718,,,,,,syed_3,001,2020_Feb_07_1550,posner,3.1.5,59.94883966007837,
-0.5,0,1,left,1,3,1,0,1,0,1,2,10,2,,,,,,,,,286.1290283999997,286.62866510000003,287.3461980000002,None,286.64528379999956,287.32953519999955,287.8468740999997,None,left,1,0.34143289999974513,287.8468740999997,None,None,286.64528379999956,287.83033780000005,0.5116328999993129,0.5949780999999348,1.7132879999999204,1.796670699999595,,,,,,syed_3,001,2020_Feb_07_1550,posner,3.1.5,59.94883966007837,
0.5,180,1,right,2,4,1,0,1,0,1,3,11,5,,,,,,,,,288.2145350999999,288.71465420000004,289.4325197999997,None,288.7315312999999,289.4156535000002,289.933172,None,right,1,0.28707200000008015,289.933172,None,None,288.7315312999999,289.91635919999953,0.5119878000004974,0.5955461000003197,1.713672800000495,1.7971937000002072,,,,,,syed_3,001,2020_Feb_07_1550,posner,3.1.5,59.94883966007837,
-0.5,180,0,left,2,3,1,0,1,0,1,4,12,4,,,,,,,,,290.25092159999986,290.7510566000001,291.46862469999996,None,290.76760209999975,291.4521214999995,291.96926040000017,None,left,1,0.3231557999997676,291.96926040000017,None,None,290.76760209999975,291.9526619999997,0.5117410000002565,0.5950149999998757,1.7133304999997563,1.7965426000000662,,,,,,syed_3,001,2020_Feb_07_1550,posner,3.1.5,59.94883966007837,
-0.5,0,1,left,1,3,1,0,1,0,1,5,13,0,,,,,,,,,292.3202328999996,292.8205071000002,293.53822169999967,None,292.83703739999964,293.5214538,294.03886749999947,None,left,1,0.2935612000001129,294.03886749999947,None,None,292.83703739999964,294.0221640999998,0.5120950000000448,0.5957265000006373,1.7137286000006497,1.796988400000373,,,,,,syed_3,001,2020_Feb_07_1550,posner,3.1.5,59.94883966007837,
0.5,0,0,right,1,4,1,0,1,0,1,6,14,3,,,,,,,,,294.3570017000002,294.85646480000014,295.57399280000027,None,294.8732173999997,295.55761359999997,296.0748679999997,None,right,1,0.3053228999997373,296.0748679999997,None,None,294.8732173999997,296.05838829999993,0.5114632999993773,0.5950684999997975,1.7133647999999084,1.7966669999996157,,,,,,syed_3,001,2020_Feb_07_1550,posner,3.1.5,59.94883966007837,
0.5,180,1,right,2,4,1,0,1,0,1,7,15,6,,,,,,,,,296.4091011999999,296.9093961999997,297.62764270000025,None,296.9260607999995,297.6104915999995,298.12774829999944,None,right,1,0.3165635999994265,298.12774829999944,None,None,296.9260607999995,298.11110459999963,0.5120833000000857,0.5956869999999981,1.713767999999618,1.7970419999992373,,,,,,syed_3,001,2020_Feb_07_1550,posner,3.1.5,59.94883966007837,
0.5,180,1,right,2,4,1,0,1,0,2,0,16,6,,,,,,,,,298.4622921,298.9623471999994,299.6801353999999,None,298.97889940000005,299.6632264,300.18057989999943,None,right,1,0.439797300000464,300.18057989999943,None,None,298.97889940000005,300.1638420999998,0.511765799999921,0.5949743000001035,1.7132474999998522,1.797018900000694,,,,,,syed_3,001,2020_Feb_07_1550,posner,3.1.5,59.94883966007837,
-0.5,0,1,left,1,3,1,0,1,0,2,1,17,1,,,,,,,,,300.64886560000014,301.14853719999974,301.8660939000001,None,301.1651759999995,301.84966949999944,302.36687939999956,None,left,1,0.4134688999993159,302.36687939999956,None,None,301.1651759999995,302.35015419999945,0.511533199999576,0.5950855999999476,1.7131263999999646,1.796600099999523,,,,,,syed_3,001,2020_Feb_07_1550,posner,3.1.5,59.94883966007837,
-0.5,0,1,left,1,3,1,0,1,0,2,2,18,2,,,,,,,,,302.8012656000001,303.3016803999999,304.01914979999947,None,303.31833389999974,304.0025991000002,304.51997609999944,305.003874,left,1,0.4762950999993336,304.51997609999944,None,None,303.31833389999974,304.50306790000013,0.5120961000002353,0.5953349999999773,1.7134699999996883,1.7970298000000184,,,,,,syed_3,001,2020_Feb_07_1550,posner,3.1.5,59.94883966007837,
-0.5,180,0,left,2,3,1,0,1,0,2,3,19,4,,,,,,,,,305.0215416000001,305.52132079999956,306.2389253000001,None,305.5380887000001,306.2224034000001,306.7396358999995,307.22357490000013,left,1,0.5287143000005017,306.7396358999995,None,None,305.5380887000001,306.72282319999977,0.511731300000065,0.5949829999999565,1.7132213000004413,1.7967350000008082,,,,,,syed_3,001,2020_Feb_07_1550,posner,3.1.5,59.94883966007837,
0.5,180,1,right,2,4,1,0,1,0,2,4,20,7,,,,,,,,,307.2913516999997,307.7911798999994,308.50883669999985,None,307.80778050000026,308.49201959999937,309.0095001999998,None,right,1,0.3547106999994867,309.0095001999998,None,None,307.80778050000026,308.99283920000016,0.5115772999997716,0.5948030999998082,1.713218500000039,1.7965033999998923,,,,,,syed_3,001,2020_Feb_07_1550,posner,3.1.5,59.94883966007837,
0.5,180,1,right,2,4,1,0,1,0,2,5,21,5,,,,,,,,,309.3935684999997,309.8939018000001,310.61147619999974,None,309.9107405999994,310.5947962,311.11229189999995,None,right,1,0.30008449999968434,311.11229189999995,None,None,309.9107405999994,311.0955232999995,0.5116471000001184,0.5951324999996359,1.7132558000002973,1.796840599999996,,,,,,syed_3,001,2020_Feb_07_1550,posner,3.1.5,59.94883966007837,
-0.5,0,1,left,1,3,1,0,1,0,2,6,22,0,,,,,,,,,311.43050289999974,311.9300880999999,312.64789629999996,None,311.94674309999937,312.6310094999999,313.14849069999946,None,left,1,0.3676737999994657,313.14849069999946,None,None,311.94674309999937,313.13187879999987,0.511299699999654,0.5946344999993016,1.7130668999998306,1.7962933999997404,,,,,,syed_3,001,2020_Feb_07_1550,posner,3.1.5,59.94883966007837,
0.5,0,0,right,1,4,1,0,1,0,2,7,23,3,,,,,,,,,313.5329187999996,314.0328892999996,314.7508450999994,None,314.0497654999999,314.7338539000002,315.2514967999996,None,right,1,0.3769407999998293,315.2514967999996,None,None,314.0497654999999,315.2345601999996,0.5117021000005479,0.5957994000000326,1.713360400000056,1.7968305000003966,,,,,,syed_3,001,2020_Feb_07_1550,posner,3.1.5,59.94883966007837,
-0.5,0,1,left,1,3,1,0,1,0,3,0,24,1,,,,,,,,,315.6527600999998,316.15266059999976,316.87030649999997,None,316.16920459999983,316.85341400000016,317.37094069999966,None,left,1,0.2972208999999566,317.37094069999966,None,None,316.16920459999983,317.3541709000001,0.5117345999997269,0.5950370999998995,1.7132307000001674,1.796766999999818,,,,,,syed_3,001,2020_Feb_07_1550,posner,3.1.5,59.94883966007837,
0.5,180,1,right,2,4,1,0,1,0,3,1,25,7,,,,,,,,,317.6891993999998,318.1888134000001,318.90630039999996,None,318.2053324999997,318.88961930000005,319.4070335999995,None,right,1,0.3572604000000865,319.4070335999995,None,None,318.2053324999997,319.3902793999996,0.5114668999995047,0.594921500000055,1.7129193000000669,1.7964960999997857,,,,,,syed_3,001,2020_Feb_07_1550,posner,3.1.5,59.94883966007837,
0.5,180,1,right,2,4,1,0,1,0,3,2,26,5,,,,,,,,,319.79182579999997,320.29167210000014,321.0093145000001,None,320.3084595,320.9925463999998,321.5098713999996,None,right,1,0.34235830000034184,321.5098713999996,None,None,320.3084595,321.4932584999997,0.5114801999998235,0.5946813999998994,1.7130434999999125,1.7964638000003106,,,,,,syed_3,001,2020_Feb_07_1550,posner,3.1.5,59.94883966007837,
0.5,0,0,right,1,4,1,0,1,0,3,3,27,3,,,,,,,,,321.87756790000003,322.3777309999996,323.0954157999995,None,322.39440620000005,323.0787959999998,323.59603460000017,None,right,1,0.3520979000004445,323.59603460000017,None,None,322.39440620000005,323.5795412999996,0.512201699999423,0.595723899999939,1.713978799999495,1.7973228000000745,,,,,,syed_3,001,2020_Feb_07_1550,posner,3.1.5,59.94883966007837,
-0.5,180,0,left,2,3,1,0,1,0,3,4,28,4,,,,,,,,,323.9640978999996,324.46404149999944,325.18171359999997,None,324.4807916,325.1647650999994,325.68237709999994,None,left,1,0.30599480000000767,325.68237709999994,None,None,324.4807916,325.6655687000002,0.5117959999997765,0.5950579000000289,1.7133098000003883,1.7971243000001778,,,,,,syed_3,001,2020_Feb_07_1550,posner,3.1.5,59.94883966007837,
-0.5,0,1,left,1,3,1,0,1,0,3,5,29,2,,,,,,,,,326.01674120000007,326.51670749999994,327.23441230000026,None,326.5335242000001,327.21779849999984,327.73501699999997,328.21930019999945,left,1,0.4772267999996984,327.73501699999997,None,None,326.5335242000001,327.71843119999994,0.5115796000000046,0.5950844999997571,1.7132831999997507,1.7967993000002025,,,,,,syed_3,001,2020_Feb_07_1550,posner,3.1.5,59.94883966007837,
-0.5,0,1,left,1,3,1,0,1,0,3,6,30,0,,,,,,,,,328.23585619999994,328.7364330999999,329.4542578999999,None,328.7532206999995,329.4377797999996,329.95483839999997,None,left,1,0.31331260000024486,329.95483839999997,None,None,328.7532206999995,329.93822309999996,0.5115552000006574,0.5951696000001903,1.7133232000005592,1.7968241000007765,,,,,,syed_3,001,2020_Feb_07_1550,posner,3.1.5,59.94883966007837,
0.5,180,1,right,2,4,1,0,1,0,3,7,31,6,,,,,,,,,330.2895274000002,330.7894372999999,331.50700009999946,None,330.80613099999937,331.4904851000001,332.0078813,None,right,1,0.4042525000004389,332.0078813,None,None,330.80613099999937,331.9910030000001,0.5116243000002214,0.5948816000000079,1.7131724000000759,1.796581900000092,,,,,,syed_3,001,2020_Feb_07_1550,posner,3.1.5,59.94883966007837,
0.5,180,1,right,2,4,1,0,1,0,4,0,32,6,,,,,,,,,332.4423836999995,332.9424745999995,333.6600807999994,None,332.9591264999999,333.64319629999954,334.16079379999974,None,right,1,0.36345299999993586,334.16079379999974,None,None,332.9591264999999,334.1437759999999,0.5119498000003659,0.5950753000006443,1.7132358000008026,1.7969997000000149,,,,,,syed_3,001,2020_Feb_07_1550,posner,3.1.5,59.94883966007837,
0.5,0,0,right,1,4,1,0,1,0,4,1,33,3,,,,,,,,,334.5455670000001,335.0451435999994,335.7629023999998,None,335.06210349999947,335.7462268999998,336.26348549999966,None,right,1,0.3727424999997311,336.26348549999966,None,None,335.06210349999947,336.24726480000027,0.5113421000005474,0.5948703000003661,1.7134442000005947,1.796527600000445,,,,,,syed_3,001,2020_Feb_07_1550,posner,3.1.5,59.94883966007837,
-0.5,0,1,left,1,3,1,0,1,0,4,2,34,0,,,,,,,,,336.6642098000002,337.16456389999985,337.8823919999995,None,337.1815102999999,337.86550009999974,338.3831399999999,None,left,1,0.38098970000010013,338.3831399999999,None,right,337.1815102999999,338.3663805999995,0.5120985000003202,0.5962576000001718,1.7138985000001412,1.7974600999996255,0.9347602999996525,,,,,syed_3,001,2020_Feb_07_1550,posner,3.1.5,59.94883966007837,
0.5,180,1,right,2,4,1,0,1,0,4,3,35,7,,,,,,,,,338.7842045999996,339.28423399999974,340.0019470999996,None,339.3009954999998,339.9851686000002,340.5027894999994,None,right,1,0.29329369999959454,340.5027894999994,None,None,339.3009954999998,340.4860053000002,0.5117525000005116,0.5953981000002386,1.7135103000000527,1.7970130000003337,,,,,,syed_3,001,2020_Feb_07_1550,posner,3.1.5,59.94883966007837,
-0.5,180,0,left,2,3,1,0,1,0,4,4,36,4,,,,,,,,,340.82026609999957,341.32052190000013,342.0382644000001,None,341.3372104,342.02148469999975,342.5389390999999,None,left,1,0.3371530000003986,342.5389390999999,None,None,341.3372104,342.52224019999994,0.5119937999998001,0.5953746000004685,1.713687899999968,1.7970076000001427,,,,,,syed_3,001,2020_Feb_07_1550,posner,3.1.5,59.94883966007837,
-0.5,0,1,left,1,3,1,0,1,0,4,5,37,2,,,,,,,,,342.9066490999994,343.4066697999997,344.1242410999994,None,343.42335,344.1078084999999,344.6249879999996,None,left,1,0.34715159999996104,344.6249879999996,None,None,343.42335,344.60860589999993,0.5115206999998918,0.5950421999996252,1.7134158999997453,1.7967762999996921,,,,,,syed_3,001,2020_Feb_07_1550,posner,3.1.5,59.94883966007837,
-0.5,0,1,left,1,3,1,0,1,0,4,6,38,1,,,,,,,,,344.99304370000027,345.4930316,346.21057569999994,None,345.5096990000002,346.1938266999996,346.71127869999964,None,left,1,0.2848391999996238,346.71127869999964,None,None,345.5096990000002,346.6944646000002,0.5116748000000371,0.5950271000001521,1.7130953999994745,1.7968200999994224,,,,,,syed_3,001,2020_Feb_07_1550,posner,3.1.5,59.94883966007837,
0.5,180,1,right,2,4,1,0,1,0,4,7,39,5,,,,,,,,,347.01256139999987,347.51238190000004,348.2299960999999,None,347.5290318999996,348.2133570999995,348.7308132999997,None,right,1,0.3055317999996987,348.7308132999997,None,None,347.5290318999996,348.7138258999994,0.5117252000000008,0.5949800999997024,1.7131579999995665,1.7968016999993779,,,,,,syed_3,001,2020_Feb_07_1550,posner,3.1.5,59.94883966007837,
0.5,180,1,right,2,4,1,0,1,0,5,0,40,5,,,,,,,,,349.0646809,349.56505039999956,350.2828325999999,None,349.58192899999995,350.26598300000023,350.78342749999956,None,right,1,0.28459639999982755,350.78342749999956,None,None,349.58192899999995,350.7667541999999,0.5121877999999924,0.5956994000007398,1.7138864000007743,1.7974331000004895,,,,,,syed_3,001,2020_Feb_07_1550,posner,3.1.5,59.94883966007837,
-0.5,0,1,left,1,3,1,0,1,0,5,1,41,2,,,,,,,,,351.08473140000024,351.5846136,352.30238389999977,None,351.6013481,352.28541309999946,352.8029557,None,left,1,0.2732593000000634,352.8029557,None,None,351.6013481,352.7861942999998,0.5116093000006003,0.5952019000005748,1.7131712000000334,1.7966159000006883,,,,,,syed_3,001,2020_Feb_07_1550,posner,3.1.5,59.94883966007837,
0.5,180,1,right,2,4,1,0,1,0,5,2,42,7,,,,,,,,,353.10441290000017,353.6042276999997,354.3216980999996,None,353.6208435999997,354.3050969999995,354.8223995999997,None,right,1,0.32566469999983383,354.8223995999997,None,None,353.6208435999997,354.8056919999999,0.5117405999999391,0.5949835999999777,1.7131890999999086,1.796627499999886,,,,,,syed_3,001,2020_Feb_07_1550,posner,3.1.5,59.94883966007837,
-0.5,180,0,left,2,3,1,0,1,0,5,3,43,4,,,,,,,,,355.1738955999999,355.6735420999994,356.3912744999998,None,355.69027189999997,356.37443689999964,356.89195070000005,None,left,1,0.33612670000002254,356.89195070000005,None,None,355.69027189999997,356.87510740000016,0.5115459000007831,0.5950698000006014,1.713092300000426,1.7968238000003112,,,,,,syed_3,001,2020_Feb_07_1550,posner,3.1.5,59.94883966007837,
-0.5,0,1,left,1,3,1,0,1,0,5,4,44,0,,,,,,,,,357.2598803000001,357.7596574999998,358.4775289999998,None,357.7764608999996,358.4607397,358.9782742999996,None,left,1,0.2738459000001967,358.9782742999996,None,None,357.7764608999996,358.9615076,0.51141860000007,0.5949792999999772,1.7132459999993443,1.7964610999997603,,,,,,syed_3,001,2020_Feb_07_1550,posner,3.1.5,59.94883966007837,
0.5,180,1,right,2,4,1,0,1,0,5,5,45,6,,,,,,,,,359.27928520000023,359.7791413999994,360.4968312000001,None,359.79578859999947,360.48027999999977,360.99757989999944,None,right,1,0.37441780000062863,360.99757989999944,None,None,359.79578859999947,360.9809403999998,0.5114579000000958,0.5949756999998499,1.71323029999985,1.7966819000002943,,,,,,syed_3,001,2020_Feb_07_1550,posner,3.1.5,59.94883966007837,
-0.5,0,1,left,1,3,1,0,1,0,5,6,46,1,,,,,,,,,361.3989243999995,361.8990758,362.6163085999997,None,361.9154687,362.5999247999998,363.11704289999943,None,left,1,0.2870179999999891,363.11704289999943,None,None,361.9154687,363.1004418000002,0.5117221999998947,0.5950252000002365,1.7130699999997887,1.796494299999722,,,,,,syed_3,001,2020_Feb_07_1550,posner,3.1.5,59.94883966007837,
0.5,0,0,right,1,4,1,0,1,0,5,7,47,3,,,,,,,,,363.43493320000016,363.93489039999986,364.65262939999957,None,363.9517791999997,364.6359180999998,365.1533049999998,None,right,1,0.2987718999993376,365.1533049999998,None,None,363.9517791999997,365.1365383000002,0.5115255999999135,0.5951256999996986,1.7131547999997565,1.7965233000004446,,,,,,syed_3,001,2020_Feb_07_1550,posner,3.1.5,59.94883966007837,
0.5,180,1,right,2,4,1,0,1,0,6,0,48,7,,,,,,,,,365.4715691000001,365.9710860999994,366.6887674999998,None,365.98772089999966,366.6720022999998,367.18948790000013,None,right,1,0.27873639999961597,367.18948790000013,None,None,365.98772089999966,367.1728478999994,0.5112890999998854,0.5947476000001188,1.7130341000001863,1.7963902999999846,,,,,,syed_3,001,2020_Feb_07_1550,posner,3.1.5,59.94883966007837,
0.5,180,1,right,2,4,1,0,1,0,6,1,49,6,,,,,,,,,367.49083210000026,367.9905944000002,368.7084106000002,None,368.0073487999998,368.69149430000016,369.2089486999994,None,right,1,0.25903310000012425,369.2089486999994,None,None,368.0073487999998,369.19235899999967,0.5112732999996297,0.5945659999997588,1.7130176999999094,1.7961928999993688,,,,,,syed_3,001,2020_Feb_07_1550,posner,3.1.5,59.94883966007837,
-0.5,0,1,left,1,3,1,0,1,0,6,2,50,2,,,,,,,,,369.4933983000001,369.9933747999994,370.71108769999955,None,370.0098681999998,370.69415039999967,371.2118039999996,None,left,1,0.31218840000019554,371.2118039999996,None,None,370.0098681999998,371.1948881999997,0.5117710999993506,0.5950279999997292,1.713270599999305,1.7968919999993886,,,,,,syed_3,001,2020_Feb_07_1550,posner,3.1.5,59.94883966007837,
-0.5,0,1,left,1,3,1,0,1,0,6,3,51,0,,,,,,,,,371.5465617,372.04604930000005,372.7636984999999,None,372.0627519999998,372.74748910000017,373.2643415000002,None,left,1,0.2596751999999469,373.2643415000002,None,None,372.0627519999998,373.2482752999995,0.5114991999998892,0.5949429000002056,1.7137024000003294,1.7967906000003495,,,,,,syed_3,001,2020_Feb_07_1550,posner,3.1.5,59.94883966007837,
-0.5,0,1,left,1,3,1,0,1,0,6,4,52,1,,,,,,,,,373.54929919999995,374.0488661999998,374.7664229000002,None,374.0654456000002,374.7502550999998,375.2673844000001,None,left,1,0.3045617999996466,375.2673844000001,None,None,374.0654456000002,375.2505838999996,0.511507299999721,0.5950657000003048,1.713215599999785,1.7965691999997944,,,,,,syed_3,001,2020_Feb_07_1550,posner,3.1.5,59.94883966007837,
-0.5,180,0,left,2,3,1,0,1,0,6,5,53,4,,,,,,,,,375.6018828999995,376.1017549999997,376.8193989000001,None,376.11831840000013,376.8025772000001,377.3201272999995,None,left,1,0.3158867000001919,377.3201272999995,None,None,376.11831840000013,377.3032996000002,0.5115839000000051,0.5948075000005701,1.7131122000000687,1.7965142000002743,,,,,,syed_3,001,2020_Feb_07_1550,posner,3.1.5,59.94883966007837,
0.5,180,1,right,2,4,1,0,1,0,6,6,54,5,,,,,,,,,377.6545226999997,378.1545433000001,378.87213059999976,None,378.17133809999996,378.85549790000005,379.3727795999994,None,right,1,0.32730890000038926,379.3727795999994,None,None,378.17133809999996,379.3561168999995,0.5120952999996007,0.5954824999998891,1.7136374000001524,1.7971901999999318,,,,,,syed_3,001,2020_Feb_07_1550,posner,3.1.5,59.94883966007837,
0.5,0,0,right,1,4,1,0,1,0,6,7,55,3,,,,,,,,,379.7241280999997,380.22398069999963,380.9417208999994,None,380.24063549999937,380.92483730000004,381.4423651999996,None,right,1,0.32152010000027076,381.4423651999996,None,None,380.24063549999937,381.42558069999995,0.5115587000000232,0.5953539000001911,1.713144100000136,1.7967575000002398,,,,,,syed_3,001,2020_Feb_07_1550,posner,3.1.5,59.94883966007837,
-0.5,0,1,left,1,3,1,0,1,0,7,0,56,0,,,,,,,,,381.7932562999995,382.2934752000001,383.01129630000014,None,382.3103321999997,382.99442329999965,383.5119273999999,None,left,1,0.30014889999984007,383.5119273999999,None,None,382.3103321999997,383.49515559999963,0.5115914999996676,0.5950440999995408,1.7132379999993645,1.7965463000000454,,,,,,syed_3,001,2020_Feb_07_1550,posner,3.1.5,59.94883966007837,
0.5,180,1,right,2,4,1,0,1,0,7,1,57,5,,,,,,,,,383.8299293,384.32975799999986,385.0475403999999,None,384.34635849999995,385.0306099999998,385.5480730999998,None,right,1,0.3122721999998248,385.5480730999998,None,None,384.34635849999995,385.53141589999996,0.5115611999999601,0.5949075999997149,1.713204699999551,1.7964666999996552,,,,,,syed_3,001,2020_Feb_07_1550,posner,3.1.5,59.94883966007837,
-0.5,180,0,left,2,3,1,0,1,0,7,2,58,4,,,,,,,,,385.88277709999966,386.38251109999965,387.1001655,None,386.3991496999997,387.0836905999995,387.60072169999967,None,left,1,0.31519639999987703,387.60072169999967,None,None,386.3991496999997,387.58414079999966,0.511363500000698,0.5947039000002405,1.712970900000073,1.7964489000005415,,,,,,syed_3,001,2020_Feb_07_1550,posner,3.1.5,59.94883966007837,
-0.5,0,1,left,1,3,1,0,1,0,7,3,59,1,,,,,,,,,387.93541229999937,388.43520350000017,389.1530136000001,None,388.4520928000002,389.13633630000004,389.65361369999937,None,left,1,0.3344214999997348,389.65361369999937,None,None,388.4520928000002,389.63694529999975,0.5115802999998778,0.5951304000000164,1.713323400000263,1.7967967000004137,,,,,,syed_3,001,2020_Feb_07_1550,posner,3.1.5,59.94883966007837,
0.5,0,0,right,1,4,1,0,1,0,7,4,60,3,,,,,,,,,390.00465259999964,390.5048577999996,391.2225002999994,None,390.5216720999997,391.2058122999997,391.7231923999998,None,right,1,0.34477969999989,391.7231923999998,None,None,390.5216720999997,391.7065481999998,0.5122449999998935,0.5955826999997953,1.7139154000005874,1.7973990999998932,,,,,,syed_3,001,2020_Feb_07_1550,posner,3.1.5,59.94883966007837,
0.5,180,1,right,2,4,1,0,1,0,7,5,61,7,,,,,,,,,392.0911449999994,392.59103830000004,393.3088031999996,None,392.60790540000016,393.29203830000006,393.80939209999997,None,right,1,0.3704762999996092,393.80939209999997,None,None,392.60790540000016,393.7927251000001,0.5114946000003329,0.5948356999997486,1.7131587000003492,1.7965004999996381,,,,,,syed_3,001,2020_Feb_07_1550,posner,3.1.5,59.94883966007837,
-0.5,0,1,left,1,3,1,0,1,0,7,6,62,2,,,,,,,,,394.2106471999996,394.7107535999994,395.4283267999999,None,394.7272473000003,395.4117999,395.92882969999937,None,left,1,0.2830874999999651,395.92882969999937,None,None,394.7272473000003,395.9124968999995,0.5116473999996742,0.594945299999381,1.7133631999995487,1.7965330999995786,,,,,,syed_3,001,2020_Feb_07_1550,posner,3.1.5,59.94883966007837,
0.5,180,1,right,2,4,1,0,1,0,7,7,63,6,,,,,,,,,396.23030909999943,396.7299713000002,397.44790120000016,None,396.74725579999995,397.4311765000002,397.9484838999997,None,right,1,0.255469699999594,397.9484838999997,None,None,396.74725579999995,397.9316362999998,0.5115343999996185,0.5949495999993815,1.7131804000000557,1.7966502999997829,,,,,,syed_3,001,2020_Feb_07_1550,posner,3.1.5,59.94883966007837,
0.5,0,0,right,1,4,1,0,1,0,8,0,64,3,,,,,,,,,398.2328497999997,398.7327835999995,399.4505478000001,None,398.7498326999994,399.43368219999957,399.9510805,None,right,1,0.3967173000000912,399.9510805,None,None,398.7498326999994,399.93451240000013,0.5117609999997512,0.5951868000001923,1.7134709000001749,1.7969191000001956,,,,,,syed_3,001,2020_Feb_07_1550,posner,3.1.5,59.94883966007837,
0.5,180,1,right,2,4,1,0,1,0,8,1,65,7,,,,,,,,,400.3688639000002,400.8690981,401.58672490000026,None,400.8857688999997,401.5700299,402.08744279999974,None,right,1,0.34056560000044556,402.08744279999974,None,None,400.8857688999997,402.0707789999997,0.5116625999999087,0.5949916999998095,1.7133337999994183,1.7965942000000723,,,,,,syed_3,001,2020_Feb_07_1550,posner,3.1.5,59.94883966007837,
-0.5,0,1,left,1,3,1,0,1,0,8,2,66,1,,,,,,,,,402.45553259999997,402.9552543,403.67294129999937,None,402.9720514999999,403.6561929999998,404.1735616999995,None,left,1,0.39041639999959443,404.1735616999995,None,None,402.9720514999999,404.1569383999995,0.5115736999996443,0.5950352999998358,1.7132334999996601,1.7967805999996926,,,,,,syed_3,001,2020_Feb_07_1550,posner,3.1.5,59.94883966007837,
-0.5,0,1,left,1,3,1,0,1,0,8,3,67,0,,,,,,,,,404.59163290000015,405.0917112999996,405.8094173999998,None,405.1084817000001,405.7925795000001,406.3099216999999,None,left,1,0.341924199999994,406.3099216999999,None,None,405.1084817000001,406.2931755999998,0.5118592999997418,0.5949849999997241,1.7133138999997755,1.7968387000000803,,,,,,syed_3,001,2020_Feb_07_1550,posner,3.1.5,59.94883966007837,
0.5,180,1,right,2,4,1,0,1,0,8,4,68,6,,,,,,,,,406.6779766999998,407.1778790999997,407.89522020000004,None,407.1943980999995,407.87874759999977,408.396127,None,right,1,0.3916622999995525,408.396127,None,None,407.1943980999995,408.37930789999973,0.5116020000004937,0.5951417000005677,1.7130172000006496,1.7965941000002204,,,,,,syed_3,001,2020_Feb_07_1550,posner,3.1.5,59.94883966007837,
-0.5,180,0,left,2,3,1,0,1,0,8,5,69,4,,,,,,,,,408.81423089999953,409.3139268999994,410.03177589999996,None,409.3308023999998,410.01482699999997,410.5323534999998,None,left,1,0.34350159999939933,410.5323534999998,None,None,409.3308023999998,410.5156009000002,0.5116282000008141,0.5951867000003404,1.713285700000597,1.7967525000003661,,,,,,syed_3,001,2020_Feb_07_1550,posner,3.1.5,59.94883966007837,
0.5,180,1,right,2,4,1,0,1,0,8,6,70,5,,,,,,,,,410.90040580000004,411.40007030000015,412.11797620000016,None,411.4167628999994,412.1013241999999,412.6184162999998,None,right,1,0.33739650000006804,412.6184162999998,None,None,411.4167628999994,412.6019719999995,0.5113182999994024,0.5949738999997862,1.7131973999994443,1.7965250999995988,,,,,,syed_3,001,2020_Feb_07_1550,posner,3.1.5,59.94883966007837,
-0.5,0,1,left,1,3,1,0,1,0,8,7,71,2,,,,,,,,,412.98607119999997,413.4863360999998,414.20392449999963,None,413.5030888000001,414.18743319999976,414.7047768000002,None,left,1,0.3471990999996706,414.7047768000002,None,None,413.5030888000001,414.6881567999999,0.5115732000003845,0.5951089000000138,1.7133628000001409,1.7968355000002703,,,,,,syed_3,001,2020_Feb_07_1550,posner,3.1.5,59.94883966007837,
-0.5,0,1,left,1,3,1,0,1,0,9,0,72,0,,,,,,,,,415.0729629999996,415.57269389999965,416.2904725999997,None,415.58948469999996,416.2736976999995,416.79112579999946,None,left,1,0.3805891000001793,416.79112579999946,None,None,415.58948469999996,416.7741796,0.5114060999994763,0.5948466999998345,1.712873800000125,1.7967398000000685,,,,,,syed_3,001,2020_Feb_07_1550,posner,3.1.5,59.94883966007837,
0.5,0,0,right,1,4,1,0,1,0,9,1,73,3,,,,,,,,,417.1923514,417.69221899999957,418.4098925999997,None,417.70910809999987,418.3932378999998,418.9106775,None,right,1,0.2691567000001669,418.9106775,None,None,417.70910809999987,418.8938116999998,0.5116877999998906,0.5950351999999839,1.7132661999994525,1.7969146999994337,,,,,,syed_3,001,2020_Feb_07_1550,posner,3.1.5,59.94883966007837,
-0.5,180,0,left,2,3,1,0,1,0,9,2,74,4,,,,,,,,,419.21181160000015,419.71181650000017,420.42932239999936,None,419.7282181999999,420.41258860000016,420.9300962999996,None,left,1,0.25769799999943643,420.9300962999996,None,None,419.7282181999999,420.9134216000002,0.511917199999516,0.5954046999995626,1.7135034000002634,1.7968537999995533,,,,,,syed_3,001,2020_Feb_07_1550,posner,3.1.5,59.94883966007837,
0.5,180,1,right,2,4,1,0,1,0,9,3,75,6,,,,,,,,,421.21444019999944,421.71440729999995,422.4321487999996,None,421.73112330000004,422.41535639999984,422.93277599999965,None,right,1,0.27099209999960294,422.93277599999965,None,None,421.73112330000004,422.9159055,0.5118634000000384,0.595445899999504,1.713352799999484,1.7970173000003342,,,,,,syed_3,001,2020_Feb_07_1550,posner,3.1.5,59.94883966007837,
-0.5,0,1,left,1,3,1,0,1,0,9,4,76,1,,,,,,,,,423.23362519999955,423.7338125999995,424.4516254,None,423.7506572000002,424.4349827999995,424.9522871999998,None,left,1,0.29151530000035564,424.9522871999998,None,None,423.7506572000002,424.9356495000002,0.51176039999973,0.595264199999292,1.7135849999995116,1.796804899999188,,,,,,syed_3,001,2020_Feb_07_1550,posner,3.1.5,59.94883966007837,
0.5,180,1,right,2,4,1,0,1,0,9,5,77,5,,,,,,,,,425.2693806999996,425.77006900000015,426.48776439999983,None,425.7865959999999,426.4711620999997,426.98833099999956,None,right,1,0.24750049999965995,426.98833099999956,None,None,425.7865959999999,426.9716405999998,0.511737699999685,0.5950735999995231,1.7133001000001968,1.796787299999778,,,,,,syed_3,001,2020_Feb_07_1550,posner,3.1.5,59.94883966007837,
-0.5,0,1,left,1,3,1,0,1,0,9,6,78,2,,,,,,,,,427.25644639999973,427.7559861999998,428.47353829999975,None,427.7726709999997,428.4571735999998,428.97442929999943,None,left,1,0.33352279999962775,428.97442929999943,None,None,427.7726709999997,428.9578856999997,0.5114441000005172,0.5949713999998494,1.7133300000004965,1.7967672000004313,,,,,,syed_3,001,2020_Feb_07_1550,posner,3.1.5,59.94883966007837,
0.5,180,1,right,2,4,1,0,1,0,9,7,79,7,,,,,,,,,429.32608699999946,429.82551609999973,430.5432747999994,None,429.84237179999946,430.5265566999997,431.0436899999995,None,right,1,0.2800601999997525,431.0436899999995,None,None,429.84237179999946,431.02729249999993,0.5113676000000851,0.5950566999999864,1.7131208000000697,1.7964905999997427,,,,,,syed_3,001,2020_Feb_07_1550,posner,3.1.5,59.94883966007837,
-0.5,0,1,left,1,3,1,0,1,0,10,0,80,2,,,,,,,,,431.3452069999994,431.84483230000023,432.56265989999974,None,431.8616455000001,432.54595059999974,433.0633352999994,None,left,1,0.2204461999999694,433.0633352999994,None,None,431.8616455000001,433.0468547999999,0.5112275999999838,0.59486730000026,1.7132535000000644,1.7965154000003167,,,,,,syed_3,001,2020_Feb_07_1550,posner,3.1.5,59.94883966007837,
0.5,180,1,right,2,4,1,0,1,0,10,1,81,5,,,,,,,,,433.3144087999999,433.8142885999996,434.53225589999965,None,433.8311844,434.51527129999977,435.0328058999994,None,right,1,0.37097650000032445,435.0328058999994,None,None,433.8311844,435.01600659999986,0.5115399999995134,0.5953173999996579,1.713235899999745,1.7967380999998568,,,,,,syed_3,001,2020_Feb_07_1550,posner,3.1.5,59.94883966007837,
-0.5,0,1,left,1,3,1,0,1,0,10,2,82,1,,,,,,,,,435.433994,435.93402739999965,436.6516421999995,None,435.95073559999946,436.63482959999965,437.15238809999937,None,left,1,0.38737419999961276,437.15238809999937,None,None,435.95073559999946,437.13554639999984,0.511666299999888,0.5951501999998072,1.713166700000329,1.7966199000002234,,,,,,syed_3,001,2020_Feb_07_1550,posner,3.1.5,59.94883966007837,
0.5,180,1,right,2,4,1,0,1,0,10,3,83,7,,,,,,,,,437.5701739999995,438.07042829999955,438.7879935000001,None,438.08694509999987,438.7712402999996,439.28876579999996,None,right,1,0.2989880000004632,439.28876579999996,None,None,438.08694509999987,439.27201069999956,0.5118014999998195,0.5951421999998274,1.7133704999996553,1.7967403000002378,,,,,,syed_3,001,2020_Feb_07_1550,posner,3.1.5,59.94883966007837,
-0.5,0,1,left,1,3,1,0,1,0,10,4,84,0,,,,,,,,,439.60674949999975,440.10644709999997,440.8240520999998,None,440.1229873000002,440.8075171999999,441.32460999999967,None,left,1,0.2232587999997122,441.32460999999967,None,None,440.1229873000002,441.30809619999945,0.5116278000004968,0.5950071000006574,1.7132463000007192,1.7967693000000509,,,,,,syed_3,001,2020_Feb_07_1550,posner,3.1.5,59.94883966007837,
0.5,180,1,right,2,4,1,0,1,0,10,5,85,6,,,,,,,,,441.5759042999998,442.07570570000007,442.7933498000002,None,442.09246729999995,442.77693610000006,443.29401959999996,None,right,1,0.2857162000000244,443.29401959999996,None,None,442.09246729999995,443.27754879999975,0.5114843000001201,0.5950862999998208,1.7133038000001761,1.7966750999994474,,,,,,syed_3,001,2020_Feb_07_1550,posner,3.1.5,59.94883966007837,
0.5,0,0,right,1,4,1,0,1,0,10,6,86,3,,,,,,,,,443.5952556000002,444.0950993999995,444.8128466999997,None,444.1118514,444.79605379999975,445.3135129000002,None,right,1,0.3064090000007127,445.3135129000002,None,None,444.1118514,445.29686669999955,0.511395900000025,0.5949236999995264,1.713144199999988,1.7967189000000872,,,,,,syed_3,001,2020_Feb_07_1550,posner,3.1.5,59.94883966007837,
-0.5,180,0,left,2,3,1,0,1,0,10,7,87,4,,,,,,,,,445.6485096999995,446.1482796,446.8656151999994,None,446.1646794999997,446.84910669999954,447.3662562999998,None,left,1,0.36545509999996284,447.3662562999998,None,None,446.1646794999997,447.3497232999998,0.511694499999976,0.5948526000001948,1.7131196000000273,1.7966032000003906,,,,,,syed_3,001,2020_Feb_07_1550,posner,3.1.5,59.94883966007837,
,,,,,,1,0,1,0,,,,,,,,,,,,,,,,,,,,,,,,,,,,,,,,,,447.7509924999995,None,1.609999981155852e-05,0.9955620000000636,syed_3,001,2020_Feb_07_1550,posner,3.1.5,59.94883966007837,
0.5,180,1,right,2,4,2,0,2,0,0,0,0,5,1.2700000297627412e-05,0.09744249999948806,508.76766810000026,None,1.3800000488117803e-05,0.09750799999983428,510.8704176000001,None,511.14156920000005,511.6381025999999,512.3557381,None,511.6548518999998,512.3393114999999,512.8564759000001,None,right,1,0.2430315999999948,512.8564759000001,None,None,511.6548518999998,512.8398326999995,0.5063689000007798,0.5898809000000256,1.708084200000485,1.7915735000005952,,,,,,syed_3,001,2020_Feb_07_1550,posner,3.1.5,59.94883966007837,
0.5,180,1,right,2,4,2,0,2,0,0,1,1,7,,,,,,,,,513.1236879999997,513.6240878999997,514.3419130000002,None,513.6408639000001,514.3251307999999,514.8425525000002,None,right,1,0.31282259999989037,514.8425525000002,None,None,513.6408639000001,514.8257622000001,0.5115365999999995,0.5951828999995996,1.7131922999997187,1.7967602999997325,,,,,,syed_3,001,2020_Feb_07_1550,posner,3.1.5,59.94883966007837,
-0.5,0,1,left,1,3,2,0,2,0,0,2,2,1,,,,,,,,,515.1778630999997,515.6770287999998,516.3946740000001,None,515.6935125999998,516.3780983999995,516.8954910000002,None,left,1,0.3078601000006529,516.8954910000002,None,None,515.6935125999998,516.8786036000001,0.5114450000000943,0.594717999999375,1.7130067999996754,1.7966040999999677,,,,,,syed_3,001,2020_Feb_07_1550,posner,3.1.5,59.94883966007837,
-0.5,180,0,left,2,3,2,0,2,0,0,3,3,4,,,,,,,,,517.2300085999996,517.7299714999999,518.4474582000003,None,517.7466058999998,518.4308775999998,518.9481322000001,None,left,1,0.3675632000004043,518.9481322000001,None,None,517.7466058999998,518.9315280999999,0.5118118999998842,0.5952101000002585,1.7133491000004142,1.7965967000000092,,,,,,syed_3,001,2020_Feb_07_1550,posner,3.1.5,59.94883966007837,
-0.5,0,1,left,1,3,2,0,2,0,0,4,4,2,,,,,,,,,519.3327607000001,519.8327392000001,520.5502840999998,None,519.8494900999995,520.5335759,521.0512057999995,None,left,1,0.4562817999994877,521.0512057999995,None,None,519.8494900999995,521.0342798000001,0.5117568000005122,0.5951039000001401,1.7132829000001948,1.796838000000207,,,,,,syed_3,001,2020_Feb_07_1550,posner,3.1.5,59.94883966007837,
0.5,180,1,right,2,4,2,0,2,0,0,5,5,6,,,,,,,,,521.5359309999994,522.035734,522.7532875999996,None,522.0525148999996,522.7367831000001,523.2540718999999,521.5359309999994,right,1,0.26134259999980713,523.2540718999999,None,None,522.0525148999996,523.2375764999997,0.5116738999995505,0.595140899999933,1.7134984999993321,1.7968842000000222,,,,,,syed_3,001,2020_Feb_07_1550,posner,3.1.5,59.94883966007837,
0.5,0,0,right,1,4,2,0,2,0,0,6,6,3,,,,,,,,,523.5387193999995,524.0386800999995,524.7561262999998,None,524.0551938999997,524.7395796999999,525.2569315999999,None,right,1,0.30660900000020774,525.2569315999999,None,None,524.0551938999997,525.2403868000001,0.5116778000001432,0.5948345999995581,1.71336699999938,1.7966271999994206,,,,,,syed_3,001,2020_Feb_07_1550,posner,3.1.5,59.94883966007837,
-0.5,0,1,left,1,3,2,0,2,0,0,7,7,0,,,,,,,,,525.5914756000002,526.0913505999997,526.8091944999996,None,526.1081392999995,526.7922250000001,527.3096226999996,None,left,1,0.24574240000038117,527.3096226999996,None,None,526.1081392999995,527.2930121999998,0.5114562999997361,0.594732099999419,1.7130948999993052,1.796465299999909,,,,,,syed_3,001,2020_Feb_07_1550,posner,3.1.5,59.94883966007837,
-0.5,0,1,left,1,3,2,0,2,0,1,0,8,0,,,,,,,,,527.5775142000002,528.0774388,528.7950260999996,None,528.0939974000003,528.7783258999998,529.2956365999999,None,left,1,0.2838789999996152,529.2956365999999,None,None,528.0939974000003,529.279082,0.5120076000002882,0.595496699999785,1.713625200000024,1.7971490999998423,,,,,,syed_3,001,2020_Feb_07_1550,posner,3.1.5,59.94883966007837,
0.5,180,1,right,2,4,2,0,2,0,1,1,9,7,,,,,,,,,529.5972548999998,530.0969616000002,530.8144050999999,None,530.1133654999994,530.7978942,531.3151264999997,None,right,1,0.40822899999966467,531.3151264999997,None,None,530.1133654999994,531.2984254000003,0.5115593999998964,0.5950239999992846,1.713006399999358,1.7965399999993679,,,,,,syed_3,001,2020_Feb_07_1550,posner,3.1.5,59.94883966007837,
0.5,0,0,right,1,4,2,0,2,0,1,2,10,3,,,,,,,,,531.7500282999999,532.2500774,532.9674751000002,None,532.2666608,532.9508965999994,533.4681759999994,None,right,1,0.33518180000010034,533.4681759999994,None,None,532.2666608,533.4514861999996,0.5117774000000281,0.594885599999543,1.713175500000034,1.7964569999994637,,,,,,syed_3,001,2020_Feb_07_1550,posner,3.1.5,59.94883966007837,
-0.5,0,1,left,1,3,2,0,2,0,1,3,11,1,,,,,,,,,533.8196403000002,534.3194570999995,535.0370382000001,None,534.3358706999998,535.0204767999994,535.5377005,None,right,0,0.31370220000007976,535.5377005,None,None,534.3358706999998,535.5211459000002,0.5117338000000018,0.594597000000249,1.7133990000002086,1.7967125999994096,,,,,,syed_3,001,2020_Feb_07_1550,posner,3.1.5,59.94883966007837,
-0.5,180,0,left,2,3,2,0,2,0,1,4,12,4,,,,,,,,,535.8722214,536.3721967000001,537.0897967000001,None,536.3888170999999,537.0732742999999,537.5905516000003,538.0743320000001,None,0,,537.5905516000003,None,None,536.3888170999999,537.5736697000002,0.511847900000248,0.5952415000001565,1.713311700000304,1.7970091000006505,,,,,,syed_3,001,2020_Feb_07_1550,posner,3.1.5,59.94883966007837,
0.5,180,1,right,2,4,2,0,2,0,1,5,13,6,,,,,,,,,538.5750693999998,539.0757627000003,539.7934341999999,538.5750693999998,539.0925707999995,539.7770567999996,540.2941118999997,None,right,1,0.30925290000050154,540.2941118999997,None,None,539.0925707999995,540.2776591000002,0.5135149999996429,0.5971091999999771,1.715386399999261,1.7987822999994023,,,,,,syed_3,001,2020_Feb_07_1550,posner,3.1.5,59.94883966007837,
-0.5,0,1,left,1,3,2,0,2,0,1,6,14,2,,,,,,,,,540.6287111000001,541.1288076000001,541.8462699000002,None,541.1453157999995,541.8298574999999,542.3471171000001,None,left,1,0.3842440999997052,542.3471171000001,None,None,541.1453157999995,542.3303475000002,0.5116330000000744,0.5950594000005367,1.7131615000007514,1.796567800000048,,,,,,syed_3,001,2020_Feb_07_1550,posner,3.1.5,59.94883966007837,
0.5,180,1,right,2,4,2,0,2,0,1,7,15,5,,,,,,,,,542.7488160000003,543.2487577000002,543.9658730000001,None,543.2647474999994,543.9492509000002,544.4666361999998,None,right,1,0.24063419999947655,544.4666361999998,None,None,543.2647474999994,544.4497943999995,0.5119755999994595,0.5949645000000601,1.7129995999994208,1.7963984999996683,,,,,,syed_3,001,2020_Feb_07_1550,posner,3.1.5,59.94883966007837,
0.5,0,0,right,1,4,2,0,2,0,2,0,16,3,,,,,,,,,544.7342141999998,545.2341496999998,545.952045,None,545.2511005999995,545.9352233,546.452706,None,right,1,0.4466763999998875,546.452706,None,None,545.2511005999995,546.4359536000002,0.511683599999742,0.59551300000021,1.7134680999997727,1.7969416999994792,,,,,,syed_3,001,2020_Feb_07_1550,posner,3.1.5,59.94883966007837,
0.5,180,1,right,2,4,2,0,2,0,2,1,17,6,,,,,,,,,546.9203336999999,547.4208478999999,548.1385107999995,None,547.4373495999998,548.1215603,548.6391410999995,None,right,1,0.3483152999997401,548.6391410999995,None,None,547.4373495999998,548.6223493999996,0.5123026000001119,0.5955501000007644,1.7137891000002128,1.7972288000000844,,,,,,syed_3,001,2020_Feb_07_1550,posner,3.1.5,59.94883966007837,
0.5,180,1,right,2,4,2,0,2,0,2,2,18,7,,,,,,,,,549.0077449999999,549.5069028999997,550.2244843999997,None,549.5234402999995,550.2079176999996,550.7251316000002,None,right,1,0.35818269999981567,550.7251316000002,None,None,549.5234402999995,550.7086279999994,0.5113552000002528,0.5948491999997714,1.7130637000000206,1.7965058999998291,,,,,,syed_3,001,2020_Feb_07_1550,posner,3.1.5,59.94883966007837,
-0.5,180,0,left,2,3,2,0,2,0,2,3,19,4,,,,,,,,,551.1100365000002,551.6098838999997,552.3273990999996,None,551.6265409999996,552.3107872999999,552.8280784999997,None,left,1,0.3191630000001169,552.8280784999997,None,None,551.6265409999996,552.8114496999997,0.5113567999997031,0.5946893000000273,1.7129104999994524,1.7962471999999252,,,,,,syed_3,001,2020_Feb_07_1550,posner,3.1.5,59.94883966007837,
0.5,180,1,right,2,4,2,0,2,0,2,4,20,5,,,,,,,,,553.1793264999997,553.6793312,554.3970609999997,None,553.6959422,554.3803682999996,554.8975384999994,555.3817331,right,1,0.537799200000336,554.8975384999994,None,None,553.6959422,554.8811248000002,0.5116234000006443,0.595075000000179,1.7133920000005674,1.7966043000005811,,,,,,syed_3,001,2020_Feb_07_1550,posner,3.1.5,59.94883966007837,
-0.5,0,1,left,1,3,2,0,2,0,2,5,21,2,,,,,,,,,555.4659006000002,555.9656950999997,556.6835322999996,None,555.9824386999999,556.6666968,557.1840044999999,None,left,1,0.28340420000040467,557.1840044999999,None,None,555.9824386999999,557.1675622000002,0.5115717000007862,0.5950962000006257,1.7134045000002516,1.7967444000005344,,,,,,syed_3,001,2020_Feb_07_1550,posner,3.1.5,59.94883966007837,
-0.5,0,1,left,1,3,2,0,2,0,2,6,22,0,,,,,,,,,557.4856338999998,557.9853007000002,558.7028068,None,558.0019406000001,558.6861849999996,559.2034052999998,None,left,1,0.407859400000234,559.2034052999998,None,None,558.0019406000001,559.1869216999994,0.5116398000000117,0.5950115000005098,1.713235000000168,1.79679170000054,,,,,,syed_3,001,2020_Feb_07_1550,posner,3.1.5,59.94883966007837,
-0.5,0,1,left,1,3,2,0,2,0,2,7,23,1,,,,,,,,,559.6383378,560.1381733999997,560.8557204999997,None,560.1548421999996,560.8392161000002,561.3565680000002,None,left,1,0.2947967999998582,561.3565680000002,None,None,560.1548421999996,561.3398271999995,0.5115279000001465,0.5951287999996566,1.7131617999993978,1.796485599999869,,,,,,syed_3,001,2020_Feb_07_1550,posner,3.1.5,59.94883966007837,
-0.5,0,1,left,1,3,2,0,2,0,3,0,24,0,,,,,,,,,561.6746542000001,562.1742484999995,562.8920595,None,562.1910803999999,562.8752789,563.3926019999999,None,left,1,0.33080579999932525,563.3926019999999,None,None,562.1910803999999,563.3760743000003,0.5114639000003081,0.5951783000000432,1.713277900000321,1.7966403999998874,,,,,,syed_3,001,2020_Feb_07_1550,posner,3.1.5,59.94883966007837,
-0.5,180,0,left,2,3,2,0,2,0,3,1,25,4,,,,,,,,,563.7436154999996,564.2437224999994,564.9616255000001,None,564.2607171999998,564.9446929999995,565.4623624999995,None,left,1,0.292958500000168,565.4623624999995,None,None,564.2607171999998,565.4454055999995,0.5119764999999461,0.5955641000000469,1.713636000000406,1.797124700000495,,,,,,syed_3,001,2020_Feb_07_1550,posner,3.1.5,59.94883966007837,
0.5,180,1,right,2,4,2,0,2,0,3,2,26,5,,,,,,,,,565.7801307999998,566.2801795999994,566.9977996999996,None,566.2966279000002,566.9809753,567.4983524999998,None,right,1,0.3608838999998625,567.4983524999998,None,None,566.2966279000002,567.4815705999999,0.5120305000000371,0.5950925000006464,1.7134118000003582,1.79682320000029,,,,,,syed_3,001,2020_Feb_07_1550,posner,3.1.5,59.94883966007837,
0.5,180,1,right,2,4,2,0,2,0,3,3,27,7,,,,,,,,,567.8832739999998,568.3828299999996,569.1005745000002,None,568.3995237999998,569.0839362999996,569.6011710000002,None,right,1,0.41798670000025595,569.6011710000002,None,None,568.3995237999998,569.5843875,0.5115292000000409,0.5948472999998557,1.713067300000148,1.7967084000001705,,,,,,syed_3,001,2020_Feb_07_1550,posner,3.1.5,59.94883966007837,
0.5,180,1,right,2,4,2,0,2,0,3,4,28,6,,,,,,,,,570.0360131999996,570.5357610000001,571.2532781,None,570.5525822999998,571.2367361999995,571.7541690999997,None,right,1,0.31305559999964316,571.7541690999997,None,None,570.5525822999998,571.7375235,0.5116361000000325,0.5951983000004475,1.7133764999998675,1.7967638999998599,,,,,,syed_3,001,2020_Feb_07_1550,posner,3.1.5,59.94883966007837,
-0.5,0,1,left,1,3,2,0,2,0,3,5,29,1,,,,,,,,,572.0886997999996,572.5886565999999,573.3063591999999,None,572.6052670999998,573.2897047999995,573.8070431999995,None,left,1,0.3482092999993256,573.8070431999995,None,None,572.6052670999998,573.7904598999994,0.5118026999998619,0.5951770000001488,1.7135805999996592,1.796829500000058,,,,,,syed_3,001,2020_Feb_07_1550,posner,3.1.5,59.94883966007837,
-0.5,0,1,left,1,3,2,0,2,0,3,6,30,2,,,,,,,,,574.1751917000001,574.6748581000002,575.3924521999998,None,574.6917106000001,575.3758535999996,575.8931446999995,None,left,1,0.36619189999964874,575.8931446999995,None,None,574.6917106000001,575.8766637999997,0.5113313000001654,0.5949205000006259,1.7131132000004072,1.796456500000204,,,,,,syed_3,001,2020_Feb_07_1550,posner,3.1.5,59.94883966007837,
0.5,0,0,right,1,4,2,0,2,0,3,7,31,3,,,,,,,,,576.2778979999994,576.7778263,577.4953869999999,None,576.7943804999995,577.4786423999994,577.9960710999994,None,left,0,0.15910650000023452,577.9960710999994,None,None,576.7943804999995,577.9794090999994,0.512102099999538,0.5955614999993486,1.713667600000008,1.7969193999997515,,,,,,syed_3,001,2020_Feb_07_1550,posner,3.1.5,59.94883966007837,
-0.5,0,1,left,1,3,2,0,2,0,4,0,32,2,,,,,,,,,578.1805997000001,578.6805722999998,579.3979721999995,None,578.6971500999998,579.3812909999997,579.8991515999996,580.3827703999996,right,0,0.47215200000027835,579.8991515999996,None,None,578.6971500999998,579.8818818,0.5118431999999302,0.5949430000000575,1.7131414000004952,1.796726900000067,,,,,,syed_3,001,2020_Feb_07_1550,posner,3.1.5,59.94883966007837,
0.5,0,0,right,1,4,2,0,2,0,4,1,33,3,,,,,,,,,580.4005012999996,580.9002036000002,581.6178130999997,None,580.9167652999995,581.6010403,582.1186063999994,None,right,1,0.38056000000051426,582.1186063999994,None,None,580.9167652999995,582.1019753,0.5115342999997665,0.5947339000003922,1.7132861999998568,1.7964244000004328,,,,,,syed_3,001,2020_Feb_07_1550,posner,3.1.5,59.94883966007837,
0.5,180,1,right,2,4,2,0,2,0,4,2,34,5,,,,,,,,,582.5194212999995,583.0197853,583.7374592999995,None,583.0362999999998,583.7205108999997,584.2380537999998,None,right,1,0.26121300000068004,584.2380537999998,None,None,583.0362999999998,584.2214464999997,0.5120881000002555,0.5955201999995552,1.7137302000001,1.79725260000032,,,,,,syed_3,001,2020_Feb_07_1550,posner,3.1.5,59.94883966007837,
-0.5,0,1,left,1,3,2,0,2,0,4,3,35,1,,,,,,,,,584.5229823,585.0225007999998,585.7401880999996,None,585.0390379,585.7233291000002,586.2408673,None,left,1,0.4102781999999934,586.2408673,None,None,585.0390379,586.2240019000001,0.5114137000000483,0.5948594999999841,1.7129021999999168,1.7966927999996187,,,,,,syed_3,001,2020_Feb_07_1550,posner,3.1.5,59.94883966007837,
-0.5,180,0,left,2,3,2,0,2,0,4,4,36,4,,,,,,,,,586.6758092,587.1752501000001,587.8927967999998,None,587.1920206999994,587.8763588000002,588.3934752999994,None,left,1,0.3696706999999151,588.3934752999994,None,None,587.1920206999994,588.3770367999996,0.5114075999999841,0.5949654000005467,1.7131761000000552,1.7966842000005272,,,,,,syed_3,001,2020_Feb_07_1550,posner,3.1.5,59.94883966007837,
-0.5,0,1,left,1,3,2,0,2,0,4,5,37,0,,,,,,,,,588.7950959999998,589.2949258999997,590.0127086000002,None,589.3116427999994,589.9959208,590.5133240999994,590.9974173999999,left,1,0.497927599999457,590.5133240999994,None,None,589.3116427999994,590.4965777999996,0.511518199999955,0.5949525000005451,1.7131726000006893,1.7966733000002932,,,,,,syed_3,001,2020_Feb_07_1550,posner,3.1.5,59.94883966007837,
0.5,180,1,right,2,4,2,0,2,0,4,6,38,6,,,,,,,,,591.0314576999999,591.5313565999995,592.2494373,None,591.5480815000001,592.232301,592.7501402999997,None,right,1,0.32501529999990453,592.7501402999997,None,None,591.5480815000001,592.7329223999996,0.5117374999999811,0.5951202000005651,1.7132768999999826,1.7968220000002475,,,,,,syed_3,001,2020_Feb_07_1550,posner,3.1.5,59.94883966007837,
0.5,180,1,right,2,4,2,0,2,0,4,7,39,7,,,,,,,,,593.1011151000002,593.6010299999998,594.3186878999995,None,593.6174808999995,594.3017917999996,594.8188150999995,None,right,1,0.2962908999998035,594.8188150999995,None,None,593.6174808999995,594.8018990999999,0.5117899000006219,0.5951291999999739,1.7126333000005616,1.795949300000757,,,,,,syed_3,001,2020_Feb_07_1550,posner,3.1.5,59.94883966007837,
-0.5,0,1,left,1,3,2,0,2,0,5,0,40,0,,,,,,,,,595.1377765999996,595.6371144999994,596.3547093999996,None,595.6536651999995,596.3380127999999,596.8553561999997,None,left,1,0.38772439999956987,596.8553561999997,None,None,595.6536651999995,596.8387131,0.5113919999994323,0.5948803999999654,1.7129817999993975,1.7963817999998355,,,,,,syed_3,001,2020_Feb_07_1550,posner,3.1.5,59.94883966007837,
0.5,180,1,right,2,4,2,0,2,0,5,1,41,7,,,,,,,,,597.2731235000001,597.7732309000003,598.4910556999994,None,597.7902007000002,598.4740719000001,598.9916370999999,None,right,1,0.31563870000081806,598.9916370999999,None,None,597.7902007000002,598.9748804000001,0.5115653000002567,0.5952906000002258,1.7131954000005862,1.79679490000035,,,,,,syed_3,001,2020_Feb_07_1550,posner,3.1.5,59.94883966007837,
-0.5,0,1,left,1,3,2,0,2,0,5,2,42,1,,,,,,,,,599.3265993999994,599.8260982000002,600.5436634999996,None,599.8427888999995,600.5272353,601.0442889999995,601.5285103999995,None,0,,601.0442889999995,None,None,599.8427888999995,601.0278195999999,0.5114105999991807,0.5950957999993989,1.7131090999992011,1.7965298999997685,,,,,,syed_3,001,2020_Feb_07_1550,posner,3.1.5,59.94883966007837,
0.5,180,1,right,2,4,2,0,2,0,5,3,43,6,,,,,,,,,602.0292614,602.5299004999997,603.247789,602.0292614,602.5464941999999,603.2307928999999,603.7484211999999,None,right,1,0.3106030999997529,603.7484211999999,None,None,602.5464941999999,603.7315747000002,0.5136104000002888,0.5968161000000691,1.7152619999997114,1.798558200000116,,,,,,syed_3,001,2020_Feb_07_1550,posner,3.1.5,59.94883966007837,
-0.5,0,1,left,1,3,2,0,2,0,5,4,44,2,,,,,,,,,604.0828247,604.5827574999994,605.3002491999996,None,604.5994049000001,605.2834290000001,605.8011509999997,None,left,1,0.4019401999994443,605.8011509999997,None,None,604.5994049000001,605.7841948999994,0.5116789000003337,0.5951881000000867,1.7131024999998772,1.7967859999998836,,,,,,syed_3,001,2020_Feb_07_1550,posner,3.1.5,59.94883966007837,
0.5,180,1,right,2,4,2,0,2,0,5,5,45,5,,,,,,,,,606.2189489000002,606.7189388999996,607.4365749999997,None,606.7356168999995,607.4197690999999,607.9373484999996,None,right,1,0.3938035999999556,607.9373484999996,None,None,606.7356168999995,607.9206335999997,0.5115147999995315,0.5950893999997788,1.7131932000002053,1.7965329999997266,,,,,,syed_3,001,2020_Feb_07_1550,posner,3.1.5,59.94883966007837,
0.5,0,0,right,1,4,2,0,2,0,5,6,46,3,,,,,,,,,608.3552992999994,608.8552904999997,609.5728423,None,608.8719661999994,609.5561350999997,610.0734407,None,right,1,0.4337888000000021,610.0734407,None,None,608.8719661999994,610.0568766999995,0.5116618000001836,0.5951335999998264,1.7132275000003574,1.7967738000006648,,,,,,syed_3,001,2020_Feb_07_1550,posner,3.1.5,59.94883966007837,
-0.5,180,0,left,2,3,2,0,2,0,5,7,47,4,,,,,,,,,610.5255126000002,611.0249318999995,611.7427112999994,None,611.0416705999996,611.7258058999996,612.243246,None,left,1,0.3598356000002241,612.243246,None,None,611.0416705999996,612.2264698999998,0.5115534999995361,0.5950136999999813,1.7133129999992889,1.7965196999994077,,,,,,syed_3,001,2020_Feb_07_1550,posner,3.1.5,59.94883966007837,
-0.5,0,1,left,1,3,2,0,2,0,6,0,48,0,,,,,,,,,612.6281945999999,613.1277948999996,613.8453141,None,613.1444118,613.8288672999997,614.3460528999994,None,left,1,0.36903240000083315,614.3460528999994,None,None,613.1444118,614.3295393999997,0.5116192000004958,0.5949955000005502,1.713346100000308,1.796740700000555,,,,,,syed_3,001,2020_Feb_07_1550,posner,3.1.5,59.94883966007837,
-0.5,0,1,left,1,3,2,0,2,0,6,1,49,1,,,,,,,,,614.7306981000002,615.2307953,615.9483736000002,None,615.2477134000001,615.9316444999995,616.4491281,None,left,1,0.4018912999999884,616.4491281,None,None,615.2477134000001,616.4321958,0.5119260000001304,0.595120500000121,1.7133122999994157,1.7969347999996899,,,,,,syed_3,001,2020_Feb_07_1550,posner,3.1.5,59.94883966007837,
0.5,0,0,right,1,4,2,0,2,0,6,2,50,3,,,,,,,,,616.8674470999995,617.3669491,618.0844253999994,None,617.3835846000002,618.0678655000002,618.5851480000001,None,right,1,0.2978952000003119,618.5851480000001,None,None,617.3835846000002,618.5686761999996,0.5115601999996215,0.5949196999999913,1.7132484999992812,1.796474899999339,,,,,,syed_3,001,2020_Feb_07_1550,posner,3.1.5,59.94883966007837,
0.5,180,1,right,2,4,2,0,2,0,6,3,51,5,,,,,,,,,618.9037030999998,619.4029602,620.1206573,None,619.4197925999997,620.1039370999997,620.6215302,None,right,1,0.42946670000037557,620.6215302,None,None,619.4197925999997,620.6047073999998,0.5110604000001331,0.5948861000006218,1.7127767000001768,1.7962609000005614,,,,,,syed_3,001,2020_Feb_07_1550,posner,3.1.5,59.94883966007837,
-0.5,0,1,left,1,3,2,0,2,0,6,4,52,2,,,,,,,,,621.0731629000002,621.5726984000003,622.2903980000001,None,621.5894895000001,622.2736494000001,622.7909776999995,None,left,1,0.3640621000004103,622.7909776999995,None,None,621.5894895000001,622.7742647999994,0.5116797000000588,0.5951254000001427,1.7132106999997632,1.7967988999998852,,,,,,syed_3,001,2020_Feb_07_1550,posner,3.1.5,59.94883966007837,
-0.5,180,0,left,2,3,2,0,2,0,6,5,53,4,,,,,,,,,623.1764310999997,623.6755154000002,624.3932804999995,None,623.6922183999995,624.3764294000002,624.8937532999998,None,left,1,0.35739879999982804,624.8937532999998,None,None,623.6922183999995,624.8771859999997,0.511062700000366,0.5946137999999337,1.7127174999995987,1.7962991000003967,,,,,,syed_3,001,2020_Feb_07_1550,posner,3.1.5,59.94883966007837,
0.5,180,1,right,2,4,2,0,2,0,6,6,54,6,,,,,,,,,625.2788421999994,625.7784768000001,626.4961373999995,None,625.7951051,626.4795302000002,626.9969587999994,None,right,1,0.35804949999965174,626.9969587999994,None,None,625.7951051,626.9802264999998,0.5113922999998977,0.5947142000004533,1.7131248000005144,1.7963089000004402,,,,,,syed_3,001,2020_Feb_07_1550,posner,3.1.5,59.94883966007837,
0.5,180,1,right,2,4,2,0,2,0,6,7,55,7,,,,,,,,,627.3816273000002,627.8813287000003,628.5991669999994,None,627.8981465999996,628.5822541999996,629.0999090999994,None,right,1,0.3351839999995718,629.0999090999994,None,None,627.8981465999996,629.0829717999995,0.5115839000000051,0.5950625999994372,1.7132120999995095,1.796750799999245,,,,,,syed_3,001,2020_Feb_07_1550,posner,3.1.5,59.94883966007837,
-0.5,0,1,left,1,3,2,0,2,0,7,0,56,0,,,,,,,,,629.4509747000002,629.9510129,630.6684374999995,None,629.9676896999999,630.6519117999997,631.1693212,631.6530895999995,left,1,0.5459602999999333,631.1693212,None,None,629.9676896999999,631.1526597000002,0.5118723999994472,0.5950820999996722,1.713503099999798,1.796759299999394,,,,,,syed_3,001,2020_Feb_07_1550,posner,3.1.5,59.94883966007837,
0.5,180,1,right,2,4,2,0,2,0,7,1,57,7,,,,,,,,,631.7378797000001,632.2374318000002,632.9550426999995,None,632.2541087,632.9383633999996,633.4558074999995,None,right,1,0.4272179999998116,633.4558074999995,None,None,632.2541087,633.4389528000002,0.5112435999999434,0.5947225999998409,1.712749399999666,1.7962406999995437,,,,,,syed_3,001,2020_Feb_07_1550,posner,3.1.5,59.94883966007837,
0.5,0,0,right,1,4,2,0,2,0,7,2,58,3,,,,,,,,,633.9075021999997,634.4071986999998,635.1245958,None,634.4235712999998,635.1080227000002,635.6254400999997,None,right,1,0.43362189999970724,635.6254400999997,None,None,634.4235712999998,635.6087928999996,0.5118240000001606,0.5952234000005774,1.7133999000006952,1.7966820999999982,,,,,,syed_3,001,2020_Feb_07_1550,posner,3.1.5,59.94883966007837,
-0.5,0,1,left,1,3,2,0,2,0,7,3,59,1,,,,,,,,,636.0771894,636.5768808000003,637.2942782999999,None,636.5932177999994,637.2776959000003,637.7950260999996,None,left,1,0.3599227000004248,637.7950260999996,None,None,636.5932177999994,637.7782858999999,0.5116201999999248,0.5948304000003191,1.7130117999995491,1.7966342999998233,,,,,,syed_3,001,2020_Feb_07_1550,posner,3.1.5,59.94883966007837,
-0.5,0,1,left,1,3,2,0,2,0,7,4,60,2,,,,,,,,,638.1798308999996,638.6795661999995,639.3972714000001,None,638.6963448999995,639.3807962999999,639.8978824999995,None,left,1,0.4652163999999175,639.8978824999995,None,None,638.6963448999995,639.8813376999997,0.5115485999995144,0.5948829999997542,1.7132967999996254,1.796565599999667,,,,,,syed_3,001,2020_Feb_07_1550,posner,3.1.5,59.94883966007837,
0.5,180,1,right,2,4,2,0,2,0,7,5,61,6,,,,,,,,,640.3831638000001,640.8826440000003,641.6003212999995,None,640.8992589,641.5835646999994,642.1010037999995,640.3831638000001,right,1,0.29396379999980127,642.1010037999995,None,None,640.8992589,642.0841739999996,0.5114696999999069,0.5949805000000197,1.7129863999998634,1.7965113000000201,,,,,,syed_3,001,2020_Feb_07_1550,posner,3.1.5,59.94883966007837,
0.5,180,1,right,2,4,2,0,2,0,7,6,62,5,,,,,,,,,642.4189513000001,642.9188948999999,643.6364948,None,642.9354853999994,643.6197158999994,644.1371792,None,right,1,0.4017812000001868,644.1371792,None,None,642.9354853999994,644.1203888,0.5115851999998995,0.5948674999999639,1.7130689000005077,1.7965217000000848,,,,,,syed_3,001,2020_Feb_07_1550,posner,3.1.5,59.94883966007837,
-0.5,180,0,left,2,3,2,0,2,0,7,7,63,4,,,,,,,,,644.5553799999998,645.0551624999998,645.7725654999995,None,645.0717905000001,645.7561028999999,646.2732680999998,None,left,1,0.2976736999999048,646.2732680999998,None,None,645.0717905000001,646.2566892999994,0.511837099999866,0.595374699999411,1.7133414999998422,1.7966139999998632,,,,,,syed_3,001,2020_Feb_07_1550,posner,3.1.5,59.94883966007837,
0.5,180,1,right,2,4,2,0,2,0,8,0,64,5,,,,,,,,,646.5914418000002,647.0911712999996,647.8088005999998,None,647.1079433999994,647.7922354000002,648.3095882999996,None,right,1,0.39751560000058817,648.3095882999996,None,None,647.1079433999994,648.2928391999994,0.5115793999993912,0.5949190999999701,1.713230499999554,1.79652889999943,,,,,,syed_3,001,2020_Feb_07_1550,posner,3.1.5,59.94883966007837,
0.5,0,0,right,1,4,2,0,2,0,8,1,65,3,,,,,,,,,648.7280884000002,649.2274644999998,649.9450428,None,649.2440172999995,649.9284435999998,650.4457050999999,None,right,1,0.3173095000001922,650.4457050999999,None,None,649.2440172999995,650.4290203999999,0.5112241000006179,0.5945856000007552,1.712756800000534,1.7962624000001597,,,,,,syed_3,001,2020_Feb_07_1550,posner,3.1.5,59.94883966007837,
-0.5,0,1,left,1,3,2,0,2,0,8,2,66,0,,,,,,,,,650.7801988000001,651.2803478999995,651.9978862999997,None,651.2970987999997,651.9811443999997,652.4986210999996,None,left,1,0.4323856999999407,652.4986210999996,None,None,651.2970987999997,652.48182,0.5119223000001512,0.5950861999999688,1.7133806000001641,1.796845900000335,,,,,,syed_3,001,2020_Feb_07_1550,posner,3.1.5,59.94883966007837,
-0.5,0,1,left,1,3,2,0,2,0,8,3,67,1,,,,,,,,,652.9502240000002,653.4500229999994,654.1676883,None,653.4664788,654.1508984000002,654.6681922999996,None,left,1,0.3586498999993637,654.6681922999996,None,None,653.4664788,654.6516173,0.5115259999993214,0.5947444999992513,1.7131020999995599,1.796366499999749,,,,,,syed_3,001,2020_Feb_07_1550,posner,3.1.5,59.94883966007837,
0.5,180,1,right,2,4,2,0,2,0,8,4,68,6,,,,,,,,,655.0524014000002,655.5528339000002,656.2705040999999,None,655.5693634999998,656.2537285999997,656.7712520999994,None,right,1,0.26367239999945014,656.7712520999994,None,None,655.5693634999998,656.7544800999995,0.5117159999999785,0.5951061000005211,1.7133472000004986,1.7966196000006676,,,,,,syed_3,001,2020_Feb_07_1550,posner,3.1.5,59.94883966007837,
-0.5,180,0,left,2,3,2,0,2,0,8,5,69,4,,,,,,,,,657.0555751000002,657.5554928000001,658.2731353999998,None,657.5722584999994,658.2565620999994,658.7738115000002,None,left,1,0.3732135999998718,658.7738115000002,None,None,657.5722584999994,658.7573943999996,0.5116156999993109,0.595069599999988,1.7134987999997975,1.7968172999999297,,,,,,syed_3,001,2020_Feb_07_1550,posner,3.1.5,59.94883966007837,
-0.5,0,1,left,1,3,2,0,2,0,8,6,70,2,,,,,,,,,659.1752166999995,659.6750725000002,660.3926818,None,659.6918279000001,660.3759841000001,660.8933171999997,None,left,1,0.30161860000043816,660.8933171999997,None,None,659.6918279000001,660.8768417000001,0.5114699000005203,0.5950930000008157,1.7132338000001255,1.79666940000061,,,,,,syed_3,001,2020_Feb_07_1550,posner,3.1.5,59.94883966007837,
0.5,180,1,right,2,4,2,0,2,0,8,7,71,7,,,,,,,,,661.2281216000001,661.7279913000002,662.4456011000002,None,661.7448413000002,662.4288437999994,662.9462201999995,None,right,1,0.27279749999979686,662.9462201999995,None,None,661.7448413000002,662.9296733000001,0.5114825000000565,0.5949342000003526,1.713150499999756,1.7965745000001334,,,,,,syed_3,001,2020_Feb_07_1550,posner,3.1.5,59.94883966007837,
0.5,180,1,right,2,4,2,0,2,0,9,0,72,6,,,,,,,,,663.2474715999997,663.7478056999998,664.4649497,None,663.7639776999995,664.4483733999996,664.9656135999994,None,right,1,0.2772945000006075,664.9656135999994,None,None,663.7639776999995,664.9490522999995,0.5122491000001901,0.5951725000004444,1.71347920000062,1.7968710000004648,,,,,,syed_3,001,2020_Feb_07_1550,posner,3.1.5,59.94883966007837,
0.5,180,1,right,2,4,2,0,2,0,9,1,73,5,,,,,,,,,665.2674280000001,665.7669282999996,666.4844077999996,None,665.7834527999994,666.4677732999999,666.9851246999997,None,right,1,0.3297470000006797,666.9851246999997,None,None,665.7834527999994,666.9685136999997,0.5114717999995264,0.5948967999993329,1.713042399999722,1.7964124999998603,,,,,,syed_3,001,2020_Feb_07_1550,posner,3.1.5,59.94883966007837,
