targetX,cueOri,congr,corrAns,pin_cue,pin_target,block.thisRepN,block.thisTrialN,block.thisN,block.thisIndex,posner_task.thisRepN,posner_task.thisTrialN,posner_task.thisN,posner_task.thisIndex,port_start_block.started,port_start_block.stopped,text_2.started,text_2.stopped,p_port.started,p_port.stopped,text.started,text.stopped,fixation_1.started,fixation_1.stopped,fixation_2.started,fixation_2.stopped,cue.started,cue.stopped,target.started,target.stopped,correct_key_resp.keys,correct_key_resp.corr,correct_key_resp.rt,correct_key_resp.started,correct_key_resp.stopped,early_resp.keys,early_resp.started,early_resp.stopped,trigger_cue.started,trigger_cue.stopped,trigger_target.started,trigger_target.stopped,break_text.started,break_text.stopped,end_port.started,end_port.stopped,early_resp.rt,participant,session,date,expName,psychopyVersion,frameRate,
0.5,180,1,right,2,4,0,0,0,0,0,0,0,6,1.8599999748403206e-05,0.09788649999973131,95.32625000000007,None,1.3700000636163168e-05,0.09959660000004078,97.21189520000007,None,97.55230970000048,98.06303889999981,98.76406289999977,None,98.06303889999981,98.74772740000026,99.26495140000043,None,right,1,0.3754351999996288,99.26495140000043,None,None,98.06303889999981,99.24816090000058,0.5032608000001346,0.6034421000003931,1.7050570999999763,1.7885140000007596,,,,,,prithik_2,001,2020_Feb_05_1235,posner,3.1.5,59.964153428812175,
-0.5,0,1,left,1,3,0,0,0,0,0,1,1,2,,,,,,,,,99.66636560000006,100.16605989999971,100.88371000000006,None,100.18272720000004,100.86702820000028,101.38449050000054,None,left,1,0.24790279999979248,101.38449050000054,None,None,100.18272720000004,101.36784510000052,0.5104716000005283,0.5940161999997144,1.7122316000004503,1.7954454999999143,,,,,,prithik_2,001,2020_Feb_05_1235,posner,3.1.5,59.964153428812175,
0.5,180,1,right,2,4,0,0,0,0,0,2,2,5,,,,,,,,,101.65233379999972,102.15214680000008,102.86983130000044,None,102.16894649999995,102.85297150000042,103.37061189999986,None,right,1,0.4216281999997591,103.37061189999986,None,None,102.16894649999995,103.35395330000028,0.5114401000000726,0.5948869000003469,1.7132564000003185,1.7966616000003341,,,,,,prithik_2,001,2020_Feb_05_1235,posner,3.1.5,59.964153428812175,
0.5,0,0,right,1,4,0,0,0,0,0,3,3,3,,,,,,,,,103.8211422000004,104.32177330000013,105.03952389999995,None,104.33860910000021,105.02267889999985,105.54005570000027,None,right,1,0.3242172999998729,105.54005570000027,None,None,104.33860910000021,105.52340980000008,0.5123161999999866,0.5957210000005944,1.7139272000003984,1.7973359000006894,,,,,,prithik_2,001,2020_Feb_05_1235,posner,3.1.5,59.964153428812175,
-0.5,0,1,left,1,3,0,0,0,0,0,4,4,0,,,,,,,,,105.89140889999999,106.3912320999998,107.10914010000033,None,106.40805799999998,107.09209050000027,107.60982070000045,None,left,1,0.27045060000000376,107.60982070000045,None,None,106.40805799999998,107.59299050000027,0.5113970000002155,0.5949491999999736,1.7131360000003042,1.7965774000003876,,,,,,prithik_2,001,2020_Feb_05_1235,posner,3.1.5,59.964153428812175,
0.5,180,1,right,2,4,0,0,0,0,0,5,5,7,,,,,,,,,107.91076640000028,108.41075060000003,109.12847310000052,None,108.42739230000007,109.11162520000016,109.62922500000059,None,right,1,0.26716680000026827,109.62922500000059,None,None,108.42739230000007,109.61225220000051,0.5115544999998747,0.5948875999993106,1.7130406999995103,1.7966216999993776,,,,,,prithik_2,001,2020_Feb_05_1235,posner,3.1.5,59.964153428812175,
-0.5,180,0,left,2,3,0,0,0,0,0,6,6,4,,,,,,,,,109.9131969,110.41337180000028,111.13136630000008,None,110.4300901000006,111.11451500000021,111.63172709999981,None,left,1,0.2727248999999574,111.63172709999981,None,None,110.4300901000006,111.61498940000001,0.511566899999707,0.5950085000004037,1.7131498999997348,1.7966968999999153,,,,,,prithik_2,001,2020_Feb_05_1235,posner,3.1.5,59.964153428812175,
-0.5,0,1,left,1,3,0,0,0,0,0,7,7,1,,,,,,,,,111.93324190000021,112.43282379999982,113.15061570000034,None,112.4496852000002,113.13401140000042,113.65107200000057,None,left,1,0.333289700000023,113.65107200000057,None,None,112.4496852000002,113.63465330000054,0.5114958000003753,0.5950590000002194,1.7133051999999225,1.7966829000006328,,,,,,prithik_2,001,2020_Feb_05_1235,posner,3.1.5,59.964153428812175,
-0.5,0,1,left,1,3,0,0,0,0,1,0,8,2,,,,,,,,,114.00265260000015,114.50236210000003,115.22012080000059,None,114.51926370000001,115.20345760000055,115.72072920000028,None,left,1,0.2476144000002023,115.72072920000028,None,None,114.51926370000001,115.70424700000058,0.5113165000002482,0.5949270999999499,1.7131769999996322,1.7963393999998516,,,,,,prithik_2,001,2020_Feb_05_1235,posner,3.1.5,59.964153428812175,
-0.5,0,1,left,1,3,0,0,0,0,1,1,9,1,,,,,,,,,115.98854910000045,116.48862290000034,117.20623859999978,None,116.50521410000056,117.18954360000043,117.70700780000061,None,left,1,0.2852978000000803,117.70700780000061,None,None,116.50521410000056,117.69029030000002,0.5116571999997177,0.594950499999868,1.7133112000001347,1.7967173999995794,,,,,,prithik_2,001,2020_Feb_05_1235,posner,3.1.5,59.964153428812175,
0.5,180,1,right,2,4,0,0,0,0,1,2,10,7,,,,,,,,,118.00794570000016,118.50798589999977,119.22568709999996,None,118.52460640000027,119.20895829999972,119.72628090000035,None,right,1,0.23397060000024794,119.72628090000035,None,None,118.52460640000027,119.70986210000046,0.5116563000001406,0.5948667000002388,1.7135158000000956,1.7965897000003679,,,,,,prithik_2,001,2020_Feb_05_1235,posner,3.1.5,59.964153428812175,
-0.5,180,0,left,2,3,0,0,0,0,1,3,11,4,,,,,,,,,119.97737130000041,120.47749019999992,121.19493729999976,None,120.49401820000003,121.17843929999981,121.69569270000011,None,left,1,0.2566642000001593,121.69569270000011,None,None,120.49401820000003,121.67892570000004,0.5116092000007484,0.5946907000006831,1.713032800000292,1.7963585000006788,,,,,,prithik_2,001,2020_Feb_05_1235,posner,3.1.5,59.964153428812175,
0.5,180,1,right,2,4,0,0,0,0,1,4,12,6,,,,,,,,,121.97988650000025,122.48004630000014,123.197631,None,122.49675050000042,123.18120590000035,123.69851420000032,None,right,1,0.22979559999930643,123.69851420000032,None,None,122.49675050000042,123.68174379999982,0.511699900000167,0.5953603999996631,1.7133888999996998,1.7969042000004265,,,,,,prithik_2,001,2020_Feb_05_1235,posner,3.1.5,59.964153428812175,
0.5,180,1,right,2,4,0,0,0,0,1,5,13,5,,,,,,,,,123.9495938,124.4495149000004,125.16715569999997,None,124.46610920000057,125.15043359999981,125.66709929999979,None,right,1,0.3250495000002047,125.66709929999979,None,None,124.46610920000057,125.65119909999976,0.5116131000004316,0.5951177000006282,1.7132848000001104,1.7966888000000836,,,,,,prithik_2,001,2020_Feb_05_1235,posner,3.1.5,59.964153428812175,
0.5,0,0,right,1,4,0,0,0,0,1,6,14,3,,,,,,,,,126.01966059999995,126.51910810000027,127.23663680000027,None,126.53562500000044,127.21985349999977,127.73733679999987,None,right,1,0.29483629999958794,127.73733679999987,None,None,126.53562500000044,127.72042890000012,0.5114610000000539,0.5946960000001127,1.712764199999583,1.796447900000203,,,,,,prithik_2,001,2020_Feb_05_1235,posner,3.1.5,59.964153428812175,
-0.5,0,1,left,1,3,0,0,0,0,1,7,15,0,,,,,,,,,128.05495429999974,128.55526499999996,129.2728674,None,128.57170430000042,129.25618120000036,129.77360279999994,None,left,1,0.2186135000001741,129.77360279999994,None,None,128.57170430000042,129.75659489999998,0.5118443999999727,0.5951611999998931,1.7131615999996939,1.7966541000005236,,,,,,prithik_2,001,2020_Feb_05_1235,posner,3.1.5,59.964153428812175,
0.5,180,1,right,2,4,0,0,0,0,2,0,16,7,,,,,,,,,130.00764010000057,130.5079292999999,131.22544050000033,None,130.52449940000042,131.2088934000003,131.72620879999977,None,right,1,0.257954200000313,131.72620879999977,None,None,130.52449940000042,131.70944450000025,0.5118499999998676,0.5950043999991976,1.713347299999441,1.7967089999992822,,,,,,prithik_2,001,2020_Feb_05_1235,posner,3.1.5,59.964153428812175,
-0.5,0,1,left,1,3,0,0,0,0,2,1,17,0,,,,,,,,,132.00996980000036,132.5104669000002,133.2281450999999,None,132.5272205000001,133.21128599999975,133.7288739000005,None,left,1,0.22346509999988484,133.7288739000005,None,None,132.5272205000001,133.71201250000013,0.5120142000005217,0.5956163999999262,1.7135439000003316,1.797306500000559,,,,,,prithik_2,001,2020_Feb_05_1235,posner,3.1.5,59.964153428812175,
-0.5,0,1,left,1,3,0,0,0,0,2,2,18,1,,,,,,,,,133.97979459999988,134.47996550000062,135.19759320000048,None,134.49658790000012,135.18083279999973,135.69830920000004,None,right,0,0.18204299999979412,135.69830920000004,None,None,134.49658790000012,135.68151060000037,0.5114629999998215,0.594720099999904,1.7129908999995678,1.7964588999993794,,,,,,prithik_2,001,2020_Feb_05_1235,posner,3.1.5,59.964153428812175,
-0.5,0,1,left,1,3,0,0,0,0,2,3,19,2,,,,,,,,,135.8993158000003,136.3994131999998,137.1166877000005,None,136.41588730000058,137.10024450000037,137.6176086000005,None,left,1,0.2786971999994421,137.6176086000005,None,None,136.41588730000058,137.60082049999983,0.5116905000004408,0.5948032000005696,1.7130849000004673,1.7966548000003968,,,,,,prithik_2,001,2020_Feb_05_1235,posner,3.1.5,59.964153428812175,
0.5,180,1,right,2,4,0,0,0,0,2,4,20,5,,,,,,,,,137.91819620000024,138.41879530000006,139.13640560000022,None,138.4353511999998,139.11956370000007,139.63693870000043,None,right,1,0.2432874999994965,139.63693870000043,None,None,138.4353511999998,139.62025369999992,0.5124172999994698,0.5956247999993138,1.713859799999227,1.7976763999995455,,,,,,prithik_2,001,2020_Feb_05_1235,posner,3.1.5,59.964153428812175,
0.5,0,0,right,1,4,0,0,0,0,2,5,21,3,,,,,,,,,139.90442150000035,140.4046943000003,141.12241619999986,None,140.4212889999999,141.10561680000046,141.62301130000014,None,right,1,0.30515250000007654,141.62301130000014,None,None,140.4212889999999,141.60637850000057,0.5121110999998564,0.595567000000301,1.7137751999998727,1.7971348999999464,,,,,,prithik_2,001,2020_Feb_05_1235,posner,3.1.5,59.964153428812175,
0.5,180,1,right,2,4,0,0,0,0,2,6,22,6,,,,,,,,,141.95782370000052,142.45745679999982,143.17532240000037,None,142.47448650000024,143.1586242000003,143.67580410000028,None,right,1,0.29240500000014435,143.67580410000028,None,None,142.47448650000024,143.6593401,0.5111613999997644,0.5945948999997199,1.7130207000000155,1.7962449999995442,,,,,,prithik_2,001,2020_Feb_05_1235,posner,3.1.5,59.964153428812175,
-0.5,180,0,left,2,3,0,0,0,0,2,7,23,4,,,,,,,,,143.9936034000002,144.49362670000028,145.21122240000022,None,144.51036850000037,145.19467129999975,145.71188619999975,None,left,1,0.2244551000003412,145.71188619999975,None,None,144.51036850000037,145.69540490000054,0.5116366000002017,0.5949820000005275,1.7133926000005886,1.796788600000582,,,,,,prithik_2,001,2020_Feb_05_1235,posner,3.1.5,59.964153428812175,
-0.5,0,1,left,1,3,0,0,0,0,3,0,24,2,,,,,,,,,145.96324470000036,146.4629692999997,147.18076960000053,None,146.47973509999974,147.16401450000012,147.68141340000057,None,left,1,0.31078189999971073,147.68141340000057,None,None,146.47973509999974,147.6646350000001,0.5115830999993705,0.5950895999994827,1.7132300999992367,1.796787199999926,,,,,,prithik_2,001,2020_Feb_05_1235,posner,3.1.5,59.964153428812175,
0.5,180,1,right,2,4,0,0,0,0,3,1,25,5,,,,,,,,,148.01638319999984,148.51607820000027,149.2335047000006,None,148.5325726000001,149.21687380000003,149.7343818999998,None,left,0,0.25773230000049807,149.7343818999998,None,None,148.5325726000001,149.7175268000001,0.5114970000004178,0.594739600000139,1.7129290000002584,1.7964209000001574,,,,,,prithik_2,001,2020_Feb_05_1235,posner,3.1.5,59.964153428812175,
-0.5,180,0,left,2,3,0,0,0,0,3,2,26,4,,,,,,,,,150.0186074000003,150.51879449999979,151.23617939999986,None,150.53547960000014,151.21978170000057,151.73703670000032,None,left,1,0.23920069999985571,151.73703670000032,None,None,150.53547960000014,151.72015699999974,0.5117888999993738,0.5948812999995425,1.7131374000000505,1.796642299999803,,,,,,prithik_2,001,2020_Feb_05_1235,posner,3.1.5,59.964153428812175,
0.5,180,1,right,2,4,0,0,0,0,3,3,27,7,,,,,,,,,152.0047169999998,152.5048072999998,153.2222026999998,None,152.5214162000002,153.20577779999985,153.72306500000013,None,right,1,0.27726540000003297,153.72306500000013,None,None,152.5214162000002,153.7064777000005,0.511762600000111,0.5949775999997655,1.713415299999724,1.796602499999608,,,,,,prithik_2,001,2020_Feb_05_1235,posner,3.1.5,59.964153428812175,
-0.5,0,1,left,1,3,0,0,0,0,3,4,28,0,,,,,,,,,154.02379670000028,154.52415459999975,155.24153639999986,None,154.54060149999987,155.2250498000003,155.74238310000055,None,left,1,0.24983720000000176,155.74238310000055,None,None,154.54060149999987,155.72578859999976,0.512130299999626,0.5954812999998467,1.7137464999996155,1.7970675999995365,,,,,,prithik_2,001,2020_Feb_05_1235,posner,3.1.5,59.964153428812175,
-0.5,0,1,left,1,3,0,0,0,0,3,5,29,1,,,,,,,,,156.0101340000001,156.51024299999972,157.22795330000008,None,156.52673539999978,157.21097050000026,157.72857829999975,None,left,1,0.29558110000016313,157.72857829999975,None,None,156.52673539999978,157.71175630000016,0.51176039999973,0.5950647999998182,1.7132600999993883,1.796850299999278,,,,,,prithik_2,001,2020_Feb_05_1235,posner,3.1.5,59.964153428812175,
0.5,0,0,right,1,4,0,0,0,0,3,6,30,3,,,,,,,,,158.04637660000026,158.5463061999999,159.26386009999987,None,158.56297199999972,159.2471599999999,159.76475410000057,None,left,0,0.24337830000058602,159.76475410000057,None,None,158.56297199999972,159.74801470000057,0.5113879000000452,0.5948300000000017,1.7130780999996205,1.7964547000001403,,,,,,prithik_2,001,2020_Feb_05_1235,posner,3.1.5,59.964153428812175,
0.5,180,1,right,2,4,0,0,0,0,3,7,31,6,,,,,,,,,160.03234760000032,160.53226369999993,161.25013089999993,None,160.54914269999972,161.23342930000035,161.75063279999995,None,right,1,0.29745619999994233,161.75063279999995,None,None,160.54914269999972,161.73412689999986,0.5116387000007308,0.5952282000007472,1.7134814000000915,1.7966789000001882,,,,,,prithik_2,001,2020_Feb_05_1235,posner,3.1.5,59.964153428812175,
0.5,180,1,right,2,4,0,0,0,0,4,0,32,6,,,,,,,,,162.06857910000053,162.56863669999984,163.28620109999974,None,162.58513240000048,163.26949260000038,163.78682240000035,None,right,1,0.2615529000004244,163.78682240000035,None,None,162.58513240000048,163.77013119999992,0.5116747000001851,0.5948293000001286,1.7131536000006236,1.7967051000005085,,,,,,prithik_2,001,2020_Feb_05_1235,posner,3.1.5,59.964153428812175,
-0.5,180,0,left,2,3,0,0,0,0,4,1,33,4,,,,,,,,,164.07076460000008,164.57115200000044,165.28917249999995,None,164.58790169999975,165.27211859999989,165.7896023000003,None,left,1,0.2906379999994897,165.7896023000003,None,None,164.58790169999975,165.77296089999982,0.512188700000479,0.5957843000005596,1.7139759000001504,1.79751750000014,,,,,,prithik_2,001,2020_Feb_05_1235,posner,3.1.5,59.964153428812175,
0.5,0,0,right,1,4,0,0,0,0,4,2,34,3,,,,,,,,,166.10720270000002,166.60731339999984,167.3250724999998,None,166.62415650000003,167.30844539999998,167.8258053999998,None,right,1,0.23032749999947555,167.8258053999998,None,None,166.62415650000003,167.80910889999996,0.5117277999997896,0.5951904000003196,1.7134981999997763,1.796840500000144,,,,,,prithik_2,001,2020_Feb_05_1235,posner,3.1.5,59.964153428812175,
0.5,180,1,right,2,4,0,0,0,0,4,3,35,7,,,,,,,,,168.07675949999975,168.57675280000058,169.29445130000022,None,168.5933911000002,169.27765199999976,169.7950219000004,None,right,1,0.3890308999998524,169.7950219000004,None,None,168.5933911000002,169.77856650000012,0.5114740999997593,0.5949139999993349,1.7132700999991357,1.796543799999199,,,,,,prithik_2,001,2020_Feb_05_1235,posner,3.1.5,59.964153428812175,
-0.5,0,1,left,1,3,0,0,0,0,4,4,36,1,,,,,,,,,170.21297490000052,170.71291660000043,171.43043230000058,None,170.72983170000043,171.4142464000006,171.93132849999984,None,left,1,0.2846281000001909,171.93132849999984,None,None,170.72983170000043,171.91453530000035,0.5114455000002636,0.5950275000004694,1.7130452000001242,1.7966766000008647,,,,,,prithik_2,001,2020_Feb_05_1235,posner,3.1.5,59.964153428812175,
0.5,180,1,right,2,4,0,0,0,0,4,5,37,5,,,,,,,,,172.2325590999999,172.73244419999992,173.45024379999995,None,172.7492726999999,173.4333845000001,173.95059310000033,None,right,1,0.24945849999949132,173.95059310000033,None,None,172.7492726999999,173.9342372000001,0.5115963999996893,0.5950057999998535,1.7133669000004375,1.797534999999698,,,,,,prithik_2,001,2020_Feb_05_1235,posner,3.1.5,59.964153428812175,
-0.5,0,1,left,1,3,0,0,0,0,4,6,38,2,,,,,,,,,174.21890470000017,174.7187029000006,175.43659000000025,None,174.7354922000004,175.4195649000003,175.93702959999973,None,left,1,0.27894539999942936,175.93702959999973,None,None,174.7354922000004,175.92009340000004,0.5114896999994016,0.5946560000002137,1.7128560000001016,1.796377499999835,,,,,,prithik_2,001,2020_Feb_05_1235,posner,3.1.5,59.964153428812175,
-0.5,0,1,left,1,3,0,0,0,0,4,7,39,0,,,,,,,,,176.2379993000004,176.73802609999984,177.45580429999973,None,176.75477310000042,177.43928080000023,177.95631380000032,None,left,1,0.2997820000000502,177.95631380000032,None,None,176.75477310000042,177.9398772000004,0.5118809000005058,0.5951779000006354,1.713704300000245,1.7968129999999292,,,,,,prithik_2,001,2020_Feb_05_1235,posner,3.1.5,59.964153428812175,
0.5,180,1,right,2,4,0,0,0,0,5,0,40,5,,,,,,,,,178.2744048000004,178.77424640000027,179.49166839999998,None,178.79116320000048,179.47512060000008,179.9923972000006,None,right,1,0.2714512000002287,179.9923972000006,None,None,178.79116320000048,179.9757870000003,0.5115855000003648,0.5949049000000741,1.7131056999996872,1.7968111000000135,,,,,,prithik_2,001,2020_Feb_05_1235,posner,3.1.5,59.964153428812175,
0.5,180,1,right,2,4,0,0,0,0,5,1,41,7,,,,,,,,,180.2934863999999,180.7935320000006,181.51102700000047,None,180.81014550000054,181.49450309999975,182.01180380000005,None,right,1,0.30028439999932743,182.01180380000005,None,None,180.81014550000054,181.99535070000002,0.5116886000005252,0.5951927000005526,1.7134811000005357,1.7968610000007175,,,,,,prithik_2,001,2020_Feb_05_1235,posner,3.1.5,59.964153428812175,
0.5,180,1,right,2,4,0,0,0,0,5,2,42,6,,,,,,,,,182.32985120000012,182.82978809999986,183.54733469999974,None,182.84636049999972,183.5305315000005,184.0480879000006,None,right,1,0.2957507999999507,184.0480879000006,None,None,182.84636049999972,184.0314143000005,0.5113855999998123,0.5946881999998368,1.7129833999997572,1.7965229999999792,,,,,,prithik_2,001,2020_Feb_05_1235,posner,3.1.5,59.964153428812175,
-0.5,0,1,left,1,3,0,0,0,0,5,3,43,2,,,,,,,,,184.36597540000002,184.86584360000052,185.5834302000003,None,184.88250750000043,185.56701880000037,186.08439760000056,None,left,1,0.2755187000002479,186.08439760000056,None,None,184.88250750000043,186.06745130000036,0.5113730000002761,0.5949368999999933,1.712964500000453,1.7962407000004532,,,,,,prithik_2,001,2020_Feb_05_1235,posner,3.1.5,59.964153428812175,
-0.5,180,0,left,2,3,0,0,0,0,5,4,44,4,,,,,,,,,186.38532209999994,186.8852992000002,187.6029466,None,186.90180770000006,187.58624659999987,188.10364970000046,188.58765829999993,left,1,0.5683421999992788,188.10364970000046,None,None,186.90180770000006,188.08691509999971,0.5116296000005605,0.5948851000002833,1.71322710000004,1.7967052000003605,,,,,,prithik_2,001,2020_Feb_05_1235,posner,3.1.5,59.964153428812175,
-0.5,0,1,left,1,3,0,0,0,0,5,5,45,1,,,,,,,,,188.6884345999997,189.18851390000054,189.9061214000003,None,189.20521929999995,189.8894707999998,190.4066201000005,None,left,1,0.32132349999938015,190.4066201000005,None,None,189.20521929999995,190.39004750000004,0.5117184999999154,0.5949463999995714,1.7132266999997228,1.7968340999996144,,,,,,prithik_2,001,2020_Feb_05_1235,posner,3.1.5,59.964153428812175,
0.5,0,0,right,1,4,0,0,0,0,5,6,46,3,,,,,,,,,190.75798020000002,191.25799350000034,191.97550620000038,None,191.2746590000006,191.95895590000055,192.47624199999973,None,right,1,0.32366470000033587,192.47624199999973,None,None,191.2746590000006,192.45968110000013,0.5115883999997095,0.5947467999994842,1.7132596999999805,1.7964798999992126,,,,,,prithik_2,001,2020_Feb_05_1235,posner,3.1.5,59.964153428812175,
-0.5,0,1,left,1,3,0,0,0,0,5,7,47,0,,,,,,,,,192.82763909999994,193.32745710000017,194.0450179999998,None,193.34425759999976,194.02835500000037,194.54570710000007,None,left,1,0.254030099999909,194.54570710000007,None,None,193.34425759999976,194.52912089999973,0.511600400000134,0.5949147000001176,1.7132492999999158,1.797000399999888,,,,,,prithik_2,001,2020_Feb_05_1235,posner,3.1.5,59.964153428812175,
-0.5,0,1,left,1,3,0,0,0,0,6,0,48,2,,,,,,,,,194.83014009999988,195.33017449999988,196.04794760000004,None,195.34699569999975,196.03111230000013,196.5485935000006,None,left,1,0.2592596999993475,196.5485935000006,None,None,195.34699569999975,196.53164759999981,0.5119885000003705,0.5953465000002325,1.7134412000004886,1.7969647999998415,,,,,,prithik_2,001,2020_Feb_05_1235,posner,3.1.5,59.964153428812175,
0.5,0,0,right,1,4,0,0,0,0,6,1,49,3,,,,,,,,,196.8331490999999,197.33295110000017,198.05057589999979,None,197.34970479999993,198.03404310000042,198.5511750000005,None,right,1,0.24875559999964025,198.5511750000005,None,None,197.34970479999993,198.53478110000015,0.5115779000007024,0.5948731000007683,1.71334300000035,1.7967156000004252,,,,,,prithik_2,001,2020_Feb_05_1235,posner,3.1.5,59.964153428812175,
-0.5,0,1,left,1,3,0,0,0,0,6,2,50,1,,,,,,,,,198.81887920000008,199.31891300000007,200.03681640000013,None,199.3358859,200.0200786000005,200.53739050000058,201.0212763999998,None,0,,200.53739050000058,None,None,199.3358859,200.52062260000002,0.5116170999999667,0.5953836999997293,1.7133026999999856,1.796832699999868,,,,,,prithik_2,001,2020_Feb_05_1235,posner,3.1.5,59.964153428812175,
0.5,180,1,right,2,4,0,0,0,0,6,3,51,7,,,,,,,,,201.5218893000001,202.02269309999974,202.74034010000014,201.5218893000001,202.03956579999976,202.72364040000048,203.24093059999996,None,right,1,0.2548354999998992,203.24093059999996,None,None,202.03956579999976,203.22445400000015,0.5136659999998301,0.5971503999999186,1.7153849999995145,1.7986863999994966,,,,,,prithik_2,001,2020_Feb_05_1235,posner,3.1.5,59.964153428812175,
0.5,180,1,right,2,4,0,0,0,0,6,4,52,6,,,,,,,,,203.52483279999979,204.02552100000048,204.74316110000018,None,204.04210969999986,204.7266196999999,205.24397640000007,None,right,1,0.3159218000000692,205.24397640000007,None,None,204.04210969999986,205.22727829999985,0.5125545999999304,0.5959644000004118,1.714293699999871,1.7974511000002167,,,,,,prithik_2,001,2020_Feb_05_1235,posner,3.1.5,59.964153428812175,
0.5,180,1,right,2,4,0,0,0,0,6,5,53,5,,,,,,,,,205.5784416000006,206.07837720000043,206.7959961000006,None,206.09512360000008,206.7792659000006,207.2966419000004,None,right,1,0.29508370000075956,207.2966419000004,None,None,206.09512360000008,207.2800698000001,0.5116252999996505,0.5948750999996264,1.713298499999837,1.796579799999563,,,,,,prithik_2,001,2020_Feb_05_1235,posner,3.1.5,59.964153428812175,
-0.5,0,1,left,1,3,0,0,0,0,6,6,54,0,,,,,,,,,207.61454959999992,208.11456220000036,208.83210120000058,None,208.13118610000038,208.8155502999998,209.33288439999978,None,left,1,0.29080340000018623,209.33288439999978,None,None,208.13118610000038,209.31627920000028,0.5117323000004035,0.5949675000001662,1.7134375000005093,1.7966253000004144,,,,,,prithik_2,001,2020_Feb_05_1235,posner,3.1.5,59.964153428812175,
-0.5,180,0,left,2,3,0,0,0,0,6,7,55,4,,,,,,,,,209.6503204999999,210.15054650000002,210.86812030000056,None,210.16727940000055,210.85144070000024,211.3690972000004,None,left,1,0.43077309999989666,211.3690972000004,None,None,210.16727940000055,211.35233560000052,0.5119989000004352,0.5954805000001215,1.713772500000232,1.7972687000001315,,,,,,prithik_2,001,2020_Feb_05_1235,posner,3.1.5,59.964153428812175,
-0.5,180,0,left,2,3,0,0,0,0,7,0,56,4,,,,,,,,,211.82003090000035,212.32010170000012,213.0378836,None,212.33688729999994,213.02121910000005,213.5384997000001,None,left,1,0.28523560000030557,213.5384997000001,None,None,212.33688729999994,213.52175820000048,0.5113831999997274,0.5948800999995001,1.7130262999999104,1.7966691999999966,,,,,,prithik_2,001,2020_Feb_05_1235,posner,3.1.5,59.964153428812175,
0.5,180,1,right,2,4,0,0,0,0,7,1,57,7,,,,,,,,,213.83939550000014,214.33956560000024,215.05724780000037,None,214.3563021,215.04054629999973,215.55791539999973,None,right,1,0.2819251999999324,215.55791539999973,None,None,214.3563021,215.54121829999985,0.5115273999999772,0.595024100000046,1.7131596999997782,1.796649900000375,,,,,,prithik_2,001,2020_Feb_05_1235,posner,3.1.5,59.964153428812175,
0.5,0,0,right,1,4,0,0,0,0,7,2,58,3,,,,,,,,,215.8591559000006,216.35920970000006,217.0765994000003,None,216.3760452000006,217.05999840000004,217.5773852000002,None,right,1,0.3264181999993525,217.5773852000002,None,None,216.3760452000006,217.56063069999982,0.51175719999992,0.5950734999996712,1.7131661999992502,1.7967897999997149,,,,,,prithik_2,001,2020_Feb_05_1235,posner,3.1.5,59.964153428812175,
-0.5,0,1,left,1,3,0,0,0,0,7,3,59,1,,,,,,,,,217.92863949999992,218.42869280000014,219.14644730000055,None,218.44535499999984,219.12959930000034,219.64688750000005,None,left,1,0.2888695000001462,219.64688750000005,None,None,218.44535499999984,219.6303065000002,0.5116567999994004,0.5949770999995962,1.7132535999999163,1.7967045999994298,,,,,,prithik_2,001,2020_Feb_05_1235,posner,3.1.5,59.964153428812175,
-0.5,0,1,left,1,3,0,0,0,0,7,4,60,2,,,,,,,,,219.9648299999999,220.4648401000004,221.1823777999998,None,220.48145230000046,221.1656339000001,221.68318799999997,None,left,1,0.38068509999993694,221.68318799999997,None,None,220.48145230000046,221.66631849999976,0.5115551999997479,0.5949539000002915,1.713019499999973,1.7966157999999268,,,,,,prithik_2,001,2020_Feb_05_1235,posner,3.1.5,59.964153428812175,
-0.5,0,1,left,1,3,0,0,0,0,7,5,61,0,,,,,,,,,222.08479739999984,222.58441570000014,223.30188110000017,None,222.6008606000005,223.28541050000058,223.8026131000006,None,left,1,0.2931051999994452,223.8026131000006,None,None,222.6008606000005,223.78608600000007,0.5113320999998905,0.594628300000295,1.7129838000000746,1.7963410000002114,,,,,,prithik_2,001,2020_Feb_05_1235,posner,3.1.5,59.964153428812175,
0.5,180,1,right,2,4,0,0,0,0,7,6,62,5,,,,,,,,,224.12035089999972,224.62028980000014,225.33817760000056,None,224.6370794000004,225.32130099999995,225.8388429000006,None,right,1,0.4570238000005702,225.8388429000006,None,None,224.6370794000004,225.8220080000001,0.5114822000005006,0.5952551999998832,1.713184999999612,1.7967962000002444,,,,,,prithik_2,001,2020_Feb_05_1235,posner,3.1.5,59.964153428812175,
0.5,180,1,right,2,4,0,0,0,0,7,7,63,6,,,,,,,,,226.32344430000012,226.82364190000044,227.54095060000054,None,226.84009810000043,227.52440230000047,228.04190689999996,226.32344430000012,right,1,0.3659050999995088,228.04190689999996,None,None,226.84009810000043,228.02508500000022,0.5117698000003656,0.5949651000000813,1.713194600000861,1.796667300000081,,,,,,prithik_2,001,2020_Feb_05_1235,posner,3.1.5,59.964153428812175,
-0.5,0,1,left,1,3,0,0,0,0,8,0,64,0,,,,,,,,,228.42670910000015,228.92642179999984,229.64409410000007,None,228.94304209999973,229.6272155000006,230.14477410000018,None,left,1,0.2709297000001243,230.14477410000018,None,None,228.94304209999973,230.12802379999994,0.5112515000000712,0.5945983999999953,1.7128407999998672,1.796198000000004,,,,,,prithik_2,001,2020_Feb_05_1235,posner,3.1.5,59.964153428812175,
-0.5,0,1,left,1,3,0,0,0,0,8,1,65,2,,,,,,,,,230.44562570000016,230.94577540000046,231.66342040000018,None,230.96242059999986,231.64677680000023,232.1641565,None,left,1,0.3315111000001707,232.1641565,None,None,230.96242059999986,232.1475347000005,0.5115940000005139,0.5950229000000036,1.7133357000002434,1.7968190999999933,,,,,,prithik_2,001,2020_Feb_05_1235,posner,3.1.5,59.964153428812175,
0.5,0,0,right,1,4,0,0,0,0,8,2,66,3,,,,,,,,,232.51550469999984,233.01535280000007,233.73291059999974,None,233.03233790000013,233.71631530000013,234.23360169999978,None,right,1,0.26227740000013,234.23360169999978,None,None,233.03233790000013,234.2168599000006,0.5115064000001439,0.5951617000000624,1.7130004000000554,1.7963784000003216,,,,,,prithik_2,001,2020_Feb_05_1235,posner,3.1.5,59.964153428812175,
0.5,180,1,right,2,4,0,0,0,0,8,3,67,6,,,,,,,,,234.51845690000027,235.0180965999998,235.7357995000002,None,235.0348584000003,235.71911739999996,236.23653449999983,None,right,1,0.38710680000076536,236.23653449999983,None,None,235.0348584000003,236.21973700000035,0.511500700000397,0.5948426000004474,1.7131164000002173,1.796498800000336,,,,,,prithik_2,001,2020_Feb_05_1235,posner,3.1.5,59.964153428812175,
0.5,180,1,right,2,4,0,0,0,0,8,4,68,5,,,,,,,,,236.65418279999994,237.15430920000017,237.8719240999999,None,237.17099710000002,237.85531119999996,238.37271169999985,None,right,1,0.33899229999951785,238.37271169999985,None,None,237.17099710000002,238.35580070000015,0.5115795000001526,0.5950677000000724,1.7130581000001257,1.7969869999997172,,,,,,prithik_2,001,2020_Feb_05_1235,posner,3.1.5,59.964153428812175,
-0.5,0,1,left,1,3,0,0,0,0,8,5,69,1,,,,,,,,,238.7402677,239.24051280000003,239.9583474000001,None,239.2571269,239.9416299000004,240.45889989999978,None,left,1,0.26072779999958584,240.45889989999978,None,None,239.2571269,240.4422658000003,0.5118358999998236,0.5951866999994309,1.7135692000001654,1.7969220999993922,,,,,,prithik_2,001,2020_Feb_05_1235,posner,3.1.5,59.964153428812175,
-0.5,180,0,left,2,3,0,0,0,0,8,6,70,4,,,,,,,,,240.74314330000016,241.24325959999987,241.96076660000017,None,241.2598822,241.94447159999982,242.46150540000053,None,left,1,0.3302324000005683,242.46150540000053,None,None,241.2598822,242.44483850000051,0.5116820000002917,0.5950487000000066,1.713218500000039,1.7969199999997727,,,,,,prithik_2,001,2020_Feb_05_1235,posner,3.1.5,59.964153428812175,
0.5,180,1,right,2,4,0,0,0,0,8,7,71,7,,,,,,,,,242.81324510000013,243.3126873000001,244.03040580000015,None,243.32957609999994,244.01367550000032,244.53119289999995,None,right,1,0.23639409999941563,244.53119289999995,None,None,243.32957609999994,244.51455110000006,0.5114368000004106,0.5950248999997712,1.7132773000002999,1.7966889999997875,,,,,,prithik_2,001,2020_Feb_05_1235,posner,3.1.5,59.964153428812175,
0.5,180,1,right,2,4,0,0,0,0,9,0,72,7,,,,,,,,,244.79876849999982,245.29894239999976,246.01647279999997,None,245.3156909999998,245.9997725000003,246.51729830000022,None,right,1,0.3223660000003292,246.51729830000022,None,None,245.3156909999998,246.5004671000006,0.5118320000001404,0.5952581999999893,1.7133426999998846,1.7969474000001355,,,,,,prithik_2,001,2020_Feb_05_1235,posner,3.1.5,59.964153428812175,
0.5,0,0,right,1,4,0,0,0,0,9,1,73,3,,,,,,,,,246.86843839999983,247.36837550000018,248.08608240000012,None,247.38510740000038,248.06920360000004,248.58666580000045,None,right,1,0.3409939999992275,248.58666580000045,None,None,247.38510740000038,248.57019480000054,0.5116644999998243,0.5949893999995766,1.7134584999994331,1.796741099999963,,,,,,prithik_2,001,2020_Feb_05_1235,posner,3.1.5,59.964153428812175,
-0.5,0,1,left,1,3,0,0,0,0,9,2,74,1,,,,,,,,,248.9549594,249.45463560000007,250.17233420000048,None,249.47125779999988,250.15572299999985,250.6730045000004,None,left,1,0.28660630000013043,250.6730045000004,None,None,249.47125779999988,250.65621490000012,0.5113366000005044,0.5948035999999775,1.7128892000000633,1.7964750000001004,,,,,,prithik_2,001,2020_Feb_05_1235,posner,3.1.5,59.964153428812175,
0.5,180,1,right,2,4,0,0,0,0,9,3,75,6,,,,,,,,,250.9903905000001,251.4906615,252.20858750000025,None,251.50734879999982,252.19170480000048,252.70908430000054,None,right,1,0.29859269999997196,252.70908430000054,None,None,251.50734879999982,252.69229580000047,0.5116278000004968,0.5950886999999057,1.7132410000003802,1.7966418000005433,,,,,,prithik_2,001,2020_Feb_05_1235,posner,3.1.5,59.964153428812175,
-0.5,180,0,left,2,3,0,0,0,0,9,4,76,4,,,,,,,,,253.02703110000039,253.5268904000004,254.24444310000035,None,253.54367139999977,254.22804700000052,254.74528920000012,None,left,1,0.28620760000012524,254.74528920000012,None,None,253.54367139999977,254.72852820000026,0.5114696000000549,0.5947071000000506,1.713093299999855,1.7965893999999025,,,,,,prithik_2,001,2020_Feb_05_1235,posner,3.1.5,59.964153428812175,
0.5,180,1,right,2,4,0,0,0,0,9,5,77,5,,,,,,,,,255.0624773999998,255.56287909999992,256.28057590000026,None,255.57963629999995,256.2640074000001,256.7814543000004,None,right,1,0.2581073999999717,256.7814543000004,None,None,255.57963629999995,256.7646971000004,0.5121413999995639,0.5957832999993116,1.7139299000000392,1.7973966999998083,,,,,,prithik_2,001,2020_Feb_05_1235,posner,3.1.5,59.964153428812175,
-0.5,0,1,left,1,3,0,0,0,0,9,6,78,0,,,,,,,,,257.06593450000037,257.5658297,258.28328710000005,None,257.5824045999998,258.26660189999984,258.7841462000006,None,left,1,0.30341709999993327,258.7841462000006,None,None,257.5824045999998,258.76737070000036,0.5115561000002344,0.5951462000002721,1.713084600000002,1.7964025999999649,,,,,,prithik_2,001,2020_Feb_05_1235,posner,3.1.5,59.964153428812175,
-0.5,0,1,left,1,3,0,0,0,0,9,7,79,2,,,,,,,,,259.1184129000003,259.61855449999985,260.33626410000034,None,259.6353245,260.3195169999999,260.8368371000006,None,left,1,0.32276700000056735,260.8368371000006,None,None,259.6353245,260.81991240000025,0.5117358999996213,0.595039199999519,1.7130706999996619,1.7967432999994344,,,,,,prithik_2,001,2020_Feb_05_1235,posner,3.1.5,59.964153428812175,
-0.5,0,1,left,1,3,0,0,0,0,10,0,80,0,,,,,,,,,261.1876592999997,261.6881073000004,262.4056731999999,None,261.70486750000055,262.38891690000037,262.90653889999976,None,left,1,0.33311370000046736,262.90653889999976,None,None,261.70486750000055,262.88971630000015,0.5123045999998794,0.5957177000000229,1.7138976000005641,1.7976041000001715,,,,,,prithik_2,001,2020_Feb_05_1235,posner,3.1.5,59.964153428812175,
0.5,180,1,right,2,4,0,0,0,0,10,1,81,6,,,,,,,,,263.2576015000004,263.75751370000035,264.47531419999996,None,263.7742880000005,264.4586737999998,264.9757489000003,None,right,1,0.20777209999960178,264.9757489000003,None,None,263.7742880000005,264.95924149999973,0.5113079000002472,0.5946659999999611,1.7130230000002484,1.7963151000003563,,,,,,prithik_2,001,2020_Feb_05_1235,posner,3.1.5,59.964153428812175,
0.5,0,0,right,1,4,0,0,0,0,10,2,82,3,,,,,,,,,265.2101892999999,265.71016280000003,266.4279843000004,None,265.7269551999998,266.41118449999976,266.9285528999999,None,right,1,0.3429604000002655,266.9285528999999,None,None,265.7269551999998,266.91184969999995,0.511484499999824,0.5949719000000186,1.7131572999996934,1.7967931000002864,,,,,,prithik_2,001,2020_Feb_05_1235,posner,3.1.5,59.964153428812175,
-0.5,0,1,left,1,3,0,0,0,0,10,3,83,1,,,,,,,,,267.29644069999995,267.7963982000001,268.51411220000045,None,267.8130996,268.4973458000004,269.0147431000005,None,left,1,0.3290446000000884,269.0147431000005,None,None,267.8130996,268.9981097,0.5116266000004543,0.5949688999999125,1.7133228000002418,1.7967993000002025,,,,,,prithik_2,001,2020_Feb_05_1235,posner,3.1.5,59.964153428812175,
-0.5,0,1,left,1,3,0,0,0,0,10,4,84,2,,,,,,,,,269.36612719999994,269.8659150000003,270.5836046000004,None,269.8826084000002,270.56707600000027,271.0845304000004,None,left,1,0.3231028999998671,271.0845304000004,None,None,269.8826084000002,271.0675812999998,0.5113490000003367,0.5947625000007974,1.7130007000005207,1.7963853000001109,,,,,,prithik_2,001,2020_Feb_05_1235,posner,3.1.5,59.964153428812175,
-0.5,180,0,left,2,3,0,0,0,0,10,5,85,4,,,,,,,,,271.43593359999977,271.93590010000025,272.6531055000005,None,271.95215389999976,272.63654750000023,273.1537870000002,None,left,1,0.30958709999958955,273.1537870000002,None,None,271.95215389999976,273.13710549999996,0.5120110999996541,0.595109500000035,1.7131924999994226,1.7966268999998647,,,,,,prithik_2,001,2020_Feb_05_1235,posner,3.1.5,59.964153428812175,
0.5,180,1,right,2,4,0,0,0,0,10,6,86,7,,,,,,,,,273.4883871000002,273.98847399999977,274.7059201000002,None,274.00509860000057,274.6894591,275.2067255000002,None,right,1,0.32871109999996406,275.2067255000002,None,None,274.00509860000057,275.19001560000015,0.5117207999992388,0.5951031999993575,1.7132625999993252,1.7967398999999205,,,,,,prithik_2,001,2020_Feb_05_1235,posner,3.1.5,59.964153428812175,
0.5,180,1,right,2,4,0,0,0,0,10,7,87,5,,,,,,,,,275.55784550000044,276.0576755000002,276.7755637999999,None,276.07468210000025,276.75875970000016,277.2759793000005,None,right,1,0.33144699999957083,277.2759793000005,None,None,276.07468210000025,277.2593530000004,0.5113338999999542,0.5947579000003316,1.7129879000003712,1.796854600000188,,,,,,prithik_2,001,2020_Feb_05_1235,posner,3.1.5,59.964153428812175,
,,,,,,0,0,0,0,,,,,,,,,,,,,,,,,,,,,,,,,,,,,,,,,277.62774379999973,None,1.720000000204891e-05,0.9956765999995696,,prithik_2,001,2020_Feb_05_1235,posner,3.1.5,59.964153428812175,
-0.5,0,1,left,1,3,1,0,1,0,0,0,0,2,1.1899999663000926e-05,0.09735449999971024,338.64391309999974,None,1.3799999578623101e-05,0.09813669999948615,340.7466847000005,None,341.012557,341.51446980000037,342.2321106999998,None,341.53113230000054,342.2154737999999,342.7327015000001,None,left,1,0.30656180000005406,342.7327015000001,None,None,341.53113230000054,342.71592469999996,0.5119371999999203,0.5954181000006429,1.7133716000007553,1.7969413999999233,,,,,,prithik_2,001,2020_Feb_05_1235,posner,3.1.5,59.964153428812175,
-0.5,0,1,left,1,3,1,0,1,0,0,1,1,1,,,,,,,,,343.0683383000005,343.5674280000003,344.28506650000054,None,343.58405740000035,344.26836079999975,344.7856803000004,None,left,1,0.3335767999997188,344.7856803000004,None,None,343.58405740000035,344.7689201000003,0.5106530999992174,0.5936953000000358,1.7121266999993168,1.7956194999997024,,,,,,prithik_2,001,2020_Feb_05_1235,posner,3.1.5,59.964153428812175,
0.5,180,1,right,2,4,1,0,1,0,0,2,2,5,,,,,,,,,345.1368487999998,345.63667609999993,346.35442460000013,None,345.6534896000003,346.3378035000005,346.8551140999998,None,right,1,0.23212379999949917,346.8551140999998,None,None,345.6534896000003,346.83836429999974,0.5112600000002203,0.594713600000432,1.712937199999942,1.796364700000595,,,,,,prithik_2,001,2020_Feb_05_1235,posner,3.1.5,59.964153428812175,
0.5,0,0,right,1,4,1,0,1,0,0,3,3,3,,,,,,,,,347.10621420000007,347.60600760000034,348.32395460000043,None,347.62273920000007,348.3071890000001,348.8244880000002,None,right,1,0.33459120000043185,348.8244880000002,None,None,347.62273920000007,348.8078116000006,0.5113564000002953,0.594790500000272,1.713140700000622,1.7964848000001439,,,,,,prithik_2,001,2020_Feb_05_1235,posner,3.1.5,59.964153428812175,
0.5,180,1,right,2,4,1,0,1,0,0,4,4,7,,,,,,,,,349.1756041999997,349.6756790999998,350.39326380000057,None,349.69225800000004,350.37643800000023,350.8939055999999,None,right,1,0.297182199999952,350.8939055999999,None,None,349.69225800000004,350.87742530000014,0.5115302000003794,0.595027299999856,1.713258499999938,1.7964411000002656,,,,,,prithik_2,001,2020_Feb_05_1235,posner,3.1.5,59.964153428812175,
0.5,180,1,right,2,4,1,0,1,0,0,5,5,6,,,,,,,,,351.2121820000002,351.7117847999998,352.42944030000035,None,351.72841080000035,352.4127468000006,352.9300054000005,None,right,1,0.3090303999997559,352.9300054000005,None,None,351.72841080000035,352.9133757999998,0.5113903000001301,0.5948659999994561,1.7129606999997122,1.7963674000002356,,,,,,prithik_2,001,2020_Feb_05_1235,posner,3.1.5,59.964153428812175,
-0.5,0,1,left,1,3,1,0,1,0,0,6,6,0,,,,,,,,,353.2648771000004,353.76462040000024,354.4822046999998,None,353.78141080000023,354.46547960000044,354.9830361000004,None,left,1,0.239930199999435,354.9830361000004,None,None,353.78141080000023,354.9662100000005,0.511582900000576,0.5950801000008141,1.7131556000003911,1.7964976000002935,,,,,,prithik_2,001,2020_Feb_05_1235,posner,3.1.5,59.964153428812175,
-0.5,180,0,left,2,3,1,0,1,0,0,7,7,4,,,,,,,,,355.25061259999984,355.7506217,356.46828280000045,None,355.7674745000004,356.45147950000046,356.96900189999997,None,left,1,0.3100464999997712,356.96900189999997,None,None,355.7674745000004,356.9521773000006,0.5115888999998788,0.5953471000002537,1.7131348000002617,1.7967025999996622,,,,,,prithik_2,001,2020_Feb_05_1235,posner,3.1.5,59.964153428812175,
0.5,180,1,right,2,4,1,0,1,0,1,0,8,5,,,,,,,,,357.3033910000004,357.80332670000007,358.52107950000027,None,357.82005449999997,358.50466010000036,359.0217628999999,None,right,1,0.21732220000012603,359.0217628999999,None,None,357.82005449999997,359.0052628000003,0.5114751000000979,0.5950128000004042,1.713386200000059,1.7967427000003227,,,,,,prithik_2,001,2020_Feb_05_1235,posner,3.1.5,59.964153428812175,
-0.5,0,1,left,1,3,1,0,1,0,1,1,9,2,,,,,,,,,359.2561022,359.7561818000004,360.4739577,None,359.7728063000004,360.4573270000001,360.9747705,None,left,1,0.2882230000004711,360.9747705,None,None,359.7728063000004,360.95789349999995,0.5115807000001951,0.5948556000003009,1.7132805999999619,1.7965461000003415,,,,,,prithik_2,001,2020_Feb_05_1235,posner,3.1.5,59.964153428812175,
0.5,0,0,right,1,4,1,0,1,0,1,2,10,3,,,,,,,,,361.29216499999984,361.79223040000034,362.5097746000001,None,361.8091181,362.4934979999998,363.0104836999999,None,right,1,0.2844414000001052,363.0104836999999,None,None,361.8091181,362.9939538999997,0.5113773000002766,0.5947781000004397,1.7130744000005507,1.796436900000117,,,,,,prithik_2,001,2020_Feb_05_1235,posner,3.1.5,59.964153428812175,
-0.5,0,1,left,1,3,1,0,1,0,1,3,11,0,,,,,,,,,363.3114406000004,363.8116121000003,364.52929889999996,None,363.8285813000002,364.51267780000035,365.0300584000006,None,left,1,0.3127936000000773,365.0300584000006,None,None,363.8285813000002,365.0135366000004,0.5115873000004285,0.5952012000007016,1.7134871000007479,1.796817600000395,,,,,,prithik_2,001,2020_Feb_05_1235,posner,3.1.5,59.964153428812175,
0.5,180,1,right,2,4,1,0,1,0,1,4,12,7,,,,,,,,,365.36471530000017,365.8645888000001,366.5821586000002,None,365.88138059999983,366.5657153000002,367.08297180000045,None,right,1,0.24413000000004104,367.08297180000045,None,None,365.88138059999983,367.0661270999999,0.5114854999992531,0.59512469999936,1.7130114999999932,1.796371200000067,,,,,,prithik_2,001,2020_Feb_05_1235,posner,3.1.5,59.964153428812175,
0.5,180,1,right,2,4,1,0,1,0,1,5,13,6,,,,,,,,,367.35096580000027,367.8505958000005,368.5683374,None,367.86749789999976,368.5515436000005,369.0689084000005,None,right,1,0.2981170999992173,369.0689084000005,None,None,367.86749789999976,369.05219360000046,0.511296399999992,0.5947699999996985,1.7128871000004438,1.796445699999822,,,,,,prithik_2,001,2020_Feb_05_1235,posner,3.1.5,59.964153428812175,
-0.5,180,0,left,2,3,1,0,1,0,1,6,14,4,,,,,,,,,369.38697390000016,369.88650719999987,370.60426970000026,None,369.90336470000057,370.58763050000016,371.10505269999976,None,left,1,0.2621171000000686,371.10505269999976,None,None,369.90336470000057,371.0883672,0.5109851999995954,0.5948049999997238,1.7128312999993796,1.7963727999995172,,,,,,prithik_2,001,2020_Feb_05_1235,posner,3.1.5,59.964153428812175,
-0.5,0,1,left,1,3,1,0,1,0,1,7,15,1,,,,,,,,,371.38949049999974,371.8894293000003,372.60719169999993,None,371.9062122000005,372.59027419999984,373.10797210000055,None,left,1,0.31500169999981154,373.10797210000055,None,None,371.9062122000005,373.09100390000003,0.5114920000005441,0.5950785000004544,1.7130523000005269,1.7967816999998831,,,,,,prithik_2,001,2020_Feb_05_1235,posner,3.1.5,59.964153428812175,
0.5,180,1,right,2,4,1,0,1,0,2,0,16,6,,,,,,,,,373.4424104999998,373.9423370000004,374.6598696000001,None,373.9590552999998,374.64335050000045,375.16058950000024,None,left,0,0.27831759999935457,375.16058950000024,None,None,373.9590552999998,375.1440080000002,0.5114498999992065,0.5949369999998453,1.7130985999992845,1.796650899999804,,,,,,prithik_2,001,2020_Feb_05_1235,posner,3.1.5,59.964153428812175,
-0.5,0,1,left,1,3,1,0,1,0,2,1,17,0,,,,,,,,,375.4619429000004,375.96185830000013,376.6793137000004,None,375.9784845000004,376.66283269999985,377.17990800000007,None,left,1,0.2830799000003026,377.17990800000007,None,None,375.9784845000004,377.1633759000006,0.5115899000002173,0.594900900000539,1.7130879000005734,1.7966034000000946,,,,,,prithik_2,001,2020_Feb_05_1235,posner,3.1.5,59.964153428812175,
-0.5,0,1,left,1,3,1,0,1,0,2,2,18,1,,,,,,,,,377.4812837999998,377.98117040000034,378.6988360000005,None,377.9980519999999,378.6820791,379.1993260999998,None,left,1,0.3117545999994036,379.1993260999998,None,None,377.9980519999999,379.1829845000002,0.511388299999453,0.5948355999998967,1.7131781999996747,1.7965518000000884,,,,,,prithik_2,001,2020_Feb_05_1235,posner,3.1.5,59.964153428812175,
0.5,180,1,right,2,4,1,0,1,0,2,3,19,5,,,,,,,,,379.53458580000006,380.0343389999998,380.7515192000001,None,380.0505148000002,380.7348215000002,381.2523938000004,None,right,1,0.26664849999997386,381.2523938000004,None,None,380.0505148000002,381.2357686000005,0.5116934999996374,0.5949585999996998,1.7130938999998762,1.796271600000182,,,,,,prithik_2,001,2020_Feb_05_1235,posner,3.1.5,59.964153428812175,
0.5,0,0,right,1,4,1,0,1,0,2,4,20,3,,,,,,,,,381.53678860000036,382.03686430000016,382.75443259999975,None,382.0534140999998,382.73784220000016,383.25525019999986,None,right,1,0.3436598000007507,383.25525019999986,None,None,382.0534140999998,383.23870799999986,0.5116312000000107,0.5948138000003382,1.7134564999996655,1.796562300000005,,,,,,prithik_2,001,2020_Feb_05_1235,posner,3.1.5,59.964153428812175,
-0.5,180,0,left,2,3,1,0,1,0,2,5,21,4,,,,,,,,,383.6230317999998,384.1230185000004,384.84044470000026,None,384.13951050000014,384.82386250000036,385.3412278000005,None,left,1,0.2737582999998267,385.3412278000005,None,None,384.13951050000014,385.32472289999987,0.5116462000005413,0.5949903000000631,1.7133331000004546,1.7967870000002222,,,,,,prithik_2,001,2020_Feb_05_1235,posner,3.1.5,59.964153428812175,
0.5,180,1,right,2,4,1,0,1,0,2,6,22,7,,,,,,,,,385.64288190000025,386.1423931999998,386.86007020000034,None,386.1590758000002,386.8433482999999,387.3607382,None,right,1,0.22221100000024308,387.3607382,None,None,386.1590758000002,387.34414280000055,0.5116421000002447,0.594970000000103,1.7133677000001626,1.7966003999999884,,,,,,prithik_2,001,2020_Feb_05_1235,posner,3.1.5,59.964153428812175,
-0.5,0,1,left,1,3,1,0,1,0,2,7,23,2,,,,,,,,,387.61191580000013,388.1117599999998,388.82935950000046,None,388.12858159999996,388.8127986999998,389.33008299999983,None,left,1,0.24490140000034444,389.33008299999983,None,None,388.12858159999996,389.3134718000001,0.5115150000001449,0.5950044999999591,1.71320360000027,1.7968055999999706,,,,,,prithik_2,001,2020_Feb_05_1235,posner,3.1.5,59.964153428812175,
0.5,0,0,right,1,4,1,0,1,0,3,0,24,3,,,,,,,,,389.59753360000013,390.09782499999983,390.8153884000003,None,390.11464570000044,390.7990342000003,391.31620720000046,None,right,1,0.2266368999999031,391.31620720000046,None,None,390.11464570000044,391.2994037999997,0.5120964999996431,0.5956965000004857,1.7136508000003232,1.79704909999964,,,,,,prithik_2,001,2020_Feb_05_1235,posner,3.1.5,59.964153428812175,
-0.5,0,1,left,1,3,1,0,1,0,3,1,25,0,,,,,,,,,391.5672656000006,392.06719690000045,392.7851449,None,392.0839741,392.7682698999997,393.2857302000002,None,left,1,0.25714590000006865,393.2857302000002,None,None,392.0839741,393.2690147000003,0.5116248000003907,0.5949369999998453,1.7134464999999182,1.7971174000003884,,,,,,prithik_2,001,2020_Feb_05_1235,posner,3.1.5,59.964153428812175,
0.5,180,1,right,2,4,1,0,1,0,3,2,26,5,,,,,,,,,393.5705097,394.0700023999998,394.7878655000004,None,394.0869671999999,394.77090940000016,395.2883257000003,None,right,1,0.262510999999904,395.2883257000003,None,None,394.0869671999999,395.27154659999997,0.5111359000002267,0.5946584000002986,1.7126577999997608,1.7962009000002581,,,,,,prithik_2,001,2020_Feb_05_1235,posner,3.1.5,59.964153428812175,
-0.5,0,1,left,1,3,1,0,1,0,3,3,27,2,,,,,,,,,395.5729081999998,396.07263630000034,396.79031120000036,None,396.08934659999977,396.7739779000003,397.2909658999997,None,left,1,0.25987070000064705,397.2909658999997,None,None,396.08934659999977,397.274582,0.5111186000003727,0.5948009000003367,1.7130384000001868,1.7964505999998437,,,,,,prithik_2,001,2020_Feb_05_1235,posner,3.1.5,59.964153428812175,
0.5,180,1,right,2,4,1,0,1,0,3,4,28,7,,,,,,,,,397.5757064999998,398.0753725000004,398.7930980000001,None,398.0920992000001,398.77637719999984,399.2938656000006,None,right,1,0.28909349999958067,399.2938656000006,None,None,398.0920992000001,399.2771977000002,0.5114266000000498,0.5949249000004784,1.7132283000000825,1.7966495999999097,,,,,,prithik_2,001,2020_Feb_05_1235,posner,3.1.5,59.964153428812175,
0.5,180,1,right,2,4,1,0,1,0,3,5,29,6,,,,,,,,,399.6121219000006,400.1116400000001,400.8291323000003,None,400.1283217,400.81263730000046,401.32991740000034,None,right,1,0.30895779999991646,401.32991740000034,None,None,400.1283217,401.31325800000013,0.5114174999998795,0.594671599999856,1.7130157999999938,1.7965174999999363,,,,,,prithik_2,001,2020_Feb_05_1235,posner,3.1.5,59.964153428812175,
-0.5,180,0,left,2,3,1,0,1,0,3,6,30,4,,,,,,,,,401.6646060000003,402.1646308999998,402.8820735999998,None,402.1811409000002,402.8653113999999,403.3830318999999,None,left,1,0.2720350999998118,403.3830318999999,None,None,402.1811409000002,403.3661044999999,0.511572299999898,0.5949421999994229,1.7130280000001221,1.7962736999998015,,,,,,prithik_2,001,2020_Feb_05_1235,posner,3.1.5,59.964153428812175,
-0.5,0,1,left,1,3,1,0,1,0,3,7,31,1,,,,,,,,,403.68409109999993,404.18387880000046,404.90144789999977,None,404.2004723,404.8847925,405.4021763999999,None,left,1,0.25265850000050705,405.4021763999999,None,None,404.2004723,405.3855500999998,0.5116054000000076,0.5949724000001879,1.7132495000005292,1.7964959000000817,,,,,,prithik_2,001,2020_Feb_05_1235,posner,3.1.5,59.964153428812175,
0.5,180,1,right,2,4,1,0,1,0,4,0,32,6,,,,,,,,,405.68634399999974,406.1868073000005,406.90428729999985,None,406.2032823999998,406.8875308000006,407.40486880000026,None,right,1,0.257872000000134,407.40486880000026,None,None,406.2032823999998,407.3882426,0.5118524999998044,0.5950934000002235,1.7132704000005106,1.7966734000001452,,,,,,prithik_2,001,2020_Feb_05_1235,posner,3.1.5,59.964153428812175,
-0.5,0,1,left,1,3,1,0,1,0,4,1,33,2,,,,,,,,,407.68945470000017,408.18938609999987,408.9071165000005,None,408.20607180000025,408.89020210000035,409.40780840000025,None,left,1,0.2150549999996656,409.40780840000025,None,None,408.20607180000025,409.39117780000015,0.5113424000001032,0.5948225000001912,1.7131119999994553,1.7966126999999688,,,,,,prithik_2,001,2020_Feb_05_1235,posner,3.1.5,59.964153428812175,
-0.5,0,1,left,1,3,1,0,1,0,4,2,34,1,,,,,,,,,409.6424453999998,410.1420194000002,410.85973809999996,None,410.15879700000005,410.8430964999998,411.3603810000004,None,left,1,0.27037169999948674,411.3603810000004,None,None,410.15879700000005,411.34381159999975,0.5113516000001255,0.5946701000002577,1.713127600000007,1.7967835999997988,,,,,,prithik_2,001,2020_Feb_05_1235,posner,3.1.5,59.964153428812175,
0.5,180,1,right,2,4,1,0,1,0,4,3,35,5,,,,,,,,,411.66147809999984,412.16164149999986,412.8791458000005,None,412.17843379999977,412.86240970000017,413.37986180000007,None,right,1,0.3308508999998594,413.37986180000007,None,None,412.17843379999977,413.36331299999983,0.5114705000005415,0.5948824000006425,1.713118900000154,1.7966528000006292,,,,,,prithik_2,001,2020_Feb_05_1235,posner,3.1.5,59.964153428812175,
0.5,0,0,right,1,4,1,0,1,0,4,4,36,3,,,,,,,,,413.73248609999973,414.23099600000023,414.9486874000004,None,414.2477607999999,414.93202440000005,415.44923350000045,None,right,1,0.3254995000006602,415.44923350000045,None,None,414.2477607999999,415.43271950000053,0.5108768999998574,0.5943834999998217,1.7125806999993074,1.7961454999995112,,,,,,prithik_2,001,2020_Feb_05_1235,posner,3.1.5,59.964153428812175,
-0.5,0,1,left,1,3,1,0,1,0,4,5,37,0,,,,,,,,,415.8006131000002,416.3005084000006,417.0182313000005,None,416.3173781000005,417.00144850000015,417.5188299000001,None,left,1,0.28807469999992463,417.5188299000001,None,None,416.3173781000005,417.5021538000001,0.5114379999995435,0.5950949999996737,1.7130624999999782,1.7966982999996617,,,,,,prithik_2,001,2020_Feb_05_1235,posner,3.1.5,59.964153428812175,
-0.5,180,0,left,2,3,1,0,1,0,4,6,38,4,,,,,,,,,417.8366117000005,418.3367773,419.05431940000017,None,418.3534060000002,419.03768110000055,419.55497560000003,420.03907830000026,None,0,,419.55497560000003,None,None,418.3534060000002,419.53837029999977,0.5118582999994032,0.5950963999994201,1.7134255999999368,1.7967429999998785,,,,,,prithik_2,001,2020_Feb_05_1235,posner,3.1.5,59.964153428812175,
0.5,180,1,right,2,4,1,0,1,0,4,7,39,7,,,,,,,,,420.5396842,421.0403481000003,421.7580759000002,420.5396842,421.0571415000004,421.7411890000003,422.25880750000033,422.7429112,right,1,0.4759127000006629,422.25880750000033,None,None,421.0571415000004,422.2418883,0.5135503999999855,0.5969347000000198,1.7150704000005135,1.798637100000633,,,,,,prithik_2,001,2020_Feb_05_1235,posner,3.1.5,59.964153428812175,
0.5,0,0,right,1,4,1,0,1,0,5,0,40,3,,,,,,,,,422.7598732000006,423.2599925000004,423.9778293999998,None,423.2768299999998,423.96108710000044,424.4785154000001,None,right,1,0.3762471000000005,424.4785154000001,None,None,423.2768299999998,424.4617853999998,0.5117467000000033,0.5953196000000389,1.7135207000001174,1.7970776000001933,,,,,,prithik_2,001,2020_Feb_05_1235,posner,3.1.5,59.964153428812175,
-0.5,180,0,left,2,3,1,0,1,0,5,1,41,4,,,,,,,,,424.8795748000002,425.37961670000004,426.0974937000001,None,425.3965739000005,426.08061629999975,426.59810220000054,None,left,1,0.20864650000021356,426.59810220000054,None,None,425.3965739000005,426.58149820000017,0.511579800000618,0.595075000000179,1.7134405000006154,1.7966377000002467,,,,,,prithik_2,001,2020_Feb_05_1235,posner,3.1.5,59.964153428812175,
-0.5,0,1,left,1,3,1,0,1,0,5,2,42,1,,,,,,,,,426.8323528000001,427.3322963999999,428.0498924000003,None,427.34914519999984,428.0334407,428.5506341999999,None,left,1,0.36009699999976874,428.5506341999999,None,None,427.34914519999984,428.53416259999995,0.5114533000005395,0.5949153000001388,1.7132839000005333,1.7967488000003868,,,,,,prithik_2,001,2020_Feb_05_1235,posner,3.1.5,59.964153428812175,
0.5,180,1,right,2,4,1,0,1,0,5,3,43,5,,,,,,,,,428.93557560000045,429.4354920000005,430.15281890000006,None,429.4519098999999,430.13628700000027,430.65366520000043,None,right,1,0.2571284999994532,430.65366520000043,None,None,429.4519098999999,430.6370219999999,0.5115857000000688,0.5947238999997353,1.713064900000063,1.7964050999999017,,,,,,prithik_2,001,2020_Feb_05_1235,posner,3.1.5,59.964153428812175,
0.5,180,1,right,2,4,1,0,1,0,5,4,44,6,,,,,,,,,430.93817409999974,431.43841280000015,432.15554599999996,None,431.4546601000002,432.1388950999999,432.6564507000003,None,right,1,0.3101989999995567,432.6564507000003,None,None,431.4546601000002,432.6394313999999,0.5120778000000428,0.5950737000002846,1.7130810999997266,1.7967994999999064,,,,,,prithik_2,001,2020_Feb_05_1235,posner,3.1.5,59.964153428812175,
-0.5,0,1,left,1,3,1,0,1,0,5,5,45,2,,,,,,,,,432.99051899999995,433.49073490000046,434.2086565999998,None,433.50767050000013,434.1917605999997,434.7090310000003,None,left,1,0.2657083000003695,434.7090310000003,None,None,433.50767050000013,434.69255950000024,0.5120120000001407,0.5954282000002422,1.7138116000005539,1.7971386000008351,,,,,,prithik_2,001,2020_Feb_05_1235,posner,3.1.5,59.964153428812175,
0.5,180,1,right,2,4,1,0,1,0,5,6,46,7,,,,,,,,,434.9934960999999,435.49362610000026,436.2112342999999,None,435.5100991999998,436.19464119999975,436.71185419999983,None,right,1,0.26275750000058906,436.71185419999983,None,None,435.5100991999998,436.6950703000002,0.5115909999994983,0.5950221000002784,1.7130239999996775,1.796587300000283,,,,,,prithik_2,001,2020_Feb_05_1235,posner,3.1.5,59.964153428812175,
-0.5,0,1,left,1,3,1,0,1,0,5,7,47,0,,,,,,,,,436.9961622999999,437.49625040000046,438.21409140000014,None,437.5129805000006,438.1974674000003,438.71465179999996,None,left,1,0.23596660000021075,438.71465179999996,None,None,437.5129805000006,438.69818159999977,0.5116033000003881,0.5949846000003163,1.7135151000002224,1.7968078000003516,,,,,,prithik_2,001,2020_Feb_05_1235,posner,3.1.5,59.964153428812175,
0.5,180,1,right,2,4,1,0,1,0,6,0,48,7,,,,,,,,,438.9822570000006,439.4825952000001,440.2000815000001,None,439.49906030000056,440.1833330999998,440.70078060000014,None,right,1,0.2819696999995358,440.70078060000014,None,None,439.49906030000056,440.6841666,0.5117011000002094,0.5950471999994988,1.713258699999642,1.7967253999995592,,,,,,prithik_2,001,2020_Feb_05_1235,posner,3.1.5,59.964153428812175,
-0.5,180,0,left,2,3,1,0,1,0,6,1,49,4,,,,,,,,,441.0022004000002,441.5018091000002,442.2194105999997,None,441.5185357999999,442.2028581000004,442.7202062000006,None,left,1,0.2463767999997799,442.7202062000006,None,None,441.5185357999999,442.70348770000055,0.5114130000001751,0.5948075999995126,1.7130624000001262,1.7966034000000946,,,,,,prithik_2,001,2020_Feb_05_1235,posner,3.1.5,59.964153428812175,
0.5,180,1,right,2,4,1,0,1,0,6,2,50,5,,,,,,,,,442.98835620000045,443.48792570000023,444.2055618000004,None,443.5046190000003,444.18872569999985,444.70620340000005,None,right,1,0.3325155000002269,444.70620340000005,None,None,443.5046190000003,444.6895222000003,0.5114127999995617,0.5948069999994914,1.712990600000012,1.7964872000002288,,,,,,prithik_2,001,2020_Feb_05_1235,posner,3.1.5,59.964153428812175,
-0.5,0,1,left,1,3,1,0,1,0,6,3,51,0,,,,,,,,,445.05755730000055,445.5575829999998,446.27512990000014,None,445.574079,446.2583433,446.77574939999977,None,left,1,0.29495520000000397,446.77574939999977,None,None,445.574079,446.7589930000004,0.5116463999993357,0.594910499999969,1.7130366000001231,1.796531199999663,,,,,,prithik_2,001,2020_Feb_05_1235,posner,3.1.5,59.964153428812175,
0.5,0,0,right,1,4,1,0,1,0,6,4,52,3,,,,,,,,,447.09362340000007,447.593433,448.31113430000005,None,447.61023860000023,448.29445680000026,448.8121521000003,None,right,1,0.32249269999920216,448.8121521000003,None,None,447.61023860000023,448.79507509999985,0.5113835000001927,0.5951122999995277,1.71300009999959,1.7965924999998606,,,,,,prithik_2,001,2020_Feb_05_1235,posner,3.1.5,59.964153428812175,
-0.5,0,1,left,1,3,1,0,1,0,6,5,53,2,,,,,,,,,449.1633563000005,449.66328630000044,450.38068230000044,None,449.67982070000016,450.36397039999974,450.8815736000006,None,left,1,0.28497499999957654,450.8815736000006,None,None,449.67982070000016,450.8647718000002,0.511871899999278,0.5950886999999057,1.7133420999998634,1.7968117999998867,,,,,,prithik_2,001,2020_Feb_05_1235,posner,3.1.5,59.964153428812175,
0.5,180,1,right,2,4,1,0,1,0,6,6,54,6,,,,,,,,,451.1828669000006,451.6825133000002,452.40002060000006,None,451.6989908000005,452.3835420000005,452.9007757999998,None,right,1,0.2738890000000538,452.9007757999998,None,None,451.6989908000005,452.8842945000006,0.5115559000005305,0.5949616000007154,1.7133108000007269,1.796486900000673,,,,,,prithik_2,001,2020_Feb_05_1235,posner,3.1.5,59.964153428812175,
-0.5,0,1,left,1,3,1,0,1,0,6,7,55,1,,,,,,,,,453.2018447999999,453.7017636999999,454.41951380000046,None,453.7186105999999,454.4028823999997,454.9201806000001,None,left,1,0.15840140000000247,454.9201806000001,None,None,453.7186105999999,454.9036358000003,0.5113871000003201,0.5952729999999065,1.713213299999552,1.7967462999995405,,,,,,prithik_2,001,2020_Feb_05_1235,posner,3.1.5,59.964153428812175,
-0.5,0,1,left,1,3,1,0,1,0,7,0,56,0,,,,,,,,,455.10457750000023,455.60451530000046,456.3220669000002,None,455.62116400000014,456.3057071000003,456.82276960000036,None,right,0,0.15981939999983297,456.82276960000036,None,None,455.62116400000014,456.80622700000004,0.511524699999427,0.5950368999992861,1.7132081999998263,1.7963993999992454,,,,,,prithik_2,001,2020_Feb_05_1235,posner,3.1.5,59.964153428812175,
-0.5,0,1,left,1,3,1,0,1,0,7,1,57,1,,,,,,,,,457.0071746000003,457.5070757000003,458.2248343000001,None,457.52396709999994,458.2080372999999,458.72540730000037,None,left,1,0.29712409999956435,458.72540730000037,None,None,457.52396709999994,458.70879909999985,0.5115400999993653,0.5948687000000064,1.713238999999703,1.7968571000001248,,,,,,prithik_2,001,2020_Feb_05_1235,posner,3.1.5,59.964153428812175,
0.5,180,1,right,2,4,1,0,1,0,7,2,58,6,,,,,,,,,459.04357100000016,459.5432845000005,460.26089760000013,None,459.55979040000057,460.2443967999998,460.76145559999986,None,right,1,0.26094910000028904,460.76145559999986,None,None,459.55979040000057,460.74499149999974,0.5114288999993732,0.5949271999998018,1.7131193999994139,1.796496599999955,,,,,,prithik_2,001,2020_Feb_05_1235,posner,3.1.5,59.964153428812175,
-0.5,0,1,left,1,3,1,0,1,0,7,3,59,2,,,,,,,,,461.0463815000003,461.5460844999998,462.26352229999975,None,461.5627966000002,462.2472236000003,462.76441010000053,None,left,1,0.2580243000002156,462.76441010000053,None,None,461.5627966000002,462.7475919999997,0.5112934999997378,0.5947316000001592,1.7127876999993532,1.7964600999994218,,,,,,prithik_2,001,2020_Feb_05_1235,posner,3.1.5,59.964153428812175,
-0.5,180,0,left,2,3,1,0,1,0,7,4,60,4,,,,,,,,,463.0489674999999,463.5489733000004,464.26655720000053,None,463.56540870000026,464.2496253999998,464.7672940000002,None,left,1,0.3673232999999527,464.7672940000002,None,None,463.56540870000026,464.7504362999998,0.511859999999615,0.5951790999997684,1.7133028999996895,1.7967343999998775,,,,,,prithik_2,001,2020_Feb_05_1235,posner,3.1.5,59.964153428812175,
0.5,180,1,right,2,4,1,0,1,0,7,5,61,5,,,,,,,,,465.15154729999995,465.65157009999984,466.3693578000002,None,465.6682679000005,466.35277159999987,466.8701694000001,None,right,1,0.2643548000005467,466.8701694000001,None,None,465.6682679000005,466.85338479999973,0.5116100000004735,0.5951732000003176,1.7134009000001242,1.7968949000005523,,,,,,prithik_2,001,2020_Feb_05_1235,posner,3.1.5,59.964153428812175,
0.5,0,0,right,1,4,1,0,1,0,7,6,62,3,,,,,,,,,467.15445980000004,467.6544754000006,468.3721673,None,467.67121730000054,468.3554595000005,468.87284980000004,None,right,1,0.34167920000072627,468.87284980000004,None,None,467.67121730000054,468.8560674999999,0.5113531999995757,0.5947010999998383,1.7129316000000472,1.7964896999992561,,,,,,prithik_2,001,2020_Feb_05_1235,posner,3.1.5,59.964153428812175,
0.5,180,1,right,2,4,1,0,1,0,7,7,63,7,,,,,,,,,469.2400978000005,469.7405440000002,470.4583818000001,None,469.7573202000003,470.4416925000005,470.95883870000034,None,left,0,0.231726100000742,470.95883870000034,None,None,469.7573202000003,470.94225019999976,0.512331400000221,0.5957110999997894,1.7140013999996881,1.7976521000000503,,,,,,prithik_2,001,2020_Feb_05_1235,posner,3.1.5,59.964153428812175,
0.5,0,0,right,1,4,1,0,1,0,8,0,64,3,,,,,,,,,471.20953890000055,471.7099089000003,472.42757410000013,None,471.7268277000003,472.41095380000024,472.9283503000006,None,right,1,0.27802210000027117,472.9283503000006,None,None,471.7268277000003,472.9116302000002,0.5120609999994485,0.5955986999997549,1.7137602000002516,1.797370499999488,,,,,,prithik_2,001,2020_Feb_05_1235,posner,3.1.5,59.964153428812175,
-0.5,0,1,left,1,3,1,0,1,0,8,1,65,0,,,,,,,,,473.2292832000003,473.72930710000037,474.4471904000002,None,473.7460142,474.43045280000024,474.9478469000005,None,left,1,0.26673049999953946,474.9478469000005,None,None,473.7460142,474.93101110000043,0.5116840000000593,0.5953614999998535,1.7133673999996972,1.7969143999998778,,,,,,prithik_2,001,2020_Feb_05_1235,posner,3.1.5,59.964153428812175,
-0.5,0,1,left,1,3,1,0,1,0,8,2,66,2,,,,,,,,,475.2324576000001,475.7321215000002,476.4496872999998,None,475.74891240000034,476.43334289999984,476.9503365999999,None,left,1,0.3201441999999588,476.9503365999999,None,None,475.74891240000034,476.9340038,0.5112187000004269,0.5949587000004612,1.713067100000444,1.7965099000002738,,,,,,prithik_2,001,2020_Feb_05_1235,posner,3.1.5,59.964153428812175,
0.5,180,1,right,2,4,1,0,1,0,8,3,67,6,,,,,,,,,477.3015660000001,477.8017518000006,478.5193145000003,None,477.8185626000004,478.5026410999999,479.0200026000002,None,right,1,0.3304990999995425,479.0200026000002,None,None,477.8185626000004,479.0035174000004,0.5116686000001209,0.5951010999997379,1.7134079999996175,1.7966152999997576,,,,,,prithik_2,001,2020_Feb_05_1235,posner,3.1.5,59.964153428812175,
-0.5,0,1,left,1,3,1,0,1,0,8,4,68,1,,,,,,,,,479.37144439999975,479.8713908,480.5886608999999,None,479.8878633000004,480.5723188000002,481.0894919000002,None,left,1,0.22893030000068393,481.0894919000002,None,None,479.8878633000004,481.07296750000023,0.5116376000005403,0.594779799999742,1.713180800000373,1.7965424000003622,,,,,,prithik_2,001,2020_Feb_05_1235,posner,3.1.5,59.964153428812175,
0.5,180,1,right,2,4,1,0,1,0,8,5,69,5,,,,,,,,,481.34074539999983,481.84048880000046,482.5581610999998,None,481.85746889999973,482.5414252999999,483.05874610000046,None,right,1,0.2597070999991047,483.05874610000046,None,None,481.85746889999973,483.0422475000005,0.5112592999994376,0.5947919000000184,1.7129918999999063,1.796443199999885,,,,,,prithik_2,001,2020_Feb_05_1235,posner,3.1.5,59.964153428812175,
0.5,180,1,right,2,4,1,0,1,0,8,6,70,7,,,,,,,,,483.34326880000026,483.84335830000055,484.5608232000004,None,483.8598649000005,484.54448690000027,485.06165839999994,None,right,1,0.29671439999947324,485.06165839999994,None,None,483.8598649000005,485.04513229999975,0.5122997999997096,0.595826599999782,1.7140476000004128,1.7973516000001837,,,,,,prithik_2,001,2020_Feb_05_1235,posner,3.1.5,59.964153428812175,
-0.5,180,0,left,2,3,1,0,1,0,8,7,71,4,,,,,,,,,485.37953449999986,485.8793906000001,486.59736820000035,None,485.89621850000003,486.5804968000002,487.0978530000002,None,left,1,0.22048660000018572,487.0978530000002,None,None,485.89621850000003,487.0811941000002,0.5116281999999046,0.5950953000001391,1.7134119000002102,1.7968075999997382,,,,,,prithik_2,001,2020_Feb_05_1235,posner,3.1.5,59.964153428812175,
-0.5,0,1,left,1,3,1,0,1,0,9,0,72,0,,,,,,,,,487.34897569999976,487.8487396999999,488.56655370000044,None,487.8655537000004,488.54980440000054,489.0674522999998,None,left,1,0.29103810000015073,489.0674522999998,None,None,487.8655537000004,489.05046850000053,0.511221800000385,0.5949712000001455,1.712934299999688,1.7965088000000833,,,,,,prithik_2,001,2020_Feb_05_1235,posner,3.1.5,59.964153428812175,
-0.5,0,1,left,1,3,1,0,1,0,9,1,73,1,,,,,,,,,489.38516720000007,489.88500100000056,490.6027044000002,None,489.9015954000006,490.5859390000005,491.10345320000033,None,left,1,0.2548560000004727,491.10345320000033,None,None,489.9015954000006,491.08651650000047,0.5115928000004715,0.5947270000006029,1.713084699999854,1.7966003000001365,,,,,,prithik_2,001,2020_Feb_05_1235,posner,3.1.5,59.964153428812175,
0.5,0,0,right,1,4,1,0,1,0,9,2,74,3,,,,,,,,,491.3876571999999,491.88781130000007,492.60539250000056,None,491.9043958000002,492.58860989999994,493.1059316000001,None,right,1,0.30049849999977596,493.1059316000001,None,None,491.9043958000002,493.08921720000035,0.5116493999994418,0.5950693999993746,1.713036699999975,1.7968181999995068,,,,,,prithik_2,001,2020_Feb_05_1235,posner,3.1.5,59.964153428812175,
0.5,180,1,right,2,4,1,0,1,0,9,3,75,7,,,,,,,,,493.4243299,493.92391380000026,494.6414958000005,None,493.9405628000004,494.62482569999975,495.1421854,None,right,1,0.3120898999995916,495.1421854,None,None,493.9405628000004,495.12563450000016,0.5111900000001697,0.5944881000004898,1.7128880000000208,1.796234700000241,,,,,,prithik_2,001,2020_Feb_05_1235,posner,3.1.5,59.964153428812175,
-0.5,0,1,left,1,3,1,0,1,0,9,4,76,2,,,,,,,,,495.4767707000001,495.97679620000054,496.694383,None,495.9932034000003,496.6776705000002,497.1949684000001,None,left,1,0.2993883999997706,497.1949684000001,None,None,495.9932034000003,497.17833100000007,0.5115691999999399,0.5947416999997586,1.7130826999991768,1.7964478999992934,,,,,,prithik_2,001,2020_Feb_05_1235,posner,3.1.5,59.964153428812175,
-0.5,180,0,left,2,3,1,0,1,0,9,5,77,4,,,,,,,,,497.5133222000004,498.01284750000013,498.73042280000027,None,498.02938429999995,498.7137786000003,499.2312558000003,None,left,1,0.33503639999980805,499.2312558000003,None,None,498.02938429999995,499.21439850000024,0.511231399999815,0.5947403000000122,1.712768700000197,1.796490100000483,,,,,,prithik_2,001,2020_Feb_05_1235,posner,3.1.5,59.964153428812175,
0.5,180,1,right,2,4,1,0,1,0,9,6,78,6,,,,,,,,,499.58259220000036,500.08239120000053,500.7998931000002,None,500.0989298000004,500.78354260000015,501.3005920000005,None,right,1,0.21763609999925393,501.3005920000005,None,None,500.0989298000004,501.2842191999998,0.5116853000008632,0.595100900000034,1.7134882000000289,1.7966024000006655,,,,,,prithik_2,001,2020_Feb_05_1235,posner,3.1.5,59.964153428812175,
0.5,180,1,right,2,4,1,0,1,0,9,7,79,5,,,,,,,,,501.53533310000057,502.03509310000027,502.7526495000002,None,502.0518898999999,502.73613810000006,503.2534179000004,None,right,1,0.4087734000004275,503.2534179000004,None,None,502.0518898999999,503.2365713999998,0.511355800000274,0.5946131000000605,1.7128210999999283,1.7962840999998662,,,,,,prithik_2,001,2020_Feb_05_1235,posner,3.1.5,59.964153428812175,
-0.5,180,0,left,2,3,1,0,1,0,10,0,80,4,,,,,,,,,503.6879961000004,504.1879843000006,504.90572859999975,None,504.2046712000001,504.88890880000054,505.40648839999994,None,left,1,0.2317427999996653,505.40648839999994,None,None,504.2046712000001,505.3894988000002,0.5115186000002723,0.5949764000006326,1.7130181000002267,1.7968282000001636,,,,,,prithik_2,001,2020_Feb_05_1235,posner,3.1.5,59.964153428812175,
0.5,180,1,right,2,4,1,0,1,0,10,1,81,5,,,,,,,,,505.65741080000043,506.15740970000024,506.8751576000004,None,506.17430160000004,506.8584537000006,507.3758305000001,None,right,1,0.23055029999977705,507.3758305000001,None,None,506.17430160000004,507.3588582000002,0.5117262000003393,0.595006800000192,1.7131633999997575,1.7966288999996323,,,,,,prithik_2,001,2020_Feb_05_1235,posner,3.1.5,59.964153428812175,
0.5,180,1,right,2,4,1,0,1,0,10,2,82,6,,,,,,,,,507.62693320000017,508.12684210000043,508.84447439999985,None,508.14349630000015,508.8276759999999,509.3450554000001,None,right,1,0.32519959999990533,509.3450554000001,None,None,508.14349630000015,509.3284199999998,0.5117034999993848,0.5948896999998396,1.7132573999997476,1.7966507999999521,,,,,,prithik_2,001,2020_Feb_05_1235,posner,3.1.5,59.964153428812175,
-0.5,0,1,left,1,3,1,0,1,0,10,3,83,0,,,,,,,,,509.6962239000004,510.19627760000003,510.9140551999999,None,510.2128211999998,510.8971766000004,511.41440539999985,None,left,1,0.2319418000006408,511.41440539999985,None,None,510.2128211999998,511.39804840000033,0.5116526000001613,0.5949112000007517,1.7134031000005052,1.7967082000004666,,,,,,prithik_2,001,2020_Feb_05_1235,posner,3.1.5,59.964153428812175,
-0.5,0,1,left,1,3,1,0,1,0,10,4,84,1,,,,,,,,,511.6653129000006,512.1656598999998,512.8832935,None,512.1824758000002,512.8666629999998,513.3841548,None,left,1,0.3501664000004894,513.3841548,None,None,512.1824758000002,513.3671764000001,0.5117170999992595,0.5949707999998282,1.7132179000000178,1.796642299999803,,,,,,prithik_2,001,2020_Feb_05_1235,posner,3.1.5,59.964153428812175,
0.5,180,1,right,2,4,1,0,1,0,10,5,85,7,,,,,,,,,513.7523772000004,514.2521728000002,514.9704522000002,None,514.2684116999999,514.9527765000003,515.4702948000004,None,right,1,0.24798790000022564,515.4702948000004,None,None,514.2684116999999,515.4540424000006,0.5116146000000299,0.5946706000004269,1.713467600000513,1.7964113000007274,,,,,,prithik_2,001,2020_Feb_05_1235,posner,3.1.5,59.964153428812175,
-0.5,0,1,left,1,3,1,0,1,0,10,6,86,2,,,,,,,,,515.7403359,516.2380369000002,516.9556317000006,None,516.2547082000001,516.9392278000005,517.4562470999999,None,left,1,0.3500973999998678,517.4562470999999,None,None,516.2547082000001,517.4397648000004,0.5113422000003993,0.5946739000000889,1.7130536000004213,1.796190099999876,,,,,,prithik_2,001,2020_Feb_05_1235,posner,3.1.5,59.964153428812175,
0.5,0,0,right,1,4,1,0,1,0,10,7,87,3,,,,,,,,,517.8243807999997,518.3240926999997,519.0416513999999,None,518.3406632000006,519.0249586,519.5431552999999,None,right,1,0.2791012999996383,519.5431552999999,None,None,518.3406632000006,519.5259507000001,0.5112453000001551,0.5947834999997212,1.7131077000003643,1.7963181000004624,,,,,,prithik_2,001,2020_Feb_05_1235,posner,3.1.5,59.964153428812175,
,,,,,,1,0,1,0,,,,,,,,,,,,,,,,,,,,,,,,,,,,,,,,,519.8432929999999,None,1.449999945180025e-05,0.995503799999824,,prithik_2,001,2020_Feb_05_1235,posner,3.1.5,59.964153428812175,
0.5,0,0,right,1,4,2,0,2,0,0,0,0,3,1.1500000255182385e-05,0.09767990000000282,580.859907,None,1.4000000192027073e-05,0.09816829999999754,582.9628343000004,None,583.2377683000004,583.7475322999999,584.4480244000006,None,583.7475322999999,584.4480244000006,584.9487838000005,None,right,1,0.3130857999994987,584.9487838000005,None,None,583.7475322999999,584.9487838000005,0.5014915000001565,0.6017367000004015,1.7031716000001325,1.8033174000001964,,,,,,prithik_2,001,2020_Feb_05_1235,posner,3.1.5,59.964153428812175,
-0.5,0,1,left,1,3,2,0,2,0,0,1,1,2,,,,,,,,,585.2836548000005,585.7835191000004,586.5010460000003,None,585.8001611999998,586.4844312000005,587.0017429,None,left,1,0.30817780000052153,587.0017429,None,None,585.8001611999998,586.9850709000002,0.510758899999928,0.5942489999997633,1.7122995999998238,1.7956973999998809,,,,,,prithik_2,001,2020_Feb_05_1235,posner,3.1.5,59.964153428812175,
-0.5,0,1,left,1,3,2,0,2,0,0,2,2,0,,,,,,,,,587.3361157999998,587.8365031000003,588.5537900999998,None,587.8527894999997,588.5373301,589.0545342000005,None,left,1,0.3353845999999976,589.0545342000005,None,None,587.8527894999997,589.0379503000004,0.511877099999765,0.594992700000148,1.7133106000001135,1.7966645999995308,,,,,,prithik_2,001,2020_Feb_05_1235,posner,3.1.5,59.964153428812175,
0.5,180,1,right,2,4,2,0,2,0,0,3,3,6,,,,,,,,,589.4055603000006,589.9057929999999,590.6234568999998,None,589.9225567000003,590.6068321000002,591.1241641000006,None,right,1,0.25758290000067063,591.1241641000006,None,None,589.9225567000003,591.1074533000001,0.5118314999999711,0.5952741999999489,1.7134677000003649,1.7968387999999322,,,,,,prithik_2,001,2020_Feb_05_1235,posner,3.1.5,59.964153428812175,
-0.5,0,1,left,1,3,2,0,2,0,0,4,4,1,,,,,,,,,591.4084149999999,591.9085157999998,592.6264166000001,None,591.9251521000006,592.6092865999999,593.1268319000001,None,left,1,0.3029394000004686,593.1268319000001,None,None,591.9251521000006,593.1101497,0.511822100000245,0.5953704000003199,1.7134344000005512,1.7973246999999901,,,,,,prithik_2,001,2020_Feb_05_1235,posner,3.1.5,59.964153428812175,
-0.5,180,0,left,2,3,2,0,2,0,0,5,5,4,,,,,,,,,593.4612535000006,593.9613024999999,594.6789770000005,None,593.9780418999999,594.6621776000002,595.1796069000002,None,left,1,0.3382308999998713,595.1796069000002,None,None,593.9780418999999,595.1630524000002,0.5115675000006377,0.5949471000003541,1.7132932000004075,1.7965834000005998,,,,,,prithik_2,001,2020_Feb_05_1235,posner,3.1.5,59.964153428812175,
0.5,180,1,right,2,4,2,0,2,0,0,6,6,5,,,,,,,,,595.5475176,596.0475400000005,596.765523,None,596.0643263000002,596.7484712000005,597.2659646000002,None,right,1,0.2280214000002161,597.2659646000002,None,None,596.0643263000002,597.2490690000004,0.5115780999994968,0.5950513999996474,1.7130974000001515,1.7968462999997428,,,,,,prithik_2,001,2020_Feb_05_1235,posner,3.1.5,59.964153428812175,
0.5,180,1,right,2,4,2,0,2,0,0,7,7,7,,,,,,,,,597.5172014999998,598.0169328000002,598.7346965000006,None,598.0337688999998,598.7178295000003,599.2353112999999,None,right,1,0.3305156000005809,599.2353112999999,None,None,598.0337688999998,599.2184543000003,0.5115914999996676,0.5950611999996909,1.7130858999998964,1.7968889999992825,,,,,,prithik_2,001,2020_Feb_05_1235,posner,3.1.5,59.964153428812175,
-0.5,0,1,left,1,3,2,0,2,0,1,0,8,0,,,,,,,,,599.5866666000002,600.0864938000004,600.8040474,None,600.103161,600.7873741000003,601.3049350000001,None,right,0,0.29291360000024724,601.3049350000001,None,None,600.103161,601.2880198000003,0.5115629000001718,0.5949980999994295,1.713072800000191,1.7966258999995262,,,,,,prithik_2,001,2020_Feb_05_1235,posner,3.1.5,59.964153428812175,
0.5,180,1,right,2,4,2,0,2,0,1,1,9,6,,,,,,,,,601.6225744000003,602.1226726000004,602.8401701000003,None,602.1392248000002,602.8236111000006,603.3408294000001,None,right,1,0.24896420000004582,603.3408294000001,None,None,602.1392248000002,603.3241392,0.5116584000006696,0.5950384000007034,1.713112400000682,1.7966085000007297,,,,,,prithik_2,001,2020_Feb_05_1235,posner,3.1.5,59.964153428812175,
-0.5,0,1,left,1,3,2,0,2,0,1,2,10,2,,,,,,,,,603.6087459,604.1085319000003,604.8264577,None,604.1252656000006,604.8094416000004,605.3269589000001,None,left,1,0.2627888000006351,605.3269589000001,None,None,604.1252656000006,605.3102592000005,0.5115247000003365,0.5950806999999259,1.713235899999745,1.7968940999999177,,,,,,prithik_2,001,2020_Feb_05_1235,posner,3.1.5,59.964153428812175,
-0.5,0,1,left,1,3,2,0,2,0,1,3,11,1,,,,,,,,,605.6115160999998,606.1113731000005,606.8289574999999,None,606.1280727000003,606.8124446000002,607.3296607000002,None,left,1,0.29209069999978965,607.3296607000002,None,None,606.1280727000003,607.3132794000003,0.5115914000007251,0.5950900000007096,1.7134759000000486,1.7967912000003707,,,,,,prithik_2,001,2020_Feb_05_1235,posner,3.1.5,59.964153428812175,
0.5,180,1,right,2,4,2,0,2,0,1,4,12,5,,,,,,,,,607.6473823000006,608.1474174000004,608.8652652999999,None,608.1642249000006,608.848309,609.3657709999998,None,right,1,0.21606080000037764,609.3657709999998,None,None,608.1642249000006,609.3491423000005,0.5117381000000023,0.5952399999996487,1.7134428999997908,1.7968856999996206,,,,,,prithik_2,001,2020_Feb_05_1235,posner,3.1.5,59.964153428812175,
0.5,180,1,right,2,4,2,0,2,0,1,5,13,7,,,,,,,,,609.6002187000004,610.1001934000005,610.8176952000003,None,610.1169295999998,610.8015184000005,611.3183838000004,None,right,1,0.39135970000006637,611.3183838000004,None,None,610.1169295999998,611.3019322,0.5113842999999179,0.5948238000000856,1.713100900000427,1.7964739999997619,,,,,,prithik_2,001,2020_Feb_05_1235,posner,3.1.5,59.964153428812175,
-0.5,180,0,left,2,3,2,0,2,0,1,6,14,4,,,,,,,,,611.7365804000001,612.2366124,612.9542935999998,None,612.2531975000002,612.9377210000002,613.4548058999999,None,left,1,0.23892550000073243,613.4548058999999,None,None,612.2531975000002,613.4385237000006,0.5118155000000115,0.5948920000000726,1.7137126999996326,1.7968528000001243,,,,,,prithik_2,001,2020_Feb_05_1235,posner,3.1.5,59.964153428812175,
0.5,0,0,right,1,4,2,0,2,0,1,7,15,3,,,,,,,,,613.7222245000003,614.2225441999999,614.9404323999997,None,614.2391948000004,614.9236945000002,615.4418199000002,None,right,1,0.39596369999981107,615.4418199000002,None,None,614.2391948000004,615.4241686000005,0.5122984999998152,0.5957522999997309,1.7138759999998001,1.7972256999992169,,,,,,prithik_2,001,2020_Feb_05_1235,posner,3.1.5,59.964153428812175,
-0.5,0,1,left,1,3,2,0,2,0,2,0,16,2,,,,,,,,,615.8587902999998,616.3587050000006,617.0765001,None,616.3753999,617.0600266000001,617.5771180000002,None,left,1,0.2765809000002264,617.5771180000002,None,None,616.3753999,617.5603898999998,0.5115587999998752,0.5949793999998292,1.713224899999659,1.7967977999996947,,,,,,prithik_2,001,2020_Feb_05_1235,posner,3.1.5,59.964153428812175,
0.5,0,0,right,1,4,2,0,2,0,2,1,17,3,,,,,,,,,617.8777237000004,618.3783217999999,619.0960599999999,None,618.3953941,619.0791207000002,619.5965875000002,None,right,1,0.26520179999988613,619.5965875000002,None,None,618.3953941,619.5797373000005,0.5124845999998797,0.595815899999252,1.713881699999547,1.7975547999994888,,,,,,prithik_2,001,2020_Feb_05_1235,posner,3.1.5,59.964153428812175,
0.5,180,1,right,2,4,2,0,2,0,2,2,18,5,,,,,,,,,619.8816065000001,620.3813392000002,621.0985447000003,None,620.3976264000003,621.0821291000002,621.5992993,None,right,1,0.4064251999998305,621.5992993,None,None,620.3976264000003,621.5825819000002,0.511408900000788,0.5944554000006974,1.7126403000002028,1.7961244000007355,,,,,,prithik_2,001,2020_Feb_05_1235,posner,3.1.5,59.964153428812175,
-0.5,0,1,left,1,3,2,0,2,0,2,3,19,0,,,,,,,,,622.0341016000002,622.5339777999998,623.2514863000006,None,622.5506968999998,623.2350531000002,623.7523607000003,None,left,1,0.22122550000040064,623.7523607000003,None,None,622.5506968999998,623.735756,0.5113285999996151,0.5947088000002623,1.7130889000000025,1.7963628999996217,,,,,,prithik_2,001,2020_Feb_05_1235,posner,3.1.5,59.964153428812175,
0.5,180,1,right,2,4,2,0,2,0,2,4,20,6,,,,,,,,,624.0033241000001,624.5034831000003,625.2210214000006,None,624.5200792000005,625.2044514999998,625.7217333999997,None,right,1,0.24417050000010931,625.7217333999997,None,None,624.5200792000005,625.7049182000001,0.5115707000004477,0.5950624000006428,1.7129946000004566,1.7966065000000526,,,,,,prithik_2,001,2020_Feb_05_1235,posner,3.1.5,59.964153428812175,
-0.5,180,0,left,2,3,2,0,2,0,2,5,21,4,,,,,,,,,625.9888992000006,626.4893595000003,627.2071131000002,None,626.5060518999999,627.1903714,627.7078338000001,None,left,1,0.23392429999967135,627.7078338000001,None,None,626.5060518999999,627.6910082000004,0.511419599999499,0.5949167999997371,1.713047899999765,1.7966949999999997,,,,,,prithik_2,001,2020_Feb_05_1235,posner,3.1.5,59.964153428812175,
-0.5,0,1,left,1,3,2,0,2,0,2,6,22,1,,,,,,,,,627.9593783,628.4587246000001,629.1763347000006,None,628.4755509000006,629.1596553999998,629.6772601000002,None,left,1,0.320363300000281,629.6772601000002,None,None,628.4755509000006,629.6602990000001,0.5105085999994117,0.59396629999992,1.7120618999997532,1.7955235999997967,,,,,,prithik_2,001,2020_Feb_05_1235,posner,3.1.5,59.964153428812175,
0.5,180,1,right,2,4,2,0,2,0,2,7,23,7,,,,,,,,,630.0281535000004,630.5280047000006,631.2459765000003,None,630.5448948000003,631.2290675000004,631.7465903000002,None,right,1,0.25909520000004704,631.7465903000002,None,None,630.5448948000003,631.7299272,0.5114090000006399,0.5952725000006467,1.7133231000007072,1.7967708000005587,,,,,,prithik_2,001,2020_Feb_05_1235,posner,3.1.5,59.964153428812175,
0.5,180,1,right,2,4,2,0,2,0,3,0,24,5,,,,,,,,,632.0313176999998,632.5311878000002,633.2484856000001,None,632.5479119000001,633.2319907000001,633.7492336000005,None,left,0,0.2083823000002667,633.7492336000005,None,None,632.5479119000001,633.7327470999999,0.5117495000004055,0.5950924999997369,1.7132874999997512,1.796829400000206,,,,,,prithik_2,001,2020_Feb_05_1235,posner,3.1.5,59.964153428812175,
-0.5,0,1,left,1,3,2,0,2,0,3,1,25,2,,,,,,,,,633.9833988999999,634.4837309000004,635.2015108000005,None,634.5003962999999,635.1846985000002,635.7020184000003,None,left,1,0.31154830000014044,635.7020184000003,None,None,634.5003962999999,635.6853122000002,0.5122756999999183,0.5958022000004348,1.7138377000001128,1.7974386000005325,,,,,,prithik_2,001,2020_Feb_05_1235,posner,3.1.5,59.964153428812175,
-0.5,180,0,left,2,3,2,0,2,0,3,2,26,4,,,,,,,,,636.0367969999998,636.5366740999998,637.2541654000006,None,636.5532168999998,637.2375677999999,637.7550028000005,None,left,1,0.3226981000007072,637.7550028000005,None,None,636.5532168999998,637.7381070000001,0.5116755999997622,0.5949320999998235,1.7130947999994532,1.7965893000000506,,,,,,prithik_2,001,2020_Feb_05_1235,posner,3.1.5,59.964153428812175,
0.5,0,0,right,1,4,2,0,2,0,3,3,27,3,,,,,,,,,638.1060658000006,638.6060441,639.3236881000003,None,638.6228913000004,639.3069691999999,639.8242805999998,None,right,1,0.2616424999996525,639.8242805999998,None,None,638.6228913000004,639.8076513000005,0.5115737999994963,0.5949554999997417,1.7131570999999894,1.7966126999999688,,,,,,prithik_2,001,2020_Feb_05_1235,posner,3.1.5,59.964153428812175,
0.5,180,1,right,2,4,2,0,2,0,3,4,28,7,,,,,,,,,640.1084130999998,640.6086344000005,641.3266272999999,None,640.6255851000005,641.3096590000005,641.8273319,None,right,1,0.3781582999999955,641.8273319,None,None,640.6255851000005,641.8103953999998,0.5120265999994444,0.5955751000001328,1.7137674999994488,1.7973678999996991,,,,,,prithik_2,001,2020_Feb_05_1235,posner,3.1.5,59.964153428812175,
0.5,180,1,right,2,4,2,0,2,0,3,5,29,6,,,,,,,,,642.2281786000003,642.7283787000006,643.4461541000001,None,642.7451467000001,643.4293887000003,643.9468029,None,right,1,0.3389172999995935,643.9468029,None,None,642.7451467000001,643.9300862,0.5118230000007316,0.5951597000002948,1.713510500000666,1.7971016999999847,,,,,,prithik_2,001,2020_Feb_05_1235,posner,3.1.5,59.964153428812175,
-0.5,0,1,left,1,3,2,0,2,0,3,6,30,0,,,,,,,,,644.3153867999999,644.8146646000005,645.5325184000003,None,644.8313646000006,645.5155339000003,646.0328243000004,None,left,1,0.34082020000005286,646.0328243000004,None,None,644.8313646000006,646.0163290999999,0.5112005000000863,0.5944115000002057,1.7128474000001006,1.7961647000001904,,,,,,prithik_2,001,2020_Feb_05_1235,posner,3.1.5,59.964153428812175,
-0.5,0,1,left,1,3,2,0,2,0,3,7,31,1,,,,,,,,,646.4007577000002,646.9007845000006,647.6181833999999,None,646.9174229,647.6017368000003,648.1189452999997,None,left,1,0.31851370000003953,648.1189452999997,None,None,646.9174229,648.1025575000003,0.5115584000004674,0.5950248999997712,1.713306100000409,1.796482200000355,,,,,,prithik_2,001,2020_Feb_05_1235,posner,3.1.5,59.964153428812175,
0.5,180,1,right,2,4,2,0,2,0,4,0,32,6,,,,,,,,,648.4541607000001,648.9535846999997,649.6714227000002,None,648.9703840000002,649.6545453999997,650.1720081000003,None,right,1,0.2975760999997874,650.1720081000003,None,None,648.9703840000002,650.1552737000002,0.511168699999871,0.5947691999999734,1.7128327999998874,1.7961952000005112,,,,,,prithik_2,001,2020_Feb_05_1235,posner,3.1.5,59.964153428812175,
0.5,180,1,right,2,4,2,0,2,0,4,1,33,7,,,,,,,,,650.4904550000001,650.9896521000001,651.7076416,None,651.0064708999998,651.6906371000005,652.2080491000006,None,right,1,0.3654409000000669,652.2080491000006,None,None,651.0064708999998,652.1914333000004,0.5111560000004829,0.5947442000006049,1.7129125999999815,1.7963631000002351,,,,,,prithik_2,001,2020_Feb_05_1235,posner,3.1.5,59.964153428812175,
-0.5,0,1,left,1,3,2,0,2,0,4,2,34,2,,,,,,,,,652.5927628999998,653.0926663,653.8100925999997,None,653.1091575,653.7938224999998,654.3108483000005,None,left,1,0.23881920000076207,654.3108483000005,None,None,653.1091575,654.2941265999998,0.511478100000204,0.5948465999999826,1.7129248999999618,1.7964486000000761,,,,,,prithik_2,001,2020_Feb_05_1235,posner,3.1.5,59.964153428812175,
-0.5,0,1,left,1,3,2,0,2,0,4,3,35,1,,,,,,,,,654.5784155000001,655.0785998000001,655.7963361000002,None,655.0952883,655.7795295000005,656.2970359999999,None,left,1,0.3485138000005463,656.2970359999999,None,None,655.0952883,656.2803216000002,0.5119858999996723,0.5955040999997436,1.7136886999996932,1.7971634999994421,,,,,,prithik_2,001,2020_Feb_05_1235,posner,3.1.5,59.964153428812175,
0.5,180,1,right,2,4,2,0,2,0,4,4,36,5,,,,,,,,,656.6647996000002,657.1649303000004,657.8825560000005,None,657.1817681000002,657.8658781000004,658.3832824000001,None,right,1,0.43813369999952556,658.3832824000001,None,None,657.1817681000002,658.3666527000005,0.5116243999991639,0.5947630000000572,1.7133292999997138,1.7966269999997166,,,,,,prithik_2,001,2020_Feb_05_1235,posner,3.1.5,59.964153428812175,
-0.5,0,1,left,1,3,2,0,2,0,4,5,37,0,,,,,,,,,658.8511760000001,659.3512810000002,660.0687502999999,None,659.3678515000001,660.0522482000006,660.5697255000005,661.0535566999997,left,1,0.4917572000003929,660.5697255000005,None,left,659.3678515000001,660.5530921999998,0.5115555000002132,0.595137600000271,1.713349300000118,1.7966461000005438,,,,,0.9256321000002572,prithik_2,001,2020_Feb_05_1235,posner,3.1.5,59.964153428812175,
-0.5,180,0,left,2,3,2,0,2,0,4,6,38,4,,,,,,,,,661.0877162000006,661.5876422000001,662.3052278000005,None,661.6043915,662.2884242,662.8059171000004,None,left,1,0.3355840000003809,662.8059171000004,None,None,661.6043915,662.7892293000004,0.5114271000002191,0.5951353000000381,1.7129952000004778,1.7966226000007737,,,,,,prithik_2,001,2020_Feb_05_1235,posner,3.1.5,59.964153428812175,
0.5,0,0,right,1,4,2,0,2,0,4,7,39,3,,,,,,,,,663.1572971000005,663.6570179,664.3750301,None,663.6740152000002,664.3580223999998,664.8755200000005,None,right,1,0.33786090000012337,664.8755200000005,None,None,663.6740152000002,664.8587833000001,0.5115519000000859,0.5950002999998105,1.7132942999996885,1.7965715999998793,,,,,,prithik_2,001,2020_Feb_05_1235,posner,3.1.5,59.964153428812175,
-0.5,0,1,left,1,3,2,0,2,0,5,0,40,1,,,,,,,,,665.2431560000005,665.7434211999998,666.4608923000005,None,665.7601592999999,666.4444290000001,666.9617613999999,None,left,1,0.25166640000043117,666.9617613999999,None,None,665.7601592999999,666.9449721999999,0.5117510999998558,0.5952213999999003,1.7132756999999401,1.7966748999997435,,,,,,prithik_2,001,2020_Feb_05_1235,posner,3.1.5,59.964153428812175,
-0.5,180,0,left,2,3,2,0,2,0,5,1,41,4,,,,,,,,,667.2292874000004,667.7292712999997,668.4470775999998,None,667.7461946000003,668.4304905999998,668.9475794999998,None,left,1,0.4260087000002386,668.9475794999998,None,None,667.7461946000003,668.9312417000001,0.5114582000005612,0.5950760000005175,1.7134052999999767,1.7967393999997512,,,,,,prithik_2,001,2020_Feb_05_1235,posner,3.1.5,59.964153428812175,
0.5,180,1,right,2,4,2,0,2,0,5,2,42,5,,,,,,,,,669.3987002000003,669.8988989999998,670.6168253000005,None,669.9157776000002,670.5999486000001,671.1173826000004,None,right,1,0.2879964999992808,671.1173826000004,None,None,669.9157776000002,671.1005858999997,0.511865299999954,0.5953661999992619,1.7135662000000593,1.7972336999991967,,,,,,prithik_2,001,2020_Feb_05_1235,posner,3.1.5,59.964153428812175,
0.5,0,0,right,1,4,2,0,2,0,5,3,43,3,,,,,,,,,671.4352889000002,671.9352312000001,672.6527585000003,None,671.9518010000002,672.6361452000001,673.1535303,None,right,1,0.33196220000081667,673.1535303,None,None,671.9518010000002,673.1369273,0.5116021000003457,0.5948757000005571,1.7132824000000255,1.7967200000002777,,,,,,prithik_2,001,2020_Feb_05_1235,posner,3.1.5,59.964153428812175,
-0.5,0,1,left,1,3,2,0,2,0,5,4,44,0,,,,,,,,,673.5050411000002,674.0046860000002,674.7223937999997,None,674.0215820000003,674.7058274000001,675.2230663,None,left,1,0.2623633000002883,675.2230663,None,None,674.0215820000003,675.2062977000005,0.5112236999993911,0.5943886999993993,1.712815099999716,1.7963025999997626,,,,,,prithik_2,001,2020_Feb_05_1235,posner,3.1.5,59.964153428812175,
-0.5,0,1,left,1,3,2,0,2,0,5,5,45,2,,,,,,,,,675.5077369999999,676.0073166000002,676.7252248000004,None,676.0241621000005,676.7083920000005,677.2260256,None,left,1,0.427605400000175,677.2260256,None,None,676.0241621000005,677.2090914999999,0.5113014000007752,0.5946755000004487,1.7130612000000838,1.79657860000043,,,,,,prithik_2,001,2020_Feb_05_1235,posner,3.1.5,59.964153428812175,
0.5,180,1,right,2,4,2,0,2,0,5,6,46,6,,,,,,,,,677.6772368000002,678.1770610000003,678.8946995000006,None,678.1936953000004,678.8779773000006,679.3955703000001,None,right,1,0.25775619999967603,679.3955703000001,None,None,678.1936953000004,679.3787114000006,0.5113820999995369,0.5947722000000795,1.713030300000355,1.7967816000000312,,,,,,prithik_2,001,2020_Feb_05_1235,posner,3.1.5,59.964153428812175,
0.5,180,1,right,2,4,2,0,2,0,5,7,47,7,,,,,,,,,679.6798274000002,680.1797046000002,680.8973545999997,None,680.1965789000005,680.8810586999998,681.3979938000002,None,right,1,0.41544249999969907,681.3979938000002,None,None,680.1965789000005,681.3817106000006,0.5115859000006822,0.5951036000005843,1.7135707000006732,1.7967984000006254,,,,,,prithik_2,001,2020_Feb_05_1235,posner,3.1.5,59.964153428812175,
0.5,0,0,right,1,4,2,0,2,0,6,0,48,3,,,,,,,,,681.8331304000003,682.3327965999997,683.0504633999999,None,682.3494092999999,683.0338122000003,683.5511765000001,None,right,1,0.3342333000000508,683.5511765000001,None,None,682.3494092999999,683.5344948000002,0.5112744999996721,0.5947521999996752,1.712944800000514,1.7964689000000362,,,,,,prithik_2,001,2020_Feb_05_1235,posner,3.1.5,59.964153428812175,
-0.5,0,1,left,1,3,2,0,2,0,6,1,49,1,,,,,,,,,683.9018470000001,684.4023416999999,685.1198593999998,None,684.418944,685.1032342999997,685.6204948000004,None,left,1,0.30481139999938023,685.6204948000004,None,None,684.418944,685.6039621,0.5125156000003699,0.595851500000208,1.71411739999985,1.7974941000002218,,,,,,prithik_2,001,2020_Feb_05_1235,posner,3.1.5,59.964153428812175,
-0.5,0,1,left,1,3,2,0,2,0,6,2,50,2,,,,,,,,,685.9552683000002,686.4552205999998,687.1729113000001,None,686.4718772000006,687.1562382000002,687.6736263000003,None,left,1,0.3076240999998845,687.6736263000003,None,None,686.4718772000006,687.6568796000001,0.5114912999997614,0.5948285999993459,1.7131237999992663,1.79638309999973,,,,,,prithik_2,001,2020_Feb_05_1235,posner,3.1.5,59.964153428812175,
-0.5,0,1,left,1,3,2,0,2,0,6,3,51,0,,,,,,,,,688.0081197,688.5079949999999,689.2254824000001,None,688.5246627000006,689.2088339000002,689.7264104000005,None,left,1,0.3108711000004405,689.7264104000005,None,None,688.5246627000006,689.7095580000005,0.5116031000006842,0.5950299000005543,1.7131476000004113,1.7966288000006898,,,,,,prithik_2,001,2020_Feb_05_1235,posner,3.1.5,59.964153428812175,
0.5,180,1,right,2,4,2,0,2,0,6,4,52,6,,,,,,,,,690.0607060000002,690.5607074,691.2783423999999,None,690.5773814000004,691.2617369999998,691.7790391999997,None,right,1,0.24220489999970596,691.7790391999997,None,None,690.5773814000004,691.7623285,0.5114346999998816,0.5950082999997903,1.7130384000001868,1.7967957999999271,,,,,,prithik_2,001,2020_Feb_05_1235,posner,3.1.5,59.964153428812175,
0.5,180,1,right,2,4,2,0,2,0,6,5,53,5,,,,,,,,,692.0464223999998,692.5467905000005,693.2645277000001,None,692.5634630000004,693.2476615000005,693.7650776,None,right,1,0.3284512000000177,693.7650776,None,None,692.5634630000004,693.7485487000004,0.512101199999961,0.5955848000003243,1.7138455000003887,1.797236200000043,,,,,,prithik_2,001,2020_Feb_05_1235,posner,3.1.5,59.964153428812175,
0.5,180,1,right,2,4,2,0,2,0,6,6,54,7,,,,,,,,,694.1165072000003,694.6163364000004,695.3339830000004,None,694.6330546999998,695.3173863000002,695.8347199,None,right,1,0.30661030000010214,695.8347199,None,None,694.6330546999998,695.8179466000001,0.5115261000000828,0.5949104000001171,1.7131233999998585,1.7968144999995275,,,,,,prithik_2,001,2020_Feb_05_1235,posner,3.1.5,59.964153428812175,
-0.5,180,0,left,2,3,2,0,2,0,6,7,55,4,,,,,,,,,696.1688728999998,696.6691163000005,697.3869285999999,None,696.6860252000006,697.370183,697.8875175000003,None,left,1,0.2697046999992381,697.8875175000003,None,None,696.6860252000006,697.8708151999999,0.5116821999999956,0.5952243000001545,1.7133187999997972,1.7967914000000746,,,,,,prithik_2,001,2020_Feb_05_1235,posner,3.1.5,59.964153428812175,
0.5,180,1,right,2,4,2,0,2,0,7,0,56,6,,,,,,,,,698.1881508000006,698.6885086000002,699.4064063000005,None,698.7053427999999,699.3895614000003,699.9069359000005,None,right,1,0.2583288000005268,699.9069359000005,None,None,698.7053427999999,699.8902192000005,0.5119387999993705,0.5955698999996457,1.7136244999992414,1.7971957999998267,,,,,,prithik_2,001,2020_Feb_05_1235,posner,3.1.5,59.964153428812175,
0.5,180,1,right,2,4,2,0,2,0,7,1,57,7,,,,,,,,,700.1913024000005,700.6913794000002,701.4088564000003,None,700.7080296000004,701.3924686999999,701.9097948999997,None,right,1,0.3594845000006899,701.9097948999997,None,None,700.7080296000004,701.8930478000002,0.5115901999997732,0.5951287999996566,1.7132449999999153,1.7966978999993444,,,,,,prithik_2,001,2020_Feb_05_1235,posner,3.1.5,59.964153428812175,
-0.5,0,1,left,1,3,2,0,2,0,7,2,58,2,,,,,,,,,702.2942634000001,702.7941527000003,703.5118714,None,702.8110182999999,703.4951222999998,704.0124840999997,None,left,1,0.2808940999993865,704.0124840999997,None,None,702.8110182999999,703.9960233000002,0.5114820000007967,0.5949450000007346,1.7133307000003697,1.7967788000005385,,,,,,prithik_2,001,2020_Feb_05_1235,posner,3.1.5,59.964153428812175,
-0.5,180,0,left,2,3,2,0,2,0,7,3,59,4,,,,,,,,,704.3140109000005,704.8137105000005,705.5315354000004,None,704.8304039000004,705.5147022000001,706.0321461000003,None,left,1,0.3251057999996192,706.0321461000003,None,None,704.8304039000004,706.0153816000002,0.5113928999999189,0.5948010000001887,1.7130550000001676,1.7963509000001068,,,,,,prithik_2,001,2020_Feb_05_1235,posner,3.1.5,59.964153428812175,
0.5,0,0,right,1,4,2,0,2,0,7,4,60,3,,,,,,,,,706.3831971999998,706.8833381000004,707.6008545000004,None,706.8998889000004,707.5841375999998,708.1013798000004,None,right,1,0.32777249999980995,708.1013798000004,None,None,706.8998889000004,708.0849171999998,0.5116800999994666,0.5950001999999586,1.7132419999998092,1.7965899999999237,,,,,,prithik_2,001,2020_Feb_05_1235,posner,3.1.5,59.964153428812175,
-0.5,0,1,left,1,3,2,0,2,0,7,5,61,1,,,,,,,,,708.4528109000003,708.9527690000004,709.6702770000002,None,708.9695341000006,709.6536286,710.1711265000004,None,left,1,0.25014329999976326,710.1711265000004,None,None,708.9695341000006,710.1541484999998,0.5114866999992955,0.5949607999991713,1.7128537999997206,1.7964667999995072,,,,,,prithik_2,001,2020_Feb_05_1235,posner,3.1.5,59.964153428812175,
-0.5,0,1,left,1,3,2,0,2,0,7,6,62,0,,,,,,,,,710.4395085000006,710.9391151999998,711.6565133000004,None,710.9556862999998,711.6399241999998,712.1570213000005,None,left,1,0.2881803000000218,712.1570213000005,None,None,710.9556862999998,712.1402795000004,0.5116790000001856,0.5947236000001794,1.7128192999998646,1.7964959999999337,,,,,,prithik_2,001,2020_Feb_05_1235,posner,3.1.5,59.964153428812175,
0.5,180,1,right,2,4,2,0,2,0,7,7,63,5,,,,,,,,,712.4747791,712.9750429000005,713.6926727,None,712.9915249000005,713.6759183000004,714.1932746000002,714.6771945,right,1,0.500036700000237,714.1932746000002,None,None,712.9915249000005,714.1765547000005,0.511672699999508,0.5949438999996346,1.713167999999314,1.7965080999993006,,,,,,prithik_2,001,2020_Feb_05_1235,posner,3.1.5,59.964153428812175,
-0.5,0,1,left,1,3,2,0,2,0,8,0,64,0,,,,,,,,,714.7118852000003,715.2115057000001,715.9288948000003,None,715.2279950000002,715.9122593000002,716.4296673999997,None,left,1,0.3195187999999689,716.4296673999997,None,None,715.2279950000002,716.4129849000001,0.5115537000001495,0.5947808000000805,1.71301399999993,1.7964502999993783,,,,,,prithik_2,001,2020_Feb_05_1235,posner,3.1.5,59.964153428812175,
0.5,180,1,right,2,4,2,0,2,0,8,1,65,6,,,,,,,,,716.7807171000004,717.2807967999997,717.998396,None,717.2974922000003,717.9818209000005,718.4991306000002,None,right,1,0.29020310000032623,718.4991306000002,None,None,717.2974922000003,718.4824515999999,0.511594900000091,0.5949552000001859,1.7132258000001457,1.796831700000439,,,,,,prithik_2,001,2020_Feb_05_1235,posner,3.1.5,59.964153428812175,
-0.5,0,1,left,1,3,2,0,2,0,8,2,66,1,,,,,,,,,718.8172897000004,719.3169199000004,720.0346449999997,None,719.3338711000006,720.0178108,720.5355158000002,None,left,1,0.28551920000063546,720.5355158000002,None,None,719.3338711000006,720.5184441000001,0.5114689000001817,0.5948215999997046,1.7129789000000528,1.7964902000003349,,,,,,prithik_2,001,2020_Feb_05_1235,posner,3.1.5,59.964153428812175,
0.5,180,1,right,2,4,2,0,2,0,8,3,67,5,,,,,,,,,720.8530822000002,721.3531453000005,722.0706750999998,None,721.3698091000006,722.0539452000003,722.5714489000002,None,right,1,0.36975950000032753,722.5714489000002,None,None,721.3698091000006,722.5547191000005,0.5115085999996154,0.5951525999998921,1.7130692999999155,1.796320299999934,,,,,,prithik_2,001,2020_Feb_05_1235,posner,3.1.5,59.964153428812175,
0.5,0,0,right,1,4,2,0,2,0,8,4,68,3,,,,,,,,,722.9725159,723.4727320000002,724.1903484000004,None,723.4892535999998,724.1737742000005,724.6909092000005,None,right,1,0.338279199999306,724.6909092000005,None,None,723.4892535999998,724.6744999000002,0.5119288999994751,0.5954352999997354,1.7136701999997968,1.7968285999995715,,,,,,prithik_2,001,2020_Feb_05_1235,posner,3.1.5,59.964153428812175,
0.5,180,1,right,2,4,2,0,2,0,8,5,69,7,,,,,,,,,725.0586890000004,725.5588045000004,726.2763655999997,None,725.5756883000004,726.2597035999997,726.7772466000006,None,right,1,0.3318841000000248,726.7772466000006,None,None,725.5756883000004,726.7604842000001,0.5117096000003585,0.5953123999997842,1.7133692999996128,1.7967623000004096,,,,,,prithik_2,001,2020_Feb_05_1235,posner,3.1.5,59.964153428812175,
-0.5,180,0,left,2,3,2,0,2,0,8,6,70,4,,,,,,,,,727.1279749000005,727.6282591999998,728.3462021000005,None,727.645192,728.3293075000001,728.8467994000002,None,left,1,0.23039439999956812,728.8467994000002,None,None,727.645192,728.8299914999998,0.5121124999996027,0.5956056999993962,1.713824299999942,1.797318500000074,,,,,,prithik_2,001,2020_Feb_05_1235,posner,3.1.5,59.964153428812175,
