targetX,cueOri,congr,corrAns,pin_cue,pin_target,block.thisRepN,block.thisTrialN,block.thisN,block.thisIndex,posner_task.thisRepN,posner_task.thisTrialN,posner_task.thisN,posner_task.thisIndex,port_start_block.started,port_start_block.stopped,text_2.started,text_2.stopped,p_port.started,p_port.stopped,text.started,text.stopped,fixation_1.started,fixation_1.stopped,fixation_2.started,fixation_2.stopped,cue.started,cue.stopped,target.started,target.stopped,correct_key_resp.keys,correct_key_resp.corr,correct_key_resp.rt,correct_key_resp.started,correct_key_resp.stopped,early_resp.keys,early_resp.started,early_resp.stopped,trigger_cue.started,trigger_cue.stopped,trigger_target.started,trigger_target.stopped,break_text.started,break_text.stopped,end_port.started,end_port.stopped,early_resp.rt,participant,session,date,expName,psychopyVersion,frameRate,
-0.5,180,0,left,2,3,0,0,0,0,0,0,0,4,1.8700000509852543e-05,0.10271640000064508,21.93222810000043,None,1.5300000086426735e-05,0.09968990000015765,23.81793309999921,None,24.16091100000085,24.66918799999985,25.37016009999934,None,24.66918799999985,25.37016009999934,25.87070069999936,None,left,1,0.45291069999984757,25.87070069999936,None,None,24.66918799999985,25.87070069999936,0.500793999999587,0.6009651999993366,1.7025708000001032,1.8024430999994365,,,,,,oren_1,001,2020_Jan_29_1313,posner,3.1.5,59.90409354601868,
0.5,180,1,right,2,4,0,0,0,0,0,1,1,6,,,,,,,,,26.356276099999377,26.855657899999642,27.573134199999913,None,26.87221259999933,27.556593400000565,28.074027099999512,None,right,1,0.2656788000003871,28.074027099999512,None,None,26.87221259999933,28.057315500000186,0.5105947000010929,0.5939457999993465,1.7122400999996898,1.795607199999722,,,,,,oren_1,001,2020_Jan_29_1313,posner,3.1.5,59.90409354601868,
0.5,180,1,right,2,4,0,0,0,0,0,2,2,7,,,,,,,,,28.358463500000653,28.85843709999972,29.575956000000588,None,28.874977800000124,29.55928649999987,30.076662400000714,None,right,1,0.326958999999988,30.076662400000714,None,None,28.874977800000124,30.059989999999743,0.5116218000002846,0.5948435999998765,1.7131629000014073,1.7967306000009557,,,,,,oren_1,001,2020_Jan_29_1313,posner,3.1.5,59.90409354601868,
0.5,0,0,right,1,4,0,0,0,0,0,3,3,3,,,,,,,,,30.427741999999853,30.92780800000037,31.64557319999949,None,30.944589099999575,31.6288741999997,32.146265100000164,None,right,1,0.3212949999997363,32.146265100000164,None,None,30.944589099999575,32.12942309999926,0.5116268000001583,0.5950045000008686,1.7132220000003144,1.797073800000362,,,,,,oren_1,001,2020_Jan_29_1313,posner,3.1.5,59.90409354601868,
-0.5,0,1,left,1,3,0,0,0,0,0,4,4,0,,,,,,,,,32.49703520000003,32.997460200000205,33.715092899999945,None,33.01398960000006,33.698322899999766,34.21571310000036,None,left,1,0.23588849999941885,34.21571310000036,None,None,33.01398960000006,34.19892869999967,0.5117390999985219,0.5950769999999466,1.7131897999988723,1.7966907999998512,,,,,,oren_1,001,2020_Jan_29_1313,posner,3.1.5,59.90409354601868,
-0.5,0,1,left,1,3,0,0,0,0,0,5,5,2,,,,,,,,,34.48304839999946,34.98343890000069,35.70099719999962,None,34.99993419999919,35.68438839999908,36.20174699999916,None,left,1,0.34578569999939646,36.20174699999916,None,None,34.99993419999919,36.18504910000047,0.5117374000001291,0.5952293000009377,1.713332100000116,1.7968841000001703,,,,,,oren_1,001,2020_Jan_29_1313,posner,3.1.5,59.90409354601868,
0.5,180,1,right,2,4,0,0,0,0,0,6,6,5,,,,,,,,,36.569672899999205,37.069629100000384,37.78743729999951,None,37.0864332000001,37.77054780000071,38.28825669999969,None,right,1,0.2433947999998054,38.28825669999969,None,None,37.0864332000001,38.27127710000059,0.5116146999989724,0.5950518999998167,1.7132440999994287,1.796701799999937,,,,,,oren_1,001,2020_Jan_29_1313,posner,3.1.5,59.90409354601868,
-0.5,0,1,left,1,3,0,0,0,0,0,7,7,1,,,,,,,,,38.555648100000326,39.05566270000054,39.77347849999933,None,39.072430399999575,39.7567411,40.274089399999866,None,left,1,0.2574531999998726,40.274089399999866,None,None,39.072430399999575,40.25722940000014,0.511425099999542,0.5948232999999163,1.7129910999992717,1.7965260000000853,,,,,,oren_1,001,2020_Jan_29_1313,posner,3.1.5,59.90409354601868,
0.5,180,1,right,2,4,0,0,0,0,1,0,8,6,,,,,,,,,40.55856660000063,41.058371299999635,41.77616950000083,None,41.07528099999945,41.75941099999909,42.276898000000074,None,right,1,0.30274260000078357,42.276898000000074,None,None,41.07528099999945,42.26008019999972,0.511526700000104,0.5951195000016014,1.7132149000008212,1.7966202000006888,,,,,,oren_1,001,2020_Jan_29_1313,posner,3.1.5,59.90409354601868,
0.5,0,0,right,1,4,0,0,0,0,1,1,9,3,,,,,,,,,42.61082139999962,43.11121819999971,43.82900250000057,None,43.12817039999936,43.81228569999985,44.32966490000035,None,right,1,0.314066200000525,44.32966490000035,None,None,43.12817039999936,44.31296610000027,0.5118500999997195,0.5953549999994721,1.7138531999989937,1.7969376999990345,,,,,,oren_1,001,2020_Jan_29_1313,posner,3.1.5,59.90409354601868,
-0.5,0,1,left,1,3,0,0,0,0,1,2,10,2,,,,,,,,,44.66450590000022,45.16420470000048,45.88185589999921,None,45.18088209999951,45.8651976000001,46.382719799999904,None,left,1,0.27688080000007176,46.382719799999904,None,None,45.18088209999951,46.365705700000035,0.5113392999992357,0.5948554999995395,1.7128319999992527,1.7963565999998536,,,,,,oren_1,001,2020_Jan_29_1313,posner,3.1.5,59.90409354601868,
-0.5,0,1,left,1,3,0,0,0,0,1,3,11,1,,,,,,,,,46.68377250000049,47.18377209999926,47.90115660000083,None,47.200191100000666,47.88462240000081,48.40186100000028,None,left,1,0.33778220000021975,48.40186100000028,None,None,47.200191100000666,48.385241800000585,0.5117597000007663,0.594943100000819,1.7132213000004413,1.7967891999996937,,,,,,oren_1,001,2020_Jan_29_1313,posner,3.1.5,59.90409354601868,
0.5,180,1,right,2,4,0,0,0,0,1,4,12,5,,,,,,,,,48.769863699999405,49.26972260000002,49.98758810000072,None,49.28655880000042,49.9708327999997,50.48821649999991,None,right,1,0.2514632000002166,50.48821649999991,None,None,49.28655880000042,50.47148779999952,0.5113903000001301,0.5948341000002983,1.7131403999992472,1.7967001999986678,,,,,,oren_1,001,2020_Jan_29_1313,posner,3.1.5,59.90409354601868,
0.5,180,1,right,2,4,0,0,0,0,1,5,13,7,,,,,,,,,50.75578999999925,51.255803599999126,51.973672899999656,None,51.27281439999933,51.95678650000082,52.474297799999476,None,right,1,0.28142230000048585,52.474297799999476,None,None,51.27281439999933,52.45765439999923,0.5114450000000943,0.595039199999519,1.7132803999993484,1.7966075000003912,,,,,,oren_1,001,2020_Jan_29_1313,posner,3.1.5,59.90409354601868,
-0.5,0,1,left,1,3,0,0,0,0,1,6,14,0,,,,,,,,,52.775570300000254,53.27530689999912,53.99301639999976,None,53.292003299999124,53.97649140000067,None,None,left,1,1.7033114000005298,None,None,None,53.292003299999124,54.47708310000053,0.5112549999994371,0.594850100000258,1.7130106999993586,None,,,,,,oren_1,001,2020_Jan_29_1313,posner,3.1.5,59.90409354601868,
-0.5,180,0,left,2,3,0,0,0,0,1,7,15,4,,,,,,,,,54.494290900000124,54.99442850000014,55.711929499999314,None,55.01104789999954,55.695335700000214,56.21292390000053,None,left,1,0.31876760000159265,56.21292390000053,None,None,55.01104789999954,56.19620770000074,0.5110729999996693,0.5944505999996181,1.7128372999995918,1.7961606999997457,,,,,,oren_1,001,2020_Jan_29_1313,posner,3.1.5,59.90409354601868,
0.5,180,1,right,2,4,0,0,0,0,2,0,16,6,,,,,,,,,56.54713459999948,57.04721939999945,57.7650522999993,None,57.06382219999978,57.748230900000635,58.26548179999918,None,right,1,0.2503353000010975,58.26548179999918,None,None,57.06382219999978,58.24894289999975,0.5116182000001572,0.5949086000000534,1.7133216999991419,1.7968194999994012,,,,,,oren_1,001,2020_Jan_29_1313,posner,3.1.5,59.90409354601868,
0.5,0,0,right,1,4,0,0,0,0,2,1,17,3,,,,,,,,,58.53496760000053,59.033357700000124,59.75082570000086,None,59.049885899999936,59.73423790000015,60.25168230000054,None,left,0,0.10396719999880588,60.25168230000054,None,None,59.049885899999936,60.234987800000454,0.5093819000012445,0.5927719999999681,1.710988400000133,1.7943685999998706,,,,,,oren_1,001,2020_Jan_29_1313,posner,3.1.5,59.90409354601868,
-0.5,0,1,left,1,3,0,0,0,0,2,2,18,2,,,,,,,,,60.385463399999935,60.88603730000068,61.60348789999989,None,60.902466800000184,61.5869543000008,62.10429809999914,None,left,1,0.33144630000060715,62.10429809999914,None,None,60.902466800000184,62.08755050000036,0.5117522000000463,0.5949309000006906,1.7132497000002331,1.79665660000137,,,,,,oren_1,001,2020_Jan_29_1313,posner,3.1.5,59.90409354601868,
-0.5,0,1,left,1,3,0,0,0,0,2,3,19,1,,,,,,,,,62.45508990000053,62.955243500000506,63.67327569999907,None,62.972075499999846,63.656315500000346,64.17381290000048,None,left,1,0.2938440999987506,64.17381290000048,None,None,62.972075499999846,64.15704440000081,0.5119057000010798,0.5955699000005552,1.7136840000002849,1.7971962000010535,,,,,,oren_1,001,2020_Jan_29_1313,posner,3.1.5,59.90409354601868,
0.5,180,1,right,2,4,0,0,0,0,2,4,20,5,,,,,,,,,64.49096590000045,64.99150299999928,65.70923690000018,None,65.00839219999943,65.69242289999966,66.20985169999949,None,right,1,0.35384069999963685,66.20985169999949,None,None,65.00839219999943,66.19330669999908,0.512252400001671,0.5956540000006498,1.714034000000538,1.7975094000012177,,,,,,oren_1,001,2020_Jan_29_1313,posner,3.1.5,59.90409354601868,
-0.5,180,0,left,2,3,0,0,0,0,2,5,21,4,,,,,,,,,66.59447770000043,67.09446620000017,67.81211470000017,None,67.11124290000043,67.79538970000067,68.31311909999931,68.79692169999907,left,1,0.5067373999991105,68.31311909999931,None,None,67.11124290000043,68.29601010000079,0.5115435000006983,0.5953652000007423,1.713075800000297,1.7966238999997586,,,,,,oren_1,001,2020_Jan_29_1313,posner,3.1.5,59.90409354601868,
-0.5,0,1,left,1,3,0,0,0,0,2,6,22,0,,,,,,,,,68.84771530000035,69.34767339999962,70.06508629999917,None,69.36439079999946,70.04855789999965,70.56586980000066,None,left,1,0.3338880999999674,70.56586980000066,None,None,69.36439079999946,70.54913750000014,0.511740899999495,0.5949369999998453,1.7131573999995453,1.7969857999996748,,,,,,oren_1,001,2020_Jan_29_1313,posner,3.1.5,59.90409354601868,
0.5,180,1,right,2,4,0,0,0,0,2,7,23,7,,,,,,,,,70.91680439999982,71.41697380000005,72.13490939999974,None,71.43369180000082,72.11825219999992,72.63550860000032,None,right,1,0.3440874999996595,72.63550860000032,None,None,71.43369180000082,72.61890400000084,0.5117157000004227,0.5951509000005899,1.7136272999996436,1.7969274000006408,,,,,,oren_1,001,2020_Jan_29_1313,posner,3.1.5,59.90409354601868,
0.5,0,0,right,1,4,0,0,0,0,3,0,24,3,,,,,,,,,73.00326680000035,73.50331759999972,74.22090469999966,None,73.51995279999937,74.20434260000002,74.72163949999958,None,right,1,0.4179615000011836,74.72163949999958,None,None,73.51995279999937,74.70502820000002,0.5119278000001941,0.5953169999993406,1.7136142999988806,1.7971720000005007,,,,,,oren_1,001,2020_Jan_29_1313,posner,3.1.5,59.90409354601868,
0.5,180,1,right,2,4,0,0,0,0,3,1,25,7,,,,,,,,,75.15637819999938,75.65617249999923,76.37401940000018,None,75.67281349999939,76.35732420000022,76.87475479999921,None,left,0,0.3128658000005089,76.87475479999921,None,None,75.67281349999939,76.85806369999955,0.5114568000008148,0.5949754000012035,1.713325500000792,1.7966095000010682,,,,,,oren_1,001,2020_Jan_29_1313,posner,3.1.5,59.90409354601868,
-0.5,0,1,left,1,3,0,0,0,0,3,2,26,1,,,,,,,,,77.20891429999938,77.70895609999934,78.4267906999994,None,77.7259682999993,78.40990659999989,78.92759429999933,None,left,1,0.3240557999997691,78.92759429999933,None,None,77.7259682999993,78.91063000000031,0.5112644000000728,0.5947271000004548,1.7129079999995156,1.796431599999778,,,,,,oren_1,001,2020_Jan_29_1313,posner,3.1.5,59.90409354601868,
0.5,180,1,right,2,4,0,0,0,0,3,3,27,5,,,,,,,,,79.27852809999968,79.77864760000011,80.49626650000027,None,79.79530800000066,80.47942990000047,80.99683109999933,None,right,1,0.2709642999998323,80.99683109999933,None,None,79.79530800000066,80.9801793000006,0.5117461999998341,0.5951921000014408,1.7132590000001073,1.7967865000009624,,,,,,oren_1,001,2020_Jan_29_1313,posner,3.1.5,59.90409354601868,
-0.5,0,1,left,1,3,0,0,0,0,3,4,28,2,,,,,,,,,81.29778590000024,81.79822559999957,82.51572060000035,None,81.8149310000008,82.49921259999974,83.01638930000081,None,left,1,0.3632231000010506,83.01638930000081,None,None,81.8149310000008,83.00010839999959,0.5118606000014552,0.5949974000013754,1.7137379000014334,1.7967477000001963,,,,,,oren_1,001,2020_Jan_29_1313,posner,3.1.5,59.90409354601868,
-0.5,180,0,left,2,3,0,0,0,0,3,5,29,4,,,,,,,,,83.40119550000054,83.9009442000006,84.6189059999997,None,83.91778569999951,84.60209399999985,85.11914719999913,None,left,1,0.35670659999959753,85.11914719999913,None,None,83.91778569999951,85.1026839999995,0.5114210000010644,0.594745200000034,1.7134215000005497,1.7967379000001529,,,,,,oren_1,001,2020_Jan_29_1313,posner,3.1.5,59.90409354601868,
-0.5,0,1,left,1,3,0,0,0,0,3,6,30,0,,,,,,,,,85.5043370000003,86.00393339999937,86.72155899999962,None,86.02047510000011,86.70485879999978,87.22215250000045,None,left,1,0.42959049999990384,87.22215250000045,None,None,86.02047510000011,87.20557530000042,0.5114405999993323,0.5948487999994541,1.7130698999990273,1.7967014999994717,,,,,,oren_1,001,2020_Jan_29_1313,posner,3.1.5,59.90409354601868,
0.5,180,1,right,2,4,0,0,0,0,3,7,31,6,,,,,,,,,87.6740205999995,88.17364009999983,88.89120390000062,None,88.19034819999979,88.87454009999965,89.3919461000005,None,right,1,0.25974979999955394,89.3919461000005,None,None,88.19034819999979,89.37528559999919,0.5116932000000816,0.5951469999999972,1.7132896000002802,1.7966895999998087,,,,,,oren_1,001,2020_Jan_29_1313,posner,3.1.5,59.90409354601868,
-0.5,0,1,left,1,3,0,0,0,0,4,0,32,1,,,,,,,,,89.67663729999913,90.17656510000052,90.89403239999956,None,90.19295199999942,90.87726379999913,91.3946677999993,None,left,1,0.2250554000002012,91.3946677999993,None,None,90.19295199999942,91.37816290000046,0.5117178999989846,0.5947379999997793,1.7132994000003237,1.7965543999998772,,,,,,oren_1,001,2020_Jan_29_1313,posner,3.1.5,59.90409354601868,
0.5,0,0,right,1,4,0,0,0,0,4,1,33,3,,,,,,,,,91.64548889999969,92.14577119999922,92.8633019000008,None,92.16228760000013,92.84671750000052,93.36421660000087,None,right,1,0.3674745999996958,93.36421660000087,None,None,92.16228760000013,93.34749559999909,0.5116713999996136,0.5949659999987489,1.7133854999992764,1.7964948999997432,,,,,,oren_1,001,2020_Jan_29_1313,posner,3.1.5,59.90409354601868,
-0.5,180,0,left,2,3,0,0,0,0,4,2,34,4,,,,,,,,,93.74850359999982,94.24847690000024,94.96646320000036,None,94.26543700000002,94.94963739999912,95.46705839999959,None,left,1,0.37661819999993895,95.46705839999959,None,None,94.26543700000002,95.45024510000076,0.5116072000000713,0.5952458000010665,1.7133575000007113,1.7968192000007548,,,,,,oren_1,001,2020_Jan_29_1313,posner,3.1.5,59.90409354601868,
0.5,180,1,right,2,4,0,0,0,0,4,3,35,6,,,,,,,,,95.86809069999981,96.36828659999992,97.08611860000019,None,96.38490470000033,97.06928420000077,97.58676659999946,None,right,1,0.2570114999998623,97.58676659999946,None,None,96.38490470000033,97.56979940000019,0.5118460000012419,0.5950928000002023,1.7133475999999064,1.7968923000007635,,,,,,oren_1,001,2020_Jan_29_1313,posner,3.1.5,59.90409354601868,
-0.5,0,1,left,1,3,0,0,0,0,4,4,36,0,,,,,,,,,97.87025779999931,98.37081360000047,99.08884899999975,None,98.38760560000082,99.0718510000006,99.58924699999989,None,left,1,0.33446059999914723,99.58924699999989,None,None,98.38760560000082,99.57282499999928,0.5122967000006611,0.5959973999997601,1.7142891000003146,1.7974833999996918,,,,,,oren_1,001,2020_Jan_29_1313,posner,3.1.5,59.90409354601868,
-0.5,0,1,left,1,3,0,0,0,0,4,5,37,2,,,,,,,,,99.94023480000033,100.44062139999915,101.15833340000063,None,100.45729249999931,101.14140550000047,101.65903830000025,None,left,1,0.3606571000000258,101.65903830000025,None,None,100.45729249999931,101.64210149999963,0.5120769999994081,0.5954937999995309,1.7135431000006065,1.7970611000000645,,,,,,oren_1,001,2020_Jan_29_1313,posner,3.1.5,59.90409354601868,
0.5,180,1,right,2,4,0,0,0,0,4,6,38,7,,,,,,,,,102.04359020000084,102.54334190000009,103.26095639999949,None,102.56001049999941,103.24429330000021,103.76177040000039,None,right,1,0.32209340000008524,103.76177040000039,None,None,102.56001049999941,103.74512689999938,0.5114173000001756,0.5949552000001859,1.713175400000182,1.7966983999995136,,,,,,oren_1,001,2020_Jan_29_1313,posner,3.1.5,59.90409354601868,
0.5,180,1,right,2,4,0,0,0,0,4,7,39,5,,,,,,,,,104.11329529999966,104.61286710000059,105.33049729999948,None,104.62952810000024,105.31396209999912,105.8313008999994,None,right,1,0.31654799999887473,105.8313008999994,None,None,104.62952810000024,105.8147996000007,0.5115707999993901,0.5950931000006676,1.7134862999992038,1.7969345999990765,,,,,,oren_1,001,2020_Jan_29_1313,posner,3.1.5,59.90409354601868,
0.5,180,1,right,2,4,0,0,0,0,5,0,40,6,,,,,,,,,106.16589799999929,106.66552670000056,107.38344449999931,None,106.68239320000066,107.36680960000012,107.8841083999996,None,right,1,0.2795014000002993,107.8841083999996,None,None,106.68239320000066,107.86762549999912,0.5111077000001387,0.5948313000008056,1.713184000000183,1.796342600000571,,,,,,oren_1,001,2020_Jan_29_1313,posner,3.1.5,59.90409354601868,
0.5,180,1,right,2,4,0,0,0,0,5,1,41,5,,,,,,,,,108.18462360000012,108.68515040000057,109.40291509999952,None,108.70178929999929,109.38622469999973,109.90366639999957,None,right,1,0.3401298000007955,109.90366639999957,None,None,108.70178929999929,109.88704999999936,0.5123844999998255,0.5960267999998905,1.7142598000009457,1.797678700000688,,,,,,oren_1,001,2020_Jan_29_1313,posner,3.1.5,59.90409354601868,
-0.5,0,1,left,1,3,0,0,0,0,5,2,42,0,,,,,,,,,110.27130109999962,110.77140680000048,111.48906689999967,None,110.78819629999998,111.47227070000008,111.98988989999998,None,left,1,0.2858414000002085,111.98988989999998,None,None,110.78819629999998,111.97319659999994,0.5115490999996837,0.5951296999992337,1.7133162999998603,1.7966997000003175,,,,,,oren_1,001,2020_Jan_29_1313,posner,3.1.5,59.90409354601868,
-0.5,180,0,left,2,3,0,0,0,0,5,3,43,4,,,,,,,,,112.30747220000012,112.80757070000072,113.52531140000065,None,112.82428849999997,113.5087139999996,114.02585460000046,None,left,1,0.3619245999998384,114.02585460000046,None,None,112.82428849999997,114.0091597999999,0.5115598000011232,0.5949921000010363,1.7131268000011914,1.796640100001241,,,,,,oren_1,001,2020_Jan_29_1313,posner,3.1.5,59.90409354601868,
0.5,0,0,right,1,4,0,0,0,0,5,4,44,3,,,,,,,,,114.41072580000036,114.91034989999935,115.62821310000072,None,114.9271260000005,115.61157719999937,116.12894450000022,None,right,1,0.3388023000006797,116.12894450000022,None,None,114.9271260000005,116.11212700000033,0.5111431999994238,0.5946695999991789,1.7128971000001911,1.7964394999999058,,,,,,oren_1,001,2020_Jan_29_1313,posner,3.1.5,59.90409354601868,
0.5,180,1,right,2,4,0,0,0,0,5,5,45,7,,,,,,,,,116.49660579999909,116.99672129999999,117.71448760000021,None,117.01339700000062,117.69774409999991,118.21502540000074,None,right,1,0.26870939999935217,118.21502540000074,None,None,117.01339700000062,118.19838789999994,0.5118213999994623,0.5951417999986006,1.7134720999983983,1.796907399999327,,,,,,oren_1,001,2020_Jan_29_1313,posner,3.1.5,59.90409354601868,
-0.5,0,1,left,1,3,0,0,0,0,5,6,46,2,,,,,,,,,118.49935990000085,118.99939450000056,119.7172503999991,None,119.0160820000001,119.7003937999998,120.21799230000033,None,left,1,0.31390579999970214,120.21799230000033,None,None,119.0160820000001,120.20098499999949,0.5115350999985822,0.5951552999995329,1.7131139999983134,1.796698899999683,,,,,,oren_1,001,2020_Jan_29_1313,posner,3.1.5,59.90409354601868,
-0.5,0,1,left,1,3,0,0,0,0,5,7,47,1,,,,,,,,,120.55220519999966,121.0521931000003,121.76980539999931,None,121.06909789999918,121.75343240000075,122.2706178999997,None,left,1,0.3572433000008459,122.2706178999997,None,None,121.06909789999918,122.2538569999997,0.5117881000005582,0.5952096000000893,1.713421099999323,1.7969522999992478,,,,,,oren_1,001,2020_Jan_29_1313,posner,3.1.5,59.90409354601868,
-0.5,0,1,left,1,3,0,0,0,0,6,0,48,1,,,,,,,,,122.65510539999923,123.15517309999996,123.87288049999916,None,123.17185539999991,123.85619570000017,124.3736315999995,None,left,1,0.3981625000014901,124.3736315999995,None,None,123.17185539999991,124.35684609999953,0.511626299999989,0.5952746999992087,1.713280300000406,1.796719199999643,,,,,,oren_1,001,2020_Jan_29_1313,posner,3.1.5,59.90409354601868,
-0.5,0,1,left,1,3,0,0,0,0,6,1,49,2,,,,,,,,,124.79110729999957,125.29142949999914,126.00910710000062,None,125.30830950000018,125.99236179999934,126.51003999999921,None,left,1,0.34169850000034785,126.51003999999921,None,None,125.30830950000018,126.49389630000042,0.5114059000006819,0.5950802999996085,1.7138489999997546,1.7964331000002858,,,,,,oren_1,001,2020_Jan_29_1313,posner,3.1.5,59.90409354601868,
0.5,0,0,right,1,4,0,0,0,0,6,2,50,3,,,,,,,,,126.8775784999998,127.37767359999998,128.09484370000064,None,127.39444510000067,128.0785295000005,128.59593639999912,None,right,1,0.23999879999973928,128.59593639999912,None,None,127.39444510000067,128.57937429999947,0.5117391999992833,0.5950752999997349,1.7134179000004224,1.7968103000002884,,,,,,oren_1,001,2020_Jan_29_1313,posner,3.1.5,59.90409354601868,
-0.5,180,0,left,2,3,0,0,0,0,6,3,51,4,,,,,,,,,128.86375120000048,129.3638561000007,130.0812693000007,None,129.38053190000028,130.06492529999923,130.5820848000003,None,left,1,0.317618199998833,130.5820848000003,None,None,129.38053190000028,130.56571389999954,0.5115947000012966,0.5951550000008865,1.7134282999995776,1.7966463000011572,,,,,,oren_1,001,2020_Jan_29_1313,posner,3.1.5,59.90409354601868,
0.5,180,1,right,2,4,0,0,0,0,6,4,52,5,,,,,,,,,130.91640589999952,131.41665020000073,132.13419860000067,None,131.43333100000018,132.11770009999964,132.63512479999918,None,right,1,0.24876260000019101,132.63512479999918,None,None,131.43333100000018,132.61821020000025,0.5116690000013477,0.5949975000003178,1.7132179000000178,1.7967664000007062,,,,,,oren_1,001,2020_Jan_29_1313,posner,3.1.5,59.90409354601868,
0.5,180,1,right,2,4,0,0,0,0,6,5,53,7,,,,,,,,,132.90199799999937,133.40272879999975,134.12022520000028,None,133.41920779999964,134.1037782000003,134.62090159999934,None,right,1,0.24690799999916635,134.62090159999934,None,None,133.41920779999964,134.60442289999992,0.5127446000005875,0.595985699999801,1.7141301999999996,1.7976414999993722,,,,,,oren_1,001,2020_Jan_29_1313,posner,3.1.5,59.90409354601868,
0.5,180,1,right,2,4,0,0,0,0,6,6,54,6,,,,,,,,,134.88885760000085,135.38888399999996,136.10639120000087,None,135.40552349999962,136.0897547000004,136.60704110000006,None,right,1,0.26066499999978987,136.60704110000006,None,None,135.40552349999962,136.59036129999913,0.5116969999999128,0.5949070999995456,1.7131608999989112,1.7971206000001985,,,,,,oren_1,001,2020_Jan_29_1313,posner,3.1.5,59.90409354601868,
-0.5,0,1,left,1,3,0,0,0,0,6,7,55,0,,,,,,,,,136.8915135999996,137.3913909999992,138.10932739999953,None,137.40809489999992,138.0924056999993,138.6097035999992,None,left,1,0.30622260000018287,138.6097035999992,None,None,137.40809489999992,138.59314350000022,0.5113535999989836,0.5947749999995722,1.7130890999997064,1.796564500000386,,,,,,oren_1,001,2020_Jan_29_1313,posner,3.1.5,59.90409354601868,
-0.5,0,1,left,1,3,0,0,0,0,7,0,56,1,,,,,,,,,138.94453240000075,139.44439109999985,140.1620098000003,None,139.4609691000005,140.14538299999913,140.6626871999997,None,left,1,0.2691567000001669,140.6626871999997,None,None,139.4609691000005,140.64615869999943,0.5114599999997154,0.5948081999995338,1.7132115999993403,1.7964821999994456,,,,,,oren_1,001,2020_Jan_29_1313,posner,3.1.5,59.90409354601868,
0.5,0,0,right,1,4,0,0,0,0,7,1,57,3,,,,,,,,,140.96306879999975,141.46390719999908,142.18148610000026,None,141.4806566999996,142.16484449999916,142.68206800000007,None,right,1,0.2498422999997274,142.68206800000007,None,None,141.4806566999996,142.6655740999995,0.5125416999999288,0.595901299999241,1.7141852999993716,1.7974314000002778,,,,,,oren_1,001,2020_Jan_29_1313,posner,3.1.5,59.90409354601868,
-0.5,180,0,left,2,3,0,0,0,0,7,2,58,4,,,,,,,,,142.94993409999915,143.44968750000044,144.16749700000037,None,143.4665098000005,144.15077559999918,144.66849550000006,None,left,1,0.3593139999993582,144.66849550000006,None,None,143.4665098000005,144.65157999999974,0.511327700000038,0.5951053999997384,1.7132050999989588,1.7968294999991485,,,,,,oren_1,001,2020_Jan_29_1313,posner,3.1.5,59.90409354601868,
-0.5,0,1,left,1,3,0,0,0,0,7,3,59,2,,,,,,,,,145.0522108999994,145.55278179999914,146.2703916999999,None,145.56946020000032,146.25366159999976,146.77107419999993,None,left,1,0.2408240000004298,146.77107419999993,None,None,145.56946020000032,146.75464029999966,0.5124291000010999,0.5960511000012048,1.714255900000353,1.7975521999997,,,,,,oren_1,001,2020_Jan_29_1313,posner,3.1.5,59.90409354601868,
0.5,180,1,right,2,4,0,0,0,0,7,4,60,7,,,,,,,,,147.03896779999923,147.53888290000032,148.25653919999968,None,147.55559999999969,148.23996110000007,148.75725109999985,None,right,1,0.014622999999119202,148.75725109999985,None,None,147.55559999999969,148.74058200000036,0.5115902000015922,0.5949717000003147,1.7132721000016318,None,,,,,,oren_1,001,2020_Jan_29_1313,posner,3.1.5,59.90409354601868,
-0.5,0,1,left,1,3,0,0,0,0,7,5,61,0,,,,,,,,,148.79085139999916,149.29119150000042,150.0090426000006,None,149.30797229999916,149.99230650000027,150.5095495000005,None,left,1,0.27831789999981993,150.5095495000005,None,None,149.30797229999916,150.49285380000038,0.5113825999997061,0.5949941999988368,1.7130266999993182,1.7965635000000475,,,,,,oren_1,001,2020_Jan_29_1313,posner,3.1.5,59.90409354601868,
0.5,180,1,right,2,4,0,0,0,0,7,6,62,6,,,,,,,,,150.81048999999985,151.31071770000017,152.02853940000023,None,151.32766319999973,152.01178120000077,152.52902410000024,None,right,1,0.11480759999903967,152.52902410000024,None,None,151.32766319999973,152.5122511999998,0.5117883000002621,0.5951468999992358,1.713303000000451,1.7970621999993455,,,,,,oren_1,001,2020_Jan_29_1313,posner,3.1.5,59.90409354601868,
0.5,180,1,right,2,4,0,0,0,0,7,7,63,5,,,,,,,,,152.6634142999992,153.16320470000028,153.8808465000002,None,153.17991110000003,153.86432360000072,154.38151470000048,154.86571430000004,right,1,0.4863871999987168,154.38151470000048,None,None,153.17991110000003,154.36504120000063,0.5113094999996974,0.5947013999993942,1.7131226000001334,1.7966458999999304,,,,,,oren_1,001,2020_Jan_29_1313,posner,3.1.5,59.90409354601868,
0.5,180,1,right,2,4,0,0,0,0,8,0,64,6,,,,,,,,,154.8991535999994,155.39979049999965,156.11742380000032,None,155.41637140000057,156.10077420000016,156.61825689999932,None,right,1,0.3136754999995901,156.61825689999932,None,None,155.41637140000057,156.6013452999996,0.5121025000007648,0.5954447999993135,1.7136410999992222,1.7973502000004373,,,,,,oren_1,001,2020_Jan_29_1313,posner,3.1.5,59.90409354601868,
0.5,0,0,right,1,4,0,0,0,0,8,1,65,3,,,,,,,,,156.9521439,157.45257010000023,158.1701568999997,None,157.4693060999998,158.15350430000035,158.67083710000043,None,right,1,0.30901689999882365,158.67083710000043,None,None,157.4693060999998,158.65427649999947,0.511309400000755,0.5950790000006236,1.7129918999999063,1.796366799999305,,,,,,oren_1,001,2020_Jan_29_1313,posner,3.1.5,59.90409354601868,
-0.5,0,1,left,1,3,0,0,0,0,8,2,66,1,,,,,,,,,159.0055195999994,159.50540229999933,160.22317699999985,None,159.52202639999996,160.20624639999915,160.72382629999993,161.20780209999975,None,0,,160.72382629999993,None,None,159.52202639999996,160.70710549999967,0.5115574999999808,0.5950429999993503,1.7132375999990472,1.796763499998633,,,,,,oren_1,001,2020_Jan_29_1313,posner,3.1.5,59.90409354601868,
0.5,180,1,right,2,4,0,0,0,0,8,3,67,5,,,,,,,,,161.70842699999957,162.20906250000007,162.92689600000085,161.70842699999957,162.22580460000063,162.90992619999997,163.42742759999965,None,right,1,0.3843759000010323,163.42742759999965,None,None,162.22580460000063,163.41071190000002,0.5135252000000037,0.5968819999998232,1.7151527000005444,1.7988115000007383,,,,,,oren_1,001,2020_Jan_29_1313,posner,3.1.5,59.90409354601868,
-0.5,0,1,left,1,3,0,0,0,0,8,4,68,0,,,,,,,,,163.82852900000034,164.32868690000032,165.04646030000004,None,164.34560280000005,165.02957249999963,165.5469721999998,166.0309569000001,left,1,0.488988099999915,165.5469721999998,None,None,164.34560280000005,165.53034549999938,0.511696600000505,0.5950238000004902,1.7133375000012165,1.79689000000144,,,,,,oren_1,001,2020_Jan_29_1313,posner,3.1.5,59.90409354601868,
-0.5,180,0,left,2,3,0,0,0,0,8,5,69,4,,,,,,,,,166.06547030000002,166.56538999999975,167.28274039999997,None,166.58176230000026,167.2660935999993,167.78373219999958,None,left,1,0.4121334999999817,167.78373219999958,None,None,166.58176230000026,167.76674679999996,0.5117361000011442,0.5949286000013672,1.7130809999998746,1.7964072000013402,,,,,,oren_1,001,2020_Jan_29_1313,posner,3.1.5,59.90409354601868,
0.5,180,1,right,2,4,0,0,0,0,8,6,70,7,,,,,,,,,168.21806409999954,168.7184868000004,169.43578800000068,None,168.73468669999966,169.41919469999993,169.93649279999954,None,right,1,0.25928489999932935,169.93649279999954,None,None,168.73468669999966,169.91958669999985,0.511983300000793,0.5949947999997676,1.7130708999993658,1.7967774000007921,,,,,,oren_1,001,2020_Jan_29_1313,posner,3.1.5,59.90409354601868,
-0.5,0,1,left,1,3,0,0,0,0,8,7,71,2,,,,,,,,,170.22036280000066,170.72088199999962,171.43852250000054,None,170.73767559999942,171.4218067999991,171.9392545999999,None,left,1,0.33665339999970456,171.9392545999999,None,None,170.73767559999942,171.92239859999972,0.5122553999990487,0.5958300999991479,1.7137533000004623,1.7974477999996452,,,,,,oren_1,001,2020_Jan_29_1313,posner,3.1.5,59.90409354601868,
-0.5,0,1,left,1,3,0,0,0,0,9,0,72,2,,,,,,,,,172.30674329999965,172.80706160000045,173.5247285000005,None,172.8238462999998,173.5081551000003,174.02541759999986,None,left,1,0.2824778999984119,174.02541759999986,None,None,172.8238462999998,174.00871870000083,0.5115088999991713,0.5950672999988456,1.7131534999989526,1.796925900000133,,,,,,oren_1,001,2020_Jan_29_1313,posner,3.1.5,59.90409354601868,
0.5,0,0,right,1,4,0,0,0,0,9,1,73,3,,,,,,,,,174.32657819999986,174.82657140000083,175.54430759999923,None,174.8431877999992,175.52766100000008,176.04505869999957,None,right,1,0.34276970000064466,176.04505869999957,None,None,174.8431877999992,176.0282446000001,0.5114885000002687,0.5947928999994474,1.713147399999798,1.7966919999998936,,,,,,oren_1,001,2020_Jan_29_1313,posner,3.1.5,59.90409354601868,
0.5,180,1,right,2,4,0,0,0,0,9,2,74,5,,,,,,,,,176.41311519999908,176.91292839999915,177.63045190000048,None,176.9292764999991,177.6138351999998,178.13107329999912,178.6151530999996,right,1,0.656954099998984,178.13107329999912,None,None,176.9292764999991,178.11446120000073,0.5116604000013467,0.5948312000000442,1.7131778000002669,1.7967016000002332,,,,,,oren_1,001,2020_Jan_29_1313,posner,3.1.5,59.90409354601868,
-0.5,0,1,left,1,3,0,0,0,0,9,3,75,0,,,,,,,,,178.81631820000075,179.31597909999982,180.03389620000053,None,179.33283119999942,180.01698749999923,180.53437029999986,None,left,1,0.23753509999914968,180.53437029999986,None,None,179.33283119999942,180.5178250000008,0.5112554999996064,0.5948332999996637,1.7130844999992405,1.796438899998975,,,,,,oren_1,001,2020_Jan_29_1313,posner,3.1.5,59.90409354601868,
-0.5,180,0,left,2,3,0,0,0,0,9,4,76,4,,,,,,,,,180.80154910000056,181.30200110000078,182.01978269999927,None,181.31908499999918,182.0033911999999,182.5204135999993,None,left,1,0.36345299999993586,182.5204135999993,None,None,181.31908499999918,182.50394489999962,0.5117405000000872,0.5953293000002304,1.713662199999817,1.7971506000012596,,,,,,oren_1,001,2020_Jan_29_1313,posner,3.1.5,59.90409354601868,
0.5,180,1,right,2,4,0,0,0,0,9,5,77,7,,,,,,,,,182.90523360000043,183.4051868000006,184.1226860000006,None,183.42174499999965,184.1060479000007,184.6235130999994,None,right,1,0.22836349999852246,184.6235130999994,None,None,183.42174499999965,184.6067062000002,0.5115892000012536,0.5950097000004462,1.7130931000010605,1.7966463000011572,,,,,,oren_1,001,2020_Jan_29_1313,posner,3.1.5,59.90409354601868,
0.5,180,1,right,2,4,0,0,0,0,9,6,78,6,,,,,,,,,184.8746955000006,185.37459280000076,186.0920917000003,None,185.39118640000015,186.0754510000006,186.59296240000003,None,right,1,0.22693620000063675,186.59296240000003,None,None,185.39118640000015,186.57613370000036,0.5114730000004784,0.5947104999995645,1.7130004999999073,1.7963751000006596,,,,,,oren_1,001,2020_Jan_29_1313,posner,3.1.5,59.90409354601868,
-0.5,0,1,left,1,3,0,0,0,0,9,7,79,1,,,,,,,,,186.84362069999952,187.3439656999999,188.06148159999975,None,187.36039139999957,188.0448720000004,188.56207990000075,None,left,1,0.32166159999906085,188.56207990000075,None,None,187.36039139999957,188.54546649999975,0.5114685999997164,0.5948690000004717,1.712959200000114,1.7964640999998664,,,,,,oren_1,001,2020_Jan_29_1313,posner,3.1.5,59.90409354601868,
0.5,180,1,right,2,4,0,0,0,0,10,0,80,6,,,,,,,,,188.91270350000013,189.41336899999988,190.13094740000088,None,189.42996409999978,190.11440810000022,190.6316599999991,None,right,1,0.3002548000004026,190.6316599999991,None,None,189.42996409999978,190.61519000000044,0.5124739999992016,0.5959461999991618,1.7142714999990858,1.7975501999990229,,,,,,oren_1,001,2020_Jan_29_1313,posner,3.1.5,59.90409354601868,
-0.5,0,1,left,1,3,0,0,0,0,10,1,81,2,,,,,,,,,190.9495726999994,191.44948959999965,192.1672385999991,None,191.4662840000001,192.1501946999997,192.66779379999934,None,left,1,0.28013259999897855,192.66779379999934,None,None,191.4662840000001,192.65099069999997,0.511539699999048,0.5950176999995165,1.7130264999996143,1.796659899999213,,,,,,oren_1,001,2020_Jan_29_1313,posner,3.1.5,59.90409354601868,
0.5,180,1,right,2,4,0,0,0,0,10,2,82,7,,,,,,,,,192.9690260999996,193.46883490000073,194.18687649999993,None,193.48582729999907,194.1698737000006,194.6873445000001,None,right,1,0.24471280000034312,194.6873445000001,None,None,193.48582729999907,194.6705435999993,0.5114212999997108,0.5949662999992142,1.7131117999997514,1.7967186999994738,,,,,,oren_1,001,2020_Jan_29_1313,posner,3.1.5,59.90409354601868,
0.5,180,1,right,2,4,0,0,0,0,10,3,83,5,,,,,,,,,194.9547148999991,195.45505419999972,196.17255560000012,None,195.47176020000006,196.15608659999998,196.67390279999927,None,right,1,0.22602680000090913,196.67390279999927,None,None,195.47176020000006,196.65675630000078,0.5113113000006706,0.5947587000009662,1.712987000000794,1.7964406000010058,,,,,,oren_1,001,2020_Jan_29_1313,posner,3.1.5,59.90409354601868,
-0.5,0,1,left,1,3,0,0,0,0,10,4,84,1,,,,,,,,,196.92416009999943,197.42444199999954,198.14218020000044,None,197.44114640000043,198.1253073000007,198.64281180000035,None,left,1,0.03312580000056187,198.64281180000035,None,None,197.44114640000043,198.62610339999992,0.5121804999998858,0.5957259000006161,1.713825299999371,None,,,,,,oren_1,001,2020_Jan_29_1313,posner,3.1.5,59.90409354601868,
-0.5,180,0,left,2,3,0,0,0,0,10,5,85,4,,,,,,,,,198.69387319999987,199.19368150000082,199.91103669999939,None,199.2101442000003,199.89448939999966,200.41184919999978,None,right,0,0.26412770000024466,200.41184919999978,None,None,199.2101442000003,200.3952504000008,0.5115347999999358,0.594891100001405,1.7130873000005522,1.7965289000003395,,,,,,oren_1,001,2020_Jan_29_1313,posner,3.1.5,59.90409354601868,
0.5,0,0,right,1,4,0,0,0,0,10,6,86,3,,,,,,,,,200.6965584999998,201.19635709999966,201.91398800000024,None,201.21290810000028,201.89735629999996,202.4147410000005,None,right,1,0.3251404000002367,202.4147410000005,None,None,201.21290810000028,202.39825139999994,0.511066999999457,0.5942455999993399,1.7129456000002392,1.7960783999988053,,,,,,oren_1,001,2020_Jan_29_1313,posner,3.1.5,59.90409354601868,
-0.5,0,1,left,1,3,0,0,0,0,10,7,87,0,,,,,,,,,202.76599130000068,203.26581280000028,203.98350989999926,None,203.28248030000032,203.96686779999982,204.4842946000008,None,left,1,0.33585279999897466,204.4842946000008,None,None,203.28248030000032,204.46755080000003,0.511429500000304,0.5949347000005218,1.7131564999999682,1.7965371999998752,,,,,,oren_1,001,2020_Jan_29_1313,posner,3.1.5,59.90409354601868,
,,,,,,0,0,0,0,,,,,,,,,,,,,,,,,,,,,,,,,,,,,,,,,204.85209869999926,None,2.029999996011611e-05,0.9960338999990199,,oren_1,001,2020_Jan_29_1313,posner,3.1.5,59.90409354601868,
0.5,180,1,right,2,4,1,0,1,0,0,0,0,5,1.1800000720540993e-05,0.0975680999999895,265.86892009999974,None,1.5199999324977398e-05,0.09788379999918106,267.9719205000001,None,268.24948720000066,268.75623819999964,269.4571749000006,None,268.77302410000084,269.4571749000006,269.9580965999994,None,right,1,0.3342456999998831,269.9580965999994,None,None,268.77302410000084,269.9580965999994,0.5165127000000211,0.599922699999297,1.7015412999990076,1.801659999999174,,,,,,oren_1,001,2020_Jan_29_1313,posner,3.1.5,59.90409354601868,
-0.5,0,1,left,1,3,1,0,1,0,0,1,1,1,,,,,,,,,270.3089822999991,270.80915280000045,271.5268257000007,None,270.8259149000005,271.50991740000063,272.02763369999957,None,left,1,0.24838439999984985,272.02763369999957,None,None,270.8259149000005,272.0107468999995,0.5108818999997311,0.5943091999997705,1.7124595000004774,1.7958811999997124,,,,,,oren_1,001,2020_Jan_29_1313,posner,3.1.5,59.90409354601868,
-0.5,0,1,left,1,3,1,0,1,0,0,2,2,2,,,,,,,,,272.29529680000087,272.7953531000003,273.5127415999996,None,272.8119117999995,273.49626270000044,274.0134579000005,None,left,1,0.27865120000024035,274.0134579000005,None,None,272.8119117999995,273.9967125000003,0.5116199000003689,0.5949799999998504,1.7129666000000725,1.796567999999752,,,,,,oren_1,001,2020_Jan_29_1313,posner,3.1.5,59.90409354601868,
0.5,180,1,right,2,4,1,0,1,0,0,3,3,6,,,,,,,,,274.3150157,274.8148834000003,275.53237850000005,None,274.83133930000076,275.5156447999998,276.03298899999936,None,right,1,0.21127620000152092,276.03298899999936,None,None,274.83133930000076,276.01626100000067,0.5119883999996091,0.5953636999984155,1.7133570999994845,1.7970270999994682,,,,,,oren_1,001,2020_Jan_29_1313,posner,3.1.5,59.90409354601868,
0.5,0,0,right,1,4,1,0,1,0,0,4,4,3,,,,,,,,,276.26754099999926,276.7674203000006,277.48502709999957,None,276.78405310000016,277.4683645999994,277.98587530000077,None,right,1,0.3541664000003948,277.98587530000077,None,None,276.78405310000016,277.9689935000006,0.5115649999988818,0.5949256000003516,1.7131155000006402,1.7964647999997396,,,,,,oren_1,001,2020_Jan_29_1313,posner,3.1.5,59.90409354601868,
0.5,180,1,right,2,4,1,0,1,0,0,5,5,7,,,,,,,,,278.36991409999973,278.8702205999998,279.5882342999994,None,278.8870031000006,279.57113019999997,280.0888756000004,None,right,1,0.36329809999915597,280.0888756000004,None,None,278.8870031000006,280.07190719999926,0.5115992999999435,0.5950594999994792,1.7132694000010815,1.7966890999996394,,,,,,oren_1,001,2020_Jan_29_1313,posner,3.1.5,59.90409354601868,
-0.5,180,0,left,2,3,1,0,1,0,0,6,6,4,,,,,,,,,280.47346219999963,280.9731021000007,281.69081499999993,None,280.9898778000006,281.67440800000077,282.19154850000086,None,left,1,0.37251669999932346,282.19154850000086,None,None,280.9898778000006,282.1749485,0.511340700000801,0.5948179000006348,1.7131638999999268,1.7965008999999554,,,,,,oren_1,001,2020_Jan_29_1313,posner,3.1.5,59.90409354601868,
-0.5,0,1,left,1,3,1,0,1,0,0,7,7,0,,,,,,,,,282.59273199999916,283.09266650000063,283.81035540000084,None,283.1094962999996,283.7937574000007,284.3111222000007,None,left,1,0.38097259999995003,284.3111222000007,None,None,283.1094962999996,284.2944231999991,0.5114565000003495,0.5952554000014061,1.713185300000987,1.7967047000001912,,,,,,oren_1,001,2020_Jan_29_1313,posner,3.1.5,59.90409354601868,
-0.5,0,1,left,1,3,1,0,1,0,1,0,8,1,,,,,,,,,284.71158450000075,285.2122517000007,285.9299379999993,None,285.2290173000001,285.91323100000045,286.4305311999997,None,left,1,0.3254848000015045,286.4305311999997,None,None,285.2290173000001,286.41414310000073,0.5114160000011907,0.5950449000010849,1.7132658999998966,1.7965287000006356,,,,,,oren_1,001,2020_Jan_29_1313,posner,3.1.5,59.90409354601868,
-0.5,0,1,left,1,3,1,0,1,0,1,1,9,0,,,,,,,,,286.7819431000007,287.2817727999991,287.99945339999977,None,287.29864970000017,287.9827893999991,288.5001252999991,None,left,1,0.23999100000037288,288.5001252999991,None,None,287.29864970000017,288.4837332999996,0.511541900001248,0.5952249000001757,1.7134829000005993,1.7966495000000577,,,,,,oren_1,001,2020_Jan_29_1313,posner,3.1.5,59.90409354601868,
-0.5,180,0,left,2,3,1,0,1,0,1,2,10,4,,,,,,,,,288.7677915000004,289.2678730000007,289.9857355000004,None,289.28477999999996,289.96912639999937,290.48639360000016,None,left,1,0.3497895000000426,290.48639360000016,None,None,289.28477999999996,290.4696688999993,0.5115944000008312,0.5947391999998217,1.7133766999995714,1.796684599999935,,,,,,oren_1,001,2020_Jan_29_1313,posner,3.1.5,59.90409354601868,
0.5,180,1,right,2,4,1,0,1,0,1,3,11,6,,,,,,,,,290.8544301000002,291.35426130000087,292.0716451999997,None,291.37073959999907,292.0551171999996,292.5724145000004,None,right,1,0.3276026000003185,292.5724145000004,None,None,291.37073959999907,292.55573059999915,0.5115953999993508,0.595067399999607,1.7130564999988565,1.7966505999993387,,,,,,oren_1,001,2020_Jan_29_1313,posner,3.1.5,59.90409354601868,
0.5,180,1,right,2,4,1,0,1,0,1,4,12,5,,,,,,,,,292.9239187999992,293.42377569999917,294.14136359999975,None,293.4404742000006,294.1246295000001,294.6420264999997,None,right,1,0.22605040000053123,294.6420264999997,None,None,293.4404742000006,294.6253429999997,0.5116854999996576,0.5950351999999839,1.7132296999989194,1.796776499999396,,,,,,oren_1,001,2020_Jan_29_1313,posner,3.1.5,59.90409354601868,
0.5,180,1,right,2,4,1,0,1,0,1,5,13,7,,,,,,,,,294.8934726000007,295.3930240999998,296.1105664000006,None,295.4097266000008,296.09414880000077,296.61141040000075,None,right,1,0.22461289999955625,296.61141040000075,None,None,295.4097266000008,296.5947945000007,0.5115308000004006,0.594947300000058,1.7132824000000255,1.797223200001099,,,,,,oren_1,001,2020_Jan_29_1313,posner,3.1.5,59.90409354601868,
-0.5,0,1,left,1,3,1,0,1,0,1,6,14,2,,,,,,,,,296.86268500000006,297.36247449999973,298.0800987999992,None,297.3791466999992,298.06363600000077,298.580731,None,left,1,0.14335409999875992,298.580731,None,None,297.3791466999992,298.5641245000006,0.5115303999991738,0.5950659999998607,1.7131625000001804,1.7965313999993668,,,,,,oren_1,001,2020_Jan_29_1313,posner,3.1.5,59.90409354601868,
0.5,0,0,right,1,4,1,0,1,0,1,7,15,3,,,,,,,,,298.74833319999925,299.2484093000003,299.96600000000035,None,299.26521590000084,299.9492570000002,300.46675460000006,None,right,1,0.3056899000002886,300.46675460000006,None,None,299.26521590000084,300.4499725000005,0.5115806000012526,0.5949438999996346,1.7131218000013178,1.7967360000002373,,,,,,oren_1,001,2020_Jan_29_1313,posner,3.1.5,59.90409354601868,
-0.5,0,1,left,1,3,1,0,1,0,2,0,16,0,,,,,,,,,300.8007765000002,301.30114219999996,302.0190736000004,None,301.31802179999977,302.00217650000013,302.5195094999999,None,left,1,0.25268340000002354,302.5195094999999,None,None,301.31802179999977,302.50284119999924,0.5120191999994859,0.5955386000005092,1.713728099999571,1.797154199999568,,,,,,oren_1,001,2020_Jan_29_1313,posner,3.1.5,59.90409354601868,
0.5,0,0,right,1,4,1,0,1,0,2,1,17,3,,,,,,,,,302.8040655999994,303.3040624000005,304.02155289999973,None,303.3206042999991,304.00510530000065,304.5222133999996,None,right,1,0.2660429000006843,304.5222133999996,None,None,303.3206042999991,304.5057092999996,0.5115346999991743,0.5949125999995886,1.7131691999984469,1.7967073999989225,,,,,,oren_1,001,2020_Jan_29_1313,posner,3.1.5,59.90409354601868,
0.5,180,1,right,2,4,1,0,1,0,2,2,18,6,,,,,,,,,304.80698719999964,305.30679860000055,306.0243671999997,None,305.3233947000008,306.00790059999963,306.5252755999991,None,right,1,0.21486999999979162,306.5252755999991,None,None,305.3233947000008,306.5084282000007,0.511212000001251,0.5947040999999444,1.712831200000437,1.7963648000004468,,,,,,oren_1,001,2020_Jan_29_1313,posner,3.1.5,59.90409354601868,
-0.5,0,1,left,1,3,1,0,1,0,2,3,19,2,,,,,,,,,306.7595258000001,307.25946269999986,307.9770762999997,None,307.2762406999991,307.9602534000005,308.4777854999993,None,left,1,0.21431930000107968,308.4777854999993,None,None,307.2762406999991,308.46103570000014,0.5114632000004349,0.5948862999994162,1.7130221000006713,1.7966655000000173,,,,,,oren_1,001,2020_Jan_29_1313,posner,3.1.5,59.90409354601868,
-0.5,180,0,left,2,3,1,0,1,0,2,4,20,4,,,,,,,,,308.7121422,309.2120637000007,309.9299114000005,None,309.2288516999997,309.9130714999992,310.43026719999943,None,left,1,0.38992340000004333,310.43026719999943,None,None,309.2288516999997,310.4138017999994,0.511579799998799,0.5951725999984774,1.7132942999996885,1.7966951999987941,,,,,,oren_1,001,2020_Jan_29_1313,posner,3.1.5,59.90409354601868,
0.5,180,1,right,2,4,1,0,1,0,2,5,21,7,,,,,,,,,310.84840729999996,311.34868950000055,312.06599769999957,None,311.3652019000001,312.0494011999999,312.5667788999999,None,right,1,0.38135979999970004,312.5667788999999,None,None,311.3652019000001,312.55002160000004,0.5118298999987019,0.5949282000001404,1.713148099999671,1.796721599999728,,,,,,oren_1,001,2020_Jan_29_1313,posner,3.1.5,59.90409354601868,
-0.5,0,1,left,1,3,1,0,1,0,2,6,22,1,,,,,,,,,312.96832240000003,313.4681791999992,314.1857172,None,313.4846056999995,314.1689434,314.68662439999935,None,left,1,0.30937360000098124,314.68662439999935,None,None,313.4846056999995,314.66967809999915,0.5115282999995543,0.5947438000002876,1.7130151000001206,1.7966952999995556,,,,,,oren_1,001,2020_Jan_29_1313,posner,3.1.5,59.90409354601868,
0.5,180,1,right,2,4,1,0,1,0,2,7,23,5,,,,,,,,,315.02061010000034,315.5208748999994,316.23870650000026,None,315.53779770000074,316.2216733999994,316.7392141,None,left,0,0.2889893999999913,316.7392141,None,None,315.53779770000074,316.7224040000001,0.5118601000012859,0.5953485000009096,1.7133739000000787,1.7967856000013853,,,,,,oren_1,001,2020_Jan_29_1313,posner,3.1.5,59.90409354601868,
0.5,180,1,right,2,4,1,0,1,0,3,0,24,7,,,,,,,,,317.0567169999995,317.5571424999998,318.2746509000008,None,317.5736386999997,318.2580679999992,318.7754306000006,None,left,0,0.3487150000000838,318.7754306000006,None,None,317.5736386999997,318.75880470000084,0.511535499999809,0.594929000000775,1.7131816000000981,1.7967143999994732,,,,,,oren_1,001,2020_Jan_29_1313,posner,3.1.5,59.90409354601868,
0.5,180,1,right,2,4,1,0,1,0,3,1,25,5,,,,,,,,,319.1442346999993,319.6433367000009,320.3608387000004,None,319.6597134000003,320.3442453000007,320.8615742999991,None,left,0,0.32655110000087006,320.8615742999991,None,None,319.6597134000003,320.8448669999998,0.5117423000010604,0.595039200001338,1.7132570000012493,1.7967860000007931,,,,,,oren_1,001,2020_Jan_29_1313,posner,3.1.5,59.90409354601868,
0.5,180,1,right,2,4,1,0,1,0,3,2,26,6,,,,,,,,,321.2126279999993,321.71266189999915,322.43025099999977,None,321.7292973000003,322.41378409999925,322.93098199999986,None,right,1,0.24105600000075356,322.93098199999986,None,None,321.7292973000003,322.9144290000004,0.5114799000002677,0.5950611000007484,1.713238000000274,1.7966680999998061,,,,,,oren_1,001,2020_Jan_29_1313,posner,3.1.5,59.90409354601868,
0.5,0,0,right,1,4,1,0,1,0,3,3,27,3,,,,,,,,,323.19860159999917,323.6989838999998,324.41649139999936,None,323.7155177000004,324.3997091000001,324.9171217000003,None,right,1,0.41503019999981916,324.9171217000003,None,None,323.7155177000004,324.90029270000014,0.5118894999995973,0.5950147999992623,1.7131862999995064,1.7968404999992345,,,,,,oren_1,001,2020_Jan_29_1313,posner,3.1.5,59.90409354601868,
-0.5,0,1,left,1,3,1,0,1,0,3,4,28,1,,,,,,,,,325.3510045000003,325.85169999999925,326.5694136000002,None,325.86841559999993,326.55268009999963,327.0699358999991,None,left,1,0.35814879999998084,327.0699358999991,None,None,325.86841559999993,327.0535789000005,0.5120725999986462,0.595628899998701,1.7139436999987083,1.797337799998786,,,,,,oren_1,001,2020_Jan_29_1313,posner,3.1.5,59.90409354601868,
-0.5,0,1,left,1,3,1,0,1,0,3,5,29,0,,,,,,,,,327.45430250000027,327.95468729999993,328.6721835999997,None,327.9713327999998,328.6557997,329.17300649999925,329.6569861000007,None,0,,329.17300649999925,None,None,327.9713327999998,329.1564374999998,0.5120342000009259,0.5956092000014905,1.7137597000000824,1.797318599999926,,,,,,oren_1,001,2020_Jan_29_1313,posner,3.1.5,59.90409354601868,
-0.5,180,0,left,2,3,1,0,1,0,3,6,30,4,,,,,,,,,330.15789699999914,330.6585314999993,331.37605930000063,330.15789699999914,330.6752825000003,331.3594541000002,331.8768390000005,None,left,1,0.3834232000008342,331.8768390000005,None,None,330.6752825000003,331.86000740000054,0.5139774999988731,0.5974298000000999,1.715443299999606,1.7989127000000735,,,,,,oren_1,001,2020_Jan_29_1313,posner,3.1.5,59.90409354601868,
-0.5,0,1,left,1,3,1,0,1,0,3,7,31,2,,,,,,,,,332.2780894999996,332.77811979999933,333.4955699000002,None,332.79478519999975,333.4790334999998,333.9962660000001,None,left,1,0.32775369999944814,333.9962660000001,None,None,332.79478519999975,333.97962240000015,0.5116182000001572,0.5950482999996893,1.7131098999998358,1.7965490999995382,,,,,,oren_1,001,2020_Jan_29_1313,posner,3.1.5,59.90409354601868,
-0.5,0,1,left,1,3,1,0,1,0,4,0,32,2,,,,,,,,,334.34756879999986,334.8473845999997,335.5654159000005,None,334.8643243000006,335.5486825000007,336.06570850000026,None,left,1,0.27448069999991276,336.06570850000026,None,None,334.8643243000006,336.04935300000034,0.5111980000001495,0.5947039000002405,1.7131454999998823,1.7964418999999907,,,,,,oren_1,001,2020_Jan_29_1313,posner,3.1.5,59.90409354601868,
0.5,180,1,right,2,4,1,0,1,0,4,1,33,6,,,,,,,,,336.36708329999965,336.8669310999994,337.5848384000001,None,336.8836585000008,337.5681707999993,338.08561980000013,None,right,1,0.2865113999996538,338.08561980000013,None,None,336.8836585000008,338.06880289999935,0.5115626000006159,0.5951124999992317,1.7134138000001258,1.796602399999756,,,,,,oren_1,001,2020_Jan_29_1313,posner,3.1.5,59.90409354601868,
0.5,180,1,right,2,4,1,0,1,0,4,2,34,5,,,,,,,,,338.4028904000006,338.9030211999998,339.6207102999997,None,338.91972910000004,339.60400219999974,340.1214514000003,None,right,1,0.33075059999828227,340.1214514000003,None,None,338.91972910000004,340.10482989999946,0.5116102000010869,0.5955210000010993,1.7133738000011363,1.7969987000014953,,,,,,oren_1,001,2020_Jan_29_1313,posner,3.1.5,59.90409354601868,
0.5,180,1,right,2,4,1,0,1,0,4,3,35,7,,,,,,,,,340.4729458999991,340.9725803000001,341.69035579999945,None,340.98922309999944,341.67392069999914,342.19097110000075,None,right,1,0.2452843999999459,342.19097110000075,None,None,340.98922309999944,342.1747701000004,0.5113500999996177,0.594973299999765,1.713516100000561,1.7966543000002275,,,,,,oren_1,001,2020_Jan_29_1313,posner,3.1.5,59.90409354601868,
0.5,0,0,right,1,4,1,0,1,0,4,4,36,3,,,,,,,,,342.4590821999991,342.9588686999996,343.6767268000003,None,342.97530089999964,343.6596393,344.1773391000006,None,left,0,0.1787834999995539,344.1773391000006,None,None,342.97530089999964,344.16027829999985,0.5114522999992914,0.5948178999988158,1.7128500999988319,1.7965390999997908,,,,,,oren_1,001,2020_Jan_29_1313,posner,3.1.5,59.90409354601868,
-0.5,0,1,left,1,3,1,0,1,0,4,5,37,1,,,,,,,,,344.37826010000026,344.87811390000024,345.5959003000007,None,344.89485120000063,345.5790992000002,346.09624369999983,None,left,1,0.3400307000010798,346.09624369999983,None,None,344.89485120000063,346.07977050000045,0.5115863999999419,0.5948756999987381,1.7132215000001452,1.7965795999989496,,,,,,oren_1,001,2020_Jan_29_1313,posner,3.1.5,59.90409354601868,
-0.5,0,1,left,1,3,1,0,1,0,4,6,38,0,,,,,,,,,346.4641711000004,346.96427589999985,347.6818440999996,None,346.9808661999996,347.6653095999991,348.1825855999996,None,right,0,0.25358280000000377,348.1825855999996,None,None,346.9808661999996,348.1659204000007,0.5117305000003398,0.5952238000008947,1.7133517999991454,1.7968118000007962,,,,,,oren_1,001,2020_Jan_29_1313,posner,3.1.5,59.90409354601868,
-0.5,180,0,left,2,3,1,0,1,0,4,7,39,4,,,,,,,,,348.4668038,348.967036,349.6846342000008,None,348.9839659999998,349.6684139000008,350.1854672999998,None,left,1,0.458817500000805,350.1854672999998,None,None,348.9839659999998,350.1688852999996,0.5115093999993405,0.5948695999995834,1.7133367999995244,1.7965773999985686,,,,,,oren_1,001,2020_Jan_29_1313,posner,3.1.5,59.90409354601868,
-0.5,0,1,left,1,3,1,0,1,0,5,0,40,0,,,,,,,,,350.6699637999991,351.1699437999996,351.88782399999945,None,351.18689070000073,351.8709087999996,352.3885692999993,350.6699637999991,left,1,0.31956699999864213,352.3885692999993,None,None,351.18689070000073,352.37164610000036,0.5115033000001858,0.5950905999998213,1.7131898999996338,1.7968853000002127,,,,,,oren_1,001,2020_Jan_29_1313,posner,3.1.5,59.90409354601868,
0.5,0,0,right,1,4,1,0,1,0,5,1,41,3,,,,,,,,,352.73907829999916,353.2395701000005,353.95736150000084,None,353.2563747999993,353.9405220000008,354.4580642000001,None,right,1,0.346045199999935,354.4580642000001,None,None,353.2563747999993,354.4412419,0.5125764000003983,0.5959242999997514,1.7142303999989963,1.7977160999998887,,,,,,oren_1,001,2020_Jan_29_1313,posner,3.1.5,59.90409354601868,
0.5,180,1,right,2,4,1,0,1,0,5,2,42,6,,,,,,,,,354.8259371000004,355.3257778999996,356.0435158,None,355.34254669999973,356.02684299999964,356.54426950000015,None,right,1,0.2598868000004586,356.54426950000015,None,right,355.34254669999973,356.5275794999998,0.5114600999986578,0.594953899999382,1.713237099998878,1.7965713999983564,,,,,1.0298161999999138,oren_1,001,2020_Jan_29_1313,posner,3.1.5,59.90409354601868,
0.5,180,1,right,2,4,1,0,1,0,5,3,43,7,,,,,,,,,356.82875570000033,357.32868319999943,358.04636690000007,None,357.3455940999993,358.02959179999925,358.5469377999998,None,right,1,0.08125829999880807,358.5469377999998,None,None,357.3455940999993,358.5301980999993,0.5115903000005346,0.5949607000002288,1.7130828999997902,1.7964525999996113,,,,,,oren_1,001,2020_Jan_29_1313,posner,3.1.5,59.90409354601868,
0.5,180,1,right,2,4,1,0,1,0,5,4,44,5,,,,,,,,,358.64790510000057,359.1479115000002,359.86542329999975,None,359.1646103000003,359.8489155999996,360.3660964999999,None,right,1,0.23018429999865475,360.3660964999999,None,None,359.1646103000003,360.3493318000001,0.511565700000574,0.5947517999993579,1.7129659000001993,1.7965165000005072,,,,,,oren_1,001,2020_Jan_29_1313,posner,3.1.5,59.90409354601868,
-0.5,0,1,left,1,3,1,0,1,0,5,5,45,2,,,,,,,,,360.6173787000007,361.1171426000001,361.8349507999992,None,361.1339919000002,361.81833689999985,362.33566430000064,None,right,0,0.21251529999972263,362.33566430000064,None,None,361.1339919000002,362.3189211000008,0.5114426999989519,0.594769899998937,1.7131985999985773,1.796470599998429,,,,,,oren_1,001,2020_Jan_29_1313,posner,3.1.5,59.90409354601868,
-0.5,180,0,left,2,3,1,0,1,0,5,6,46,4,,,,,,,,,362.5700663000007,363.06990290000067,363.7876054999997,None,363.08669290000034,363.7708175000007,364.2884436000004,None,left,1,0.30769640000107756,364.2884436000004,None,None,363.08669290000034,364.2714680000008,0.5114877999985765,0.5948253999995359,1.7130398999997851,1.796634999998787,,,,,,oren_1,001,2020_Jan_29_1313,posner,3.1.5,59.90409354601868,
-0.5,0,1,left,1,3,1,0,1,0,5,7,47,1,,,,,,,,,364.62272850000045,365.1226268999999,365.84032339999976,None,365.1392701999994,365.82359440000073,366.3412181999993,None,left,1,0.38309119999939867,366.3412181999993,None,None,365.1392701999994,366.32429050000064,0.5115060999996786,0.5949185000008583,1.7131403999992472,1.7968853999991552,,,,,,oren_1,001,2020_Jan_29_1313,posner,3.1.5,59.90409354601868,
0.5,180,1,right,2,4,1,0,1,0,6,0,48,7,,,,,,,,,366.74197339999955,367.242252,367.9599498000007,None,367.2590810999991,367.94344249999995,368.46070189999955,None,right,1,0.24747070000012172,368.46070189999955,None,None,367.2590810999991,368.4439012999992,0.5115967000001547,0.5950687999993534,1.7132242000006954,1.7967066000001068,,,,,,oren_1,001,2020_Jan_29_1313,posner,3.1.5,59.90409354601868,
-0.5,0,1,left,1,3,1,0,1,0,6,1,49,2,,,,,,,,,368.7286858000007,369.2284402000005,369.94604509999954,None,369.24515059999976,369.9294229999996,370.44669500000055,None,left,1,0.3896576000006462,370.44669500000055,None,None,369.24515059999976,370.42993340000066,0.5115399999995134,0.594791699999405,1.7130113999992318,1.7965530999990733,,,,,,oren_1,001,2020_Jan_29_1313,posner,3.1.5,59.90409354601868,
-0.5,180,0,left,2,3,1,0,1,0,6,2,50,4,,,,,,,,,370.86424889999944,371.3647853000002,372.0821830999994,None,371.3813236999995,372.0658691999997,372.5829586,None,left,1,0.38129490000028454,372.5829586,None,None,371.3813236999995,372.5662508000005,0.5119559000013396,0.5953344000008656,1.7134095000001253,1.7967973000013444,,,,,,oren_1,001,2020_Jan_29_1313,posner,3.1.5,59.90409354601868,
-0.5,0,1,left,1,3,1,0,1,0,6,3,51,0,,,,,,,,,372.9845323999998,373.4844613999994,374.2021048000006,None,373.5008665000005,374.1853396000006,374.70257239999955,None,left,1,0.2774886000006518,374.70257239999955,None,None,373.5008665000005,374.6858749999992,0.5116579000005004,0.5949309999996331,1.713063900000634,1.796515800000634,,,,,,oren_1,001,2020_Jan_29_1313,posner,3.1.5,59.90409354601868,
0.5,0,0,right,1,4,1,0,1,0,6,4,52,3,,,,,,,,,375.00390940000034,375.5039474999994,376.2213539000004,None,375.5203067000002,376.2047108000006,376.72199609999916,None,right,1,0.354218899999978,376.72199609999916,None,None,375.5203067000002,376.70547389999956,0.5117269000002125,0.5950573000009172,1.7132381000010355,1.7967519000012544,,,,,,oren_1,001,2020_Jan_29_1313,posner,3.1.5,59.90409354601868,
-0.5,0,1,left,1,3,1,0,1,0,6,5,53,1,,,,,,,,,377.10636689999956,377.6067612000006,378.3241725000007,None,377.6232966999996,378.3077458000007,378.8250250000001,None,left,1,0.29924639999990177,378.8250250000001,None,None,377.6232966999996,378.8082986999998,0.5116574999992736,0.5948831999994582,1.7131798999998864,1.7965702999990754,,,,,,oren_1,001,2020_Jan_29_1313,posner,3.1.5,59.90409354601868,
0.5,180,1,right,2,4,1,0,1,0,6,6,54,6,,,,,,,,,379.14285259999997,379.6427554999991,380.3603211999998,None,379.65933360000054,380.3437940999993,380.8610040000003,None,right,1,0.24731040000006033,380.8610040000003,None,None,379.65933360000054,380.8445702000008,0.5116023000009591,0.5950159000003623,1.7133809000006295,1.7966715000002296,,,,,,oren_1,001,2020_Jan_29_1313,posner,3.1.5,59.90409354601868,
0.5,180,1,right,2,4,1,0,1,0,6,7,55,5,,,,,,,,,381.1290396000004,381.62893020000047,382.34638300000006,None,381.64564679999967,382.3297082000008,382.84738239999933,None,right,1,0.24487090000002354,382.84738239999933,None,None,381.64564679999967,382.83039669999926,0.5113727000007202,0.5946000000003551,1.7128311000014946,1.796483200001603,,,,,,oren_1,001,2020_Jan_29_1313,posner,3.1.5,59.90409354601868,
-0.5,0,1,left,1,3,1,0,1,0,7,0,56,1,,,,,,,,,383.11493150000024,383.61490109999977,384.33254379999926,None,383.6314932999994,384.3158710000007,384.8334190000005,None,left,1,0.2106976000013674,384.8334190000005,None,None,383.6314932999994,384.81643860000077,0.5113701999998739,0.594745200000034,1.7128947000001062,1.796363499999643,,,,,,oren_1,001,2020_Jan_29_1313,posner,3.1.5,59.90409354601868,
-0.5,180,0,left,2,3,1,0,1,0,7,1,57,4,,,,,,,,,385.06757730000027,385.5676306999994,386.2852980000007,None,385.5843937000009,386.2685698000005,386.7860682999999,None,right,0,0.03415599999971164,386.7860682999999,None,None,385.5843937000009,386.7694023999993,0.5116101999992679,0.5948420999993687,1.713354999999865,None,,,,,,oren_1,001,2020_Jan_29_1313,posner,3.1.5,59.90409354601868,
0.5,180,1,right,2,4,1,0,1,0,7,2,58,5,,,,,,,,,386.8367696999994,387.3367584000007,388.0544898999997,None,387.35346989999925,388.03767829999924,388.5550543999998,None,right,1,0.28119799999876705,388.5550543999998,None,None,387.35346989999925,388.5384343000005,0.5114505000001373,0.5947403000009217,1.713104899999962,1.7963290999996389,,,,,,oren_1,001,2020_Jan_29_1313,posner,3.1.5,59.90409354601868,
0.5,180,1,right,2,4,1,0,1,0,7,3,59,6,,,,,,,,,388.85622610000064,389.35615829999915,390.07377740000084,None,389.3727366999992,390.05726200000026,390.5743920999994,None,right,1,0.24580609999975422,390.5743920999994,None,None,389.3727366999992,390.55786310000076,0.5114069999999629,0.5949278000007325,1.7130883000008907,1.7964621999999508,,,,,,oren_1,001,2020_Jan_29_1313,posner,3.1.5,59.90409354601868,
0.5,180,1,right,2,4,1,0,1,0,7,4,60,7,,,,,,,,,390.8423161999999,391.34224429999995,392.05975430000035,None,391.3590409999997,392.0433931000007,392.5604464000007,None,right,1,0.29176870000083,392.5604464000007,None,None,391.3590409999997,392.5438128000005,0.51150509999934,0.5950020000000222,1.7130502999989403,1.7966564999987895,,,,,,oren_1,001,2020_Jan_29_1313,posner,3.1.5,59.90409354601868,
0.5,0,0,right,1,4,1,0,1,0,7,5,61,3,,,,,,,,,392.8786010999993,393.37846659999923,394.0962225000003,None,393.39520749999974,394.0794783000001,394.5966401000005,395.0806778999995,right,1,0.5915248000001156,394.5966401000005,None,None,393.39520749999974,394.5799941000005,0.5116958999988128,0.5949879999989207,1.7132021999987046,1.796537599999283,,,,,,oren_1,001,2020_Jan_29_1313,posner,3.1.5,59.90409354601868,
-0.5,0,1,left,1,3,1,0,1,0,7,6,62,0,,,,,,,,,395.2148152999998,395.7150012000002,396.4325967999994,None,395.7315978000006,396.4159839999993,396.9333184999996,None,left,1,0.3190002999999706,396.9333184999996,None,None,395.7315978000006,396.91647209999974,0.5117070000014792,0.5952360000010231,1.713167699999758,1.7966938000008668,,,,,,oren_1,001,2020_Jan_29_1313,posner,3.1.5,59.90409354601868,
-0.5,0,1,left,1,3,1,0,1,0,7,7,63,2,,,,,,,,,397.28460129999985,397.7849826999991,398.5021348999999,None,397.8010751999991,398.4854180000002,399.0028528999992,None,left,1,0.2494065999999293,399.0028528999992,None,None,397.8010751999991,398.9862099999991,0.5122787999989669,0.5952946999987034,1.7134778999989067,1.7967152000001079,,,,,,oren_1,001,2020_Jan_29_1313,posner,3.1.5,59.90409354601868,
0.5,180,1,right,2,4,1,0,1,0,8,0,64,5,,,,,,,,,399.2706484999999,399.7705165999996,400.4883871000002,None,399.7873763000007,400.4714039999999,400.9891282999997,None,right,1,0.23111010000138776,400.9891282999997,None,None,399.7873763000007,400.9721138999994,0.5114687999994203,0.5949612999993406,1.7130581999990682,1.7966556999999739,,,,,,oren_1,001,2020_Jan_29_1313,posner,3.1.5,59.90409354601868,
0.5,180,1,right,2,4,1,0,1,0,8,1,65,6,,,,,,,,,401.2400039999993,401.7400531000003,402.4577848000008,None,401.7566480000005,402.4409142000004,402.9582238999992,None,right,1,0.22993720000158646,402.9582238999992,None,None,401.7566480000005,402.9414266999993,0.5117695999997522,0.5949507999994239,1.7131239999998797,1.796874100000423,,,,,,oren_1,001,2020_Jan_29_1313,posner,3.1.5,59.90409354601868,
-0.5,180,0,left,2,3,1,0,1,0,8,2,66,4,,,,,,,,,403.2093461000004,403.70937500000036,404.4271645000008,None,403.7260924000002,404.4101800999997,404.92749560000084,None,right,0,0.14885150000009162,404.92749560000084,None,None,403.7260924000002,404.91083980000076,0.5114821999995911,0.5947998999999982,1.7129351000003226,1.7964573000008386,,,,,,oren_1,001,2020_Jan_29_1313,posner,3.1.5,59.90409354601868,
-0.5,0,1,left,1,3,1,0,1,0,8,3,67,1,,,,,,,,,405.09530599999925,405.59520169999996,406.31267619999926,None,405.6119904999996,406.29637059999914,406.81373370000074,None,left,1,0.35856609999973443,406.81373370000074,None,None,405.6119904999996,406.7969623000008,0.5114343999994162,0.5952512999992905,1.7131716000003507,1.7965148000002955,,,,,,oren_1,001,2020_Jan_29_1313,posner,3.1.5,59.90409354601868,
0.5,180,1,right,2,4,1,0,1,0,8,4,68,7,,,,,,,,,407.1983674000003,407.6982162000004,408.4158325999997,None,407.71479399999953,408.3990149000001,408.9164664,None,right,1,0.2559891000000789,408.9164664,None,None,407.71479399999953,408.89969589999964,0.5115870999998151,0.5948714000005566,1.7130534999996598,1.7969104000003426,,,,,,oren_1,001,2020_Jan_29_1313,posner,3.1.5,59.90409354601868,
0.5,0,0,right,1,4,1,0,1,0,8,5,69,3,,,,,,,,,409.20037310000043,409.70083650000015,410.41866879999907,None,409.71777269999984,410.40170670000043,410.9193790999998,None,left,0,0.1408792000001995,410.9193790999998,None,None,409.71777269999984,410.90248769999926,0.5119372000008298,0.5966947000015352,1.7135693000000174,1.7973885000010341,,,,,,oren_1,001,2020_Jan_29_1313,posner,3.1.5,59.90409354601868,
-0.5,0,1,left,1,3,1,0,1,0,8,6,70,2,,,,,,,,,411.0866322999991,411.58691969999927,412.30465919999915,None,411.60368430000017,412.28801100000055,412.8052262000001,None,left,1,0.28713210000023537,412.8052262000001,None,None,411.60368430000017,412.7887346000007,0.5118626999992557,0.595219900000302,1.7136635000006208,1.7968364999996993,,,,,,oren_1,001,2020_Jan_29_1313,posner,3.1.5,59.90409354601868,
-0.5,0,1,left,1,3,1,0,1,0,8,7,71,0,,,,,,,,,413.1230030000006,413.62296439999955,414.3406410000007,None,413.6398148999997,414.32411560000037,414.84147830000074,None,left,1,0.2988642999989679,414.84147830000074,None,None,413.6398148999997,414.8246175000004,0.511430399999881,0.5948490999999194,1.7130750000014814,1.7966642000010324,,,,,,oren_1,001,2020_Jan_29_1313,posner,3.1.5,59.90409354601868,
-0.5,180,0,left,2,3,1,0,1,0,9,0,72,4,,,,,,,,,415.15910470000017,415.65929549999964,416.3768751000007,None,415.6760205999999,416.3599825000001,416.87765709999985,None,left,1,0.43854430000101274,416.87765709999985,None,None,415.6760205999999,416.86075189999974,0.5117953000008129,0.5949690000015835,1.7132385000004433,1.7966789000001882,,,,,,oren_1,001,2020_Jan_29_1313,posner,3.1.5,59.90409354601868,
0.5,0,0,right,1,4,1,0,1,0,9,1,73,3,,,,,,,,,417.34566780000023,417.84575770000083,418.56298459999925,None,417.8624918000005,418.5466101000002,419.0638712,None,right,1,0.3164976999996725,419.0638712,None,None,417.8624918000005,419.0471484999998,0.5117388999988179,0.5950844999988476,1.7131075999986933,1.7964775000000373,,,,,,oren_1,001,2020_Jan_29_1313,posner,3.1.5,59.90409354601868,
0.5,180,1,right,2,4,1,0,1,0,9,2,74,6,,,,,,,,,419.39818679999917,419.8984096000004,420.61593770000036,None,419.91511060000084,420.59936860000016,421.11689429999933,None,right,1,0.29551960000026156,421.11689429999933,None,None,419.91511060000084,421.0999651000002,0.5115167999992991,0.5948253000005934,1.7130612000000838,1.7966398999997182,,,,,,oren_1,001,2020_Jan_29_1313,posner,3.1.5,59.90409354601868,
0.5,180,1,right,2,4,1,0,1,0,9,3,75,5,,,,,,,,,421.43498700000055,421.9344153000002,422.6521309,None,421.9510253999997,422.6356541999994,423.15271570000004,None,right,1,0.24355590000050142,423.15271570000004,None,None,421.9510253999997,423.1362508000002,0.5113146000003326,0.5948656000000483,1.7131262999992032,1.796587400000135,,,,,,oren_1,001,2020_Jan_29_1313,posner,3.1.5,59.90409354601868,
0.5,180,1,right,2,4,1,0,1,0,9,4,76,7,,,,,,,,,423.4200729999993,423.9205013999999,424.6382494999998,None,423.9376515999993,424.6214259999997,425.1391409000007,None,right,1,0.20913829999881273,425.1391409000007,None,None,423.9376515999993,425.1221604000002,0.5116441999998642,0.5952509999988251,1.7132873999998992,1.7968557999993209,,,,,,oren_1,001,2020_Jan_29_1313,posner,3.1.5,59.90409354601868,
-0.5,0,1,left,1,3,1,0,1,0,9,5,77,0,,,,,,,,,425.37380459999986,425.8734887999999,426.59090339999966,None,425.88998469999933,426.5743985000008,427.0916173000005,None,left,1,0.24072940000041854,427.0916173000005,None,None,425.88998469999933,427.07486849999987,0.5117596000000049,0.5949111999998422,1.7131272000005993,1.7968015000005835,,,,,,oren_1,001,2020_Jan_29_1313,posner,3.1.5,59.90409354601868,
-0.5,0,1,left,1,3,1,0,1,0,9,6,78,1,,,,,,,,,427.35935729999983,427.85952759999964,428.5769956000004,None,427.8762198000004,428.5601733000003,429.0778609000008,None,left,1,0.3023954000000231,429.0778609000008,None,None,427.8762198000004,429.06096830000024,0.5117632000001322,0.5948731000007683,1.7131874000006064,1.7966647000012017,,,,,,oren_1,001,2020_Jan_29_1313,posner,3.1.5,59.90409354601868,
-0.5,0,1,left,1,3,1,0,1,0,9,7,79,2,,,,,,,,,429.41200129999925,429.91209659999913,430.6298597999994,None,429.9289989000008,430.6130243000007,431.13042920000044,None,left,1,0.29783599999973376,431.13042920000044,None,None,429.9289989000008,431.1140522000005,0.5116872999988118,0.5954237999994803,1.713628499999686,1.7967998000003718,,,,,,oren_1,001,2020_Jan_29_1313,posner,3.1.5,59.90409354601868,
-0.5,0,1,left,1,3,1,0,1,0,10,0,80,0,,,,,,,,,431.44862509999984,431.94829240000035,432.66612859999987,None,431.96498430000065,432.6494445999997,433.16669,None,left,1,0.24564030000146886,433.16669,None,None,431.96498430000065,433.14993739999954,0.5114074000011897,0.5947764000011375,1.7130388999994466,1.796487600000546,,,,,,oren_1,001,2020_Jan_29_1313,posner,3.1.5,59.90409354601868,
0.5,180,1,right,2,4,1,0,1,0,10,1,81,7,,,,,,,,,433.43402459999925,433.9343544000003,434.65211330000056,None,433.9508929000003,434.6353586000005,435.15263380000033,None,right,1,0.21165299999847775,435.15263380000033,None,None,433.9508929000003,435.13620040000023,0.5122661999994307,0.5958271999988938,1.7140871999999945,1.7972475999995368,,,,,,oren_1,001,2020_Jan_29_1313,posner,3.1.5,59.90409354601868,
-0.5,180,0,left,2,3,1,0,1,0,10,2,82,4,,,,,,,,,435.3872625999993,435.88714450000043,436.60483170000043,None,435.9040463000001,436.5881988000001,437.1056164999991,None,left,1,0.3228285000004689,437.1056164999991,None,None,435.9040463000001,437.08876729999974,0.5115709000001516,0.5949237000004359,1.7131821000002674,1.7964674000013474,,,,,,oren_1,001,2020_Jan_29_1313,posner,3.1.5,59.90409354601868,
0.5,180,1,right,2,4,1,0,1,0,10,3,83,5,,,,,,,,,437.4569885000001,437.95673650000026,438.67451489999985,None,437.97323099999994,438.6576662999996,439.1753126000003,None,right,1,0.3169409000001906,439.1753126000003,None,None,437.97323099999994,439.15854650000074,0.5114624000016192,0.5947589000006701,1.7132586000006995,1.7964374000002863,,,,,,oren_1,001,2020_Jan_29_1313,posner,3.1.5,59.90409354601868,
0.5,180,1,right,2,4,1,0,1,0,10,4,84,6,,,,,,,,,439.50932939999984,440.0092721000001,440.72699230000035,None,440.02607680000074,440.71028320000005,441.2278807999992,None,right,1,0.24853129999974044,441.2278807999992,None,None,440.02607680000074,441.2110627999991,0.5116335000002437,0.595361600000615,1.713406799999575,1.796892399999706,,,,,,oren_1,001,2020_Jan_29_1313,posner,3.1.5,59.90409354601868,
-0.5,0,1,left,1,3,1,0,1,0,10,5,85,2,,,,,,,,,441.4957463999999,441.9957431999992,442.7131165999999,None,442.0123117999992,442.69651669999985,443.21373680000033,None,right,0,0.3104715999998007,443.21373680000033,None,None,442.0123117999992,443.19712550000077,0.5114766999995481,0.594788399999743,1.7128480999999738,1.7962702000004356,,,,,,oren_1,001,2020_Jan_29_1313,posner,3.1.5,59.90409354601868,
-0.5,0,1,left,1,3,1,0,1,0,10,6,86,1,,,,,,,,,443.5482725999991,444.0484601999997,444.76588319999973,None,444.06504289999975,444.74961470000017,445.26670620000004,None,left,1,0.321521699999721,445.26670620000004,None,None,444.06504289999975,445.25012419999985,0.5117112999996607,0.5949000000000524,1.7133606999996118,1.7966570999997202,,,,,,oren_1,001,2020_Jan_29_1313,posner,3.1.5,59.90409354601868,
0.5,0,0,right,1,4,1,0,1,0,10,7,87,3,,,,,,,,,445.6175769999991,446.11794550000013,446.8358442000008,None,446.1346561999999,446.81907350000074,447.3363626999999,None,left,0,0.21996610000132932,447.3363626999999,None,None,446.1346561999999,447.3196031000007,0.5118126999986998,0.5951033000001189,1.713449099999707,1.7968842999998742,,,,,,oren_1,001,2020_Jan_29_1313,posner,3.1.5,59.90409354601868,
,,,,,,1,0,1,0,,,,,,,,,,,,,,,,,,,,,,,,,,,,,,,,,447.5871248000003,None,1.8000000636675395e-05,0.9955411000009917,,oren_1,001,2020_Jan_29_1313,posner,3.1.5,59.90409354601868,
0.5,180,1,right,2,4,2,0,2,0,0,0,0,6,1.2000000424450263e-05,0.09760189999906288,508.60412729999916,None,1.4999999621068127e-05,0.09816339999997581,510.7071169999999,None,510.9873203999996,511.4915423000002,512.2092494000008,None,511.5080878000008,512.1923494999992,512.7097166000003,513.1940106000002,right,1,0.6387935000002471,512.7097166000003,None,None,511.5080878000008,512.6930539000005,0.5134921000008035,0.5968933000003744,1.71499810000023,1.798680100000638,,,,,,oren_1,001,2020_Jan_29_1313,posner,3.1.5,59.90409354601868,
-0.5,180,0,left,2,3,2,0,2,0,0,1,1,4,,,,,,,,,513.3780877000008,513.8782649999994,514.5959433999997,None,513.8949176000006,514.5791740000004,515.0964772000007,None,left,1,0.3160093999995297,515.0964772000007,None,None,513.8949176000006,515.0798319999994,0.5110796999997547,0.5942433000000165,1.7126355999989755,1.7960167999990517,,,,,,oren_1,001,2020_Jan_29_1313,posner,3.1.5,59.90409354601868,
-0.5,0,1,left,1,3,2,0,2,0,0,2,2,0,,,,,,,,,515.4312580999995,515.930832,516.6487901,None,515.9475020999998,516.6318410000003,517.1494973000008,None,left,1,0.32699630000024626,517.1494973000008,None,None,515.9475020999998,517.1326845999993,0.5118402999996761,0.5954340000007505,1.7136705000011716,1.7970525000000634,,,,,,oren_1,001,2020_Jan_29_1313,posner,3.1.5,59.90409354601868,
-0.5,0,1,left,1,3,2,0,2,0,0,3,3,1,,,,,,,,,517.4998753,518.0003589999997,518.7182178000003,None,518.0171556999994,518.7014935000007,519.2188903000006,None,left,1,0.27368439999918337,519.2188903000006,None,None,518.0171556999994,519.2021000999994,0.5114954999990005,0.5951205999990634,1.7132186999988335,1.7967773999989731,,,,,,oren_1,001,2020_Jan_29_1313,posner,3.1.5,59.90409354601868,
0.5,0,0,right,1,4,2,0,2,0,0,4,4,3,,,,,,,,,519.5198631000003,520.0198237000004,520.7376074000003,None,520.0370696999998,520.7208833999994,521.2384839000006,None,right,1,0.3019421000008151,521.2384839000006,None,None,520.0370696999998,521.2215197999994,0.5113380000002508,0.5950261999987561,1.7130154999995284,1.7966421000000992,,,,,,oren_1,001,2020_Jan_29_1313,posner,3.1.5,59.90409354601868,
-0.5,0,1,left,1,3,2,0,2,0,0,5,5,2,,,,,,,,,521.5561082999993,522.0560136000004,522.7738749,None,522.0727716000001,522.7568883000004,523.2744063999999,None,left,1,0.31410370000048715,523.2744063999999,None,None,522.0727716000001,523.2579363999994,0.5113634999997885,0.5950478999984625,1.7132631999993464,1.7964493999988917,,,,,,oren_1,001,2020_Jan_29_1313,posner,3.1.5,59.90409354601868,
0.5,180,1,right,2,4,2,0,2,0,0,6,6,5,,,,,,,,,523.6089806,524.1088500000005,524.8266230999998,None,524.1256881000008,524.8097383000004,525.3274032000008,None,right,1,0.2930030999996234,525.3274032000008,None,None,524.1256881000008,525.3105727000002,0.5113963999992848,0.5948718999989069,1.7131055999998352,1.7964323999985936,,,,,,oren_1,001,2020_Jan_29_1313,posner,3.1.5,59.90409354601868,
0.5,180,1,right,2,4,2,0,2,0,0,7,7,7,,,,,,,,,525.6452895999992,526.1452282999999,526.8625878000003,None,526.1617552999996,526.8459616,527.3634559999991,None,right,1,0.22518549999949755,527.3634559999991,None,None,526.1617552999996,527.3467572000009,0.5115636000009545,0.5949178999999276,1.7130770000003395,1.796316800000568,,,,,,oren_1,001,2020_Jan_29_1313,posner,3.1.5,59.90409354601868,
-0.5,0,1,left,1,3,2,0,2,0,1,0,8,0,,,,,,,,,527.6146702999995,528.1146177999999,528.8319384999995,None,528.1310881999998,528.8155941999994,529.3327399999998,None,left,1,0.3357343999996374,529.3327399999998,None,None,528.1310881999998,529.3160036999998,0.5117841999999655,0.595130199999403,1.7131572999987839,1.796606799998699,,,,,,oren_1,001,2020_Jan_29_1313,posner,3.1.5,59.90409354601868,
-0.5,0,1,left,1,3,2,0,2,0,1,1,9,2,,,,,,,,,529.6840947000001,530.1839192999996,530.9014881000003,None,530.2006500000007,530.8850966999998,531.4022679000009,None,left,1,0.36238479999883566,531.4022679000009,None,None,530.2006500000007,531.3858392999991,0.5114097999994556,0.5950465999994776,1.7133059000007052,1.7966493000003538,,,,,,oren_1,001,2020_Jan_29_1313,posner,3.1.5,59.90409354601868,
-0.5,0,1,left,1,3,2,0,2,0,1,2,10,1,,,,,,,,,531.7873624000003,532.2870406999991,533.0047104000005,None,532.3035359999994,532.9879376000008,533.5055083999996,None,left,1,0.2429802999995445,533.5055083999996,None,None,532.3035359999994,533.4886595000007,0.5113470999986021,0.5943790999990597,1.7129498999984207,1.7962609999995038,,,,,,oren_1,001,2020_Jan_29_1313,posner,3.1.5,59.90409354601868,
0.5,180,1,right,2,4,2,0,2,0,1,3,11,5,,,,,,,,,533.7728721999993,534.2729450000006,534.9907024999993,None,534.2896533000003,534.9739480000007,535.4913214999997,None,right,1,0.16176520000044547,535.4913214999997,None,None,534.2896533000003,535.4748495999993,0.5116042000008747,0.595029500000237,1.7134781000004295,1.7967127000010805,,,,,,oren_1,001,2020_Jan_29_1313,posner,3.1.5,59.90409354601868,
-0.5,180,0,left,2,3,2,0,2,0,1,4,12,4,,,,,,,,,535.6761289999995,536.1757964999997,536.8932029000007,None,536.1923396000002,536.8764580000006,537.3939197,537.8779152999996,None,0,,537.3939197,None,None,536.1923396000002,537.3777946999999,0.5115583999995579,0.594897499999206,1.7135400000006484,1.7962962000001426,,,,,,oren_1,001,2020_Jan_29_1313,posner,3.1.5,59.90409354601868,
0.5,180,1,right,2,4,2,0,2,0,1,5,13,6,,,,,,,,,538.3787197999991,538.8793753999998,539.5970973000003,538.3787197999991,538.8961079000001,539.5802177000005,540.0976152999992,None,right,1,0.25890400000025693,540.0976152999992,None,None,538.8961079000001,540.0808761000008,0.5137847999994847,0.5971236999994289,1.7152698999998393,1.7987520999995468,,,,,,oren_1,001,2020_Jan_29_1313,posner,3.1.5,59.90409354601868,
0.5,180,1,right,2,4,2,0,2,0,1,6,14,7,,,,,,,,,540.3821590000007,540.8820446999998,541.5998743,None,540.8986989999994,541.5830815999998,542.1003134999992,None,right,1,0.3041263999984949,542.1003134999992,None,None,540.8986989999994,542.0838148000003,0.5114962999996351,0.5949708999996801,1.7132524000007834,1.7967062999996415,,,,,,oren_1,001,2020_Jan_29_1313,posner,3.1.5,59.90409354601868,
0.5,0,0,right,1,4,2,0,2,0,1,7,15,3,,,,,,,,,542.4349659,542.9350305000007,543.6524403999993,None,542.9516108000007,543.6360038000003,544.1531916000004,544.6374216000004,right,1,0.6352981999989424,544.1531916000004,None,None,542.9516108000007,544.1367511000008,0.5116618000010931,0.5950867000010476,1.7133704999996553,1.796511399999872,,,,,,oren_1,001,2020_Jan_29_1313,posner,3.1.5,59.90409354601868,
-0.5,0,1,left,1,3,2,0,2,0,2,0,16,1,,,,,,,,,544.8048041999991,545.3048818999996,546.0227197999993,None,545.3214819000004,546.0060279999998,546.5231887999998,None,left,1,0.24935019999975339,546.5231887999998,None,None,545.3214819000004,546.5065832,0.5115015000010317,0.5950268000015058,1.713177600000563,1.7966083000010258,,,,,,oren_1,001,2020_Jan_29_1313,posner,3.1.5,59.90409354601868,
0.5,0,0,right,1,4,2,0,2,0,2,1,17,3,,,,,,,,,546.7914151000004,547.2909118000007,548.0085890999999,None,547.3075905000005,547.9918615000006,548.5093441999998,None,right,1,0.3110319999996136,548.5093441999998,None,None,547.3075905000005,548.4925352999999,0.5113192999997409,0.5949337999991258,1.7129233999985445,1.796507199998814,,,,,,oren_1,001,2020_Jan_29_1313,posner,3.1.5,59.90409354601868,
-0.5,180,0,left,2,3,2,0,2,0,2,2,18,4,,,,,,,,,548.8440093000008,549.3438024999996,550.0613236999998,None,549.3602814999995,550.0447592,550.5622012000003,None,left,1,0.3063527999984217,550.5622012000003,None,None,549.3602814999995,550.5454652000008,0.5117135000000417,0.5951819000001706,1.7133283000002848,1.796897500000341,,,,,,oren_1,001,2020_Jan_29_1313,posner,3.1.5,59.90409354601868,
0.5,180,1,right,2,4,2,0,2,0,2,3,19,7,,,,,,,,,550.8965079999998,551.3966660000006,552.1143090000005,None,551.4133731000002,552.0975651000008,552.6150409000002,None,right,1,0.23746420000134094,552.6150409000002,None,None,551.4133731000002,552.5984540999998,0.5116042999998172,0.5948121000001265,1.713328800000454,1.7965939000005164,,,,,,oren_1,001,2020_Jan_29_1313,posner,3.1.5,59.90409354601868,
-0.5,0,1,left,1,3,2,0,2,0,2,4,20,0,,,,,,,,,552.8823800999999,553.3827297000007,554.1001818999994,None,553.3993692000004,554.0837635000007,554.6009555,None,left,1,0.2515834999994695,554.6009555,None,None,553.3993692000004,554.5844749999997,0.5117871000002197,0.595203799999581,1.7135089999992488,1.7972133000002941,,,,,,oren_1,001,2020_Jan_29_1313,posner,3.1.5,59.90409354601868,
0.5,180,1,right,2,4,2,0,2,0,2,5,21,6,,,,,,,,,554.8852781999994,555.3855459999995,556.1030747999994,None,555.4021210999999,556.0867314000006,556.6039266999996,None,right,1,0.21659989999898244,556.6039266999996,None,None,555.4021210999999,556.5872586999994,0.5118839999995544,0.5951107000000775,1.7135479999997187,1.7967475000004924,,,,,,oren_1,001,2020_Jan_29_1313,posner,3.1.5,59.90409354601868,
-0.5,0,1,left,1,3,2,0,2,0,2,6,22,2,,,,,,,,,556.8380911000004,557.3382492000001,558.0559671999999,None,557.3549755000004,558.0392388,558.5563937999996,None,right,0,0.3919559999994817,558.5563937999996,None,None,557.3549755000004,558.5398949999999,0.5115193000001454,0.5949177000002237,1.713143900000432,1.7964365999996517,,,,,,oren_1,001,2020_Jan_29_1313,posner,3.1.5,59.90409354601868,
0.5,180,1,right,2,4,2,0,2,0,2,7,23,5,,,,,,,,,558.9747826999992,559.4745827999996,560.1920451999995,None,559.4911556999996,560.1758284999996,560.6927035000008,None,right,1,0.31969950000166136,560.6927035000008,None,None,559.4911556999996,560.6763133999993,0.5116246999987197,0.5948233999988588,1.7133440999987215,1.796671799998876,,,,,,oren_1,001,2020_Jan_29_1313,posner,3.1.5,59.90409354601868,
0.5,180,1,right,2,4,2,0,2,0,3,0,24,5,,,,,,,,,561.0437894999995,561.5439059,562.2616447,None,561.5606650999998,562.2448595000005,562.7622704999994,None,right,1,0.29818449999947916,562.7622704999994,None,None,561.5606650999998,562.7458005000008,0.5116164999999455,0.595302099998662,1.7134870999998384,1.7969197999991593,,,,,,oren_1,001,2020_Jan_29_1313,posner,3.1.5,59.90409354601868,
-0.5,0,1,left,1,3,2,0,2,0,3,1,25,1,,,,,,,,,563.0799857999991,563.5799774000006,564.2978065999996,None,563.5968453000005,564.2810542999996,564.7984345999994,None,left,1,0.32603179999932763,564.7984345999994,None,None,563.5968453000005,564.7817274000008,0.5117766999992455,0.5954242999996495,1.7135112999985722,1.7970136999992974,,,,,,oren_1,001,2020_Jan_29_1313,posner,3.1.5,59.90409354601868,
-0.5,180,0,left,2,3,2,0,2,0,3,2,26,4,,,,,,,,,565.1494215999992,565.6496874000004,566.3672931000001,None,565.6663496000001,566.3504518999998,566.8681032999993,None,left,1,0.44837469999947643,566.8681032999993,None,None,565.6663496000001,566.8513669999993,0.5116373000000749,0.5949144999995042,1.7133042000004934,1.7967642000003252,,,,,,oren_1,001,2020_Jan_29_1313,posner,3.1.5,59.90409354601868,
-0.5,0,1,left,1,3,2,0,2,0,3,3,27,0,,,,,,,,,567.3361894000009,567.8361394999993,568.5536842999991,None,567.8530597999998,568.5371140999996,569.0542986,None,left,1,0.3421797000009974,569.0542986,None,None,567.8530597999998,569.0377129999997,0.511474899998575,0.5946678999989672,1.713033899999573,1.7963547999988805,,,,,,oren_1,001,2020_Jan_29_1313,posner,3.1.5,59.90409354601868,
0.5,0,0,right,1,4,2,0,2,0,3,4,28,3,,,,,,,,,569.4223693999993,569.9220277000004,570.6400610000001,None,569.9390139999996,570.6231883,571.1406430999996,None,right,1,0.33588869999948656,571.1406430999996,None,None,569.9390139999996,571.1238457,0.5113232999992761,0.5948083000002953,1.7131251999999222,1.7965855000002193,,,,,,oren_1,001,2020_Jan_29_1313,posner,3.1.5,59.90409354601868,
0.5,180,1,right,2,4,2,0,2,0,3,5,29,6,,,,,,,,,571.5081972999997,572.0085894999993,572.7261701999996,None,572.0251716000002,572.7093697,573.2268258999993,None,right,1,0.26578369999879214,573.2268258999993,None,None,572.0251716000002,573.2099299999991,0.5117518000006385,0.59492020000107,1.7130764000012277,1.7965438999999606,,,,,,oren_1,001,2020_Jan_29_1313,posner,3.1.5,59.90409354601868,
-0.5,0,1,left,1,3,2,0,2,0,3,6,30,2,,,,,,,,,573.5103483000003,574.0110956999997,574.7289791000003,None,574.0278421000003,574.7120546000006,575.2296167999993,None,left,1,0.26293510000141396,575.2296167999993,None,None,574.0278421000003,575.2127691000005,0.5120618000000832,0.5955888999997114,1.7137208000003739,1.797284700000091,,,,,,oren_1,001,2020_Jan_29_1313,posner,3.1.5,59.90409354601868,
0.5,180,1,right,2,4,2,0,2,0,3,7,31,7,,,,,,,,,575.5141989999993,576.0138996000005,576.7314803000008,None,576.0307173000001,576.7150652,577.2323290000004,None,right,1,0.22825620000003255,577.2323290000004,None,None,576.0307173000001,577.2156954000002,0.5113574000006338,0.5948783000003459,1.7131274000003032,1.7965901000006852,,,,,,oren_1,001,2020_Jan_29_1313,posner,3.1.5,59.90409354601868,
-0.5,0,1,left,1,3,2,0,2,0,4,0,32,1,,,,,,,,,577.4838519999994,577.9832736000008,578.7008521000007,None,578.0000462000007,578.6842331000007,579.2017617000001,None,left,1,0.2587963999994827,579.2017617000001,None,None,578.0000462000007,579.1850790000008,0.5115356999995129,0.5950013000001491,1.7132774000001518,1.7967018999988795,,,,,,oren_1,001,2020_Jan_29_1313,posner,3.1.5,59.90409354601868,
0.5,0,0,right,1,4,2,0,2,0,4,1,33,3,,,,,,,,,579.4861863999995,579.9864285999993,580.7036059999991,None,580.0028192999998,580.6872002,581.2046719999998,None,right,1,0.335757900000317,581.2046719999998,None,None,580.0028192999998,581.1880376999998,0.5116579999994428,0.5947560999993584,1.7132567999997264,1.7963141999989602,,,,,,oren_1,001,2020_Jan_29_1313,posner,3.1.5,59.90409354601868,
0.5,180,1,right,2,4,2,0,2,0,4,2,34,5,,,,,,,,,581.5723180000005,582.0723419999995,582.7899543999993,None,582.0891757999998,582.7732914000007,583.2905465000003,None,right,1,0.26601149999987683,583.2905465000003,None,None,582.0891757999998,583.2740140999995,0.5115805000004912,0.5950033999997686,1.7132301000001462,1.7967652000006638,,,,,,oren_1,001,2020_Jan_29_1313,posner,3.1.5,59.90409354601868,
0.5,180,1,right,2,4,2,0,2,0,4,3,35,6,,,,,,,,,583.5752424999991,584.0751521999991,584.7926392999998,None,584.0917320999997,584.7761917999997,585.2935968000002,None,right,1,0.23099309999997786,585.2935968000002,None,None,584.0917320999997,585.2766293000004,0.5114114999996673,0.5948117999996612,1.712875899998835,1.796651999999085,,,,,,oren_1,001,2020_Jan_29_1313,posner,3.1.5,59.90409354601868,
-0.5,0,1,left,1,3,2,0,2,0,4,4,36,2,,,,,,,,,585.5446441999993,586.0445055,586.7620554999994,None,586.0610443999994,586.7454496999999,587.2627171999993,None,left,1,0.34186849999969127,587.2627171999993,None,None,586.0610443999994,587.2460544000005,0.5115158000007796,0.595115000000078,1.7130539000008866,1.796758000000409,,,,,,oren_1,001,2020_Jan_29_1313,posner,3.1.5,59.90409354601868,
-0.5,0,1,left,1,3,2,0,2,0,4,5,37,0,,,,,,,,,587.6305498000002,588.1304925000004,588.8483716999999,None,588.1473225999998,588.8315130999999,589.3491586,None,left,1,0.3194817999992665,589.3491586,None,None,588.1473225999998,589.3322895000001,0.5115075999983674,0.5952053999990312,1.7132859999983339,1.796889299999748,,,,,,oren_1,001,2020_Jan_29_1313,posner,3.1.5,59.90409354601868,
-0.5,180,0,left,2,3,2,0,2,0,4,6,38,4,,,,,,,,,589.6999766000008,590.2002106,590.9175510000005,None,590.2170072999998,590.9008754999995,591.4186360000003,None,right,0,0.3140146999994613,591.4186360000003,None,None,590.2170072999998,591.4017399000004,0.5116453999999067,0.5950546999993094,1.7131587999992917,1.7966818000004423,,,,,,oren_1,001,2020_Jan_29_1313,posner,3.1.5,59.90409354601868,
0.5,180,1,right,2,4,2,0,2,0,4,7,39,7,,,,,,,,,591.7524004999996,592.2529565999994,592.9707299999991,None,592.2697883000001,592.9539191999993,593.4712763000007,None,right,1,0.34124570000130916,593.4712763000007,None,None,592.2697883000001,593.4548214000006,0.5117418999998335,0.5952692999999272,1.7135535999987042,1.7970833999988827,,,,,,oren_1,001,2020_Jan_29_1313,posner,3.1.5,59.90409354601868,
-0.5,0,1,left,1,3,2,0,2,0,5,0,40,1,,,,,,,,,593.8392339000002,594.3395106999997,595.0569281000007,None,594.3561258000009,595.0403294000007,595.5576622000008,None,left,1,0.3509418000012374,595.5576622000008,None,None,594.3561258000009,595.5407876000008,0.511833900000056,0.5948822999998811,1.7130993000009767,1.7967229000005318,,,,,,oren_1,001,2020_Jan_29_1313,posner,3.1.5,59.90409354601868,
0.5,180,1,right,2,4,2,0,2,0,5,1,41,6,,,,,,,,,595.9250465000005,596.4255603999991,597.1430648000005,None,596.4420391000003,597.1267172000007,597.644069,None,right,1,0.3924796999999671,597.644069,None,None,596.4420391000003,597.6271942999992,0.5122544000005291,0.5954939000002923,1.713880400000562,1.7971773000008398,,,,,,oren_1,001,2020_Jan_29_1313,posner,3.1.5,59.90409354601868,
0.5,180,1,right,2,4,2,0,2,0,5,2,42,5,,,,,,,,,598.0617311000005,598.5617137000008,599.2794945999995,None,598.5785763999993,599.2626574999995,599.7798973000008,None,right,1,0.36877020000065386,599.7798973000008,None,None,598.5785763999993,599.7633146000007,0.5115946999994776,0.5951531999999133,1.7131886000006489,1.7966897000005702,,,,,,oren_1,001,2020_Jan_29_1313,posner,3.1.5,59.90409354601868,
-0.5,0,1,left,1,3,2,0,2,0,5,3,43,2,,,,,,,,,600.1647118000001,600.6647709999997,601.3823601999993,None,600.6812384000004,601.3657158000005,601.8829249999999,None,left,1,0.2976675999998406,601.8829249999999,None,None,600.6812384000004,601.8664893000005,0.5116015000003244,0.5949303999987023,1.7133063999990554,1.7966115999988688,,,,,,oren_1,001,2020_Jan_29_1313,posner,3.1.5,59.90409354601868,
0.5,0,0,right,1,4,2,0,2,0,5,4,44,3,,,,,,,,,602.2008155000003,602.7006081,603.4185682000007,None,602.7175141999996,603.4016262999994,603.9194019999995,604.4030143,None,0,,603.9194019999995,None,None,602.7175141999996,603.9023727999993,0.5113614000001689,0.5952015000002575,1.7131071999992855,1.7967497000008734,,,,,,oren_1,001,2020_Jan_29_1313,posner,3.1.5,59.90409354601868,
-0.5,0,1,left,1,3,2,0,2,0,5,5,45,0,,,,,,,,,604.9037852999991,605.4045547999995,606.1220568000008,604.9037852999991,605.4212915999997,606.1056970000009,606.6228102000005,None,left,1,0.08570210000107181,606.6228102000005,None,None,605.4212915999997,606.6060813999993,0.513500600000043,0.5970945000008214,1.715016400001332,1.798856400000659,,,,,,oren_1,001,2020_Jan_29_1313,posner,3.1.5,59.90409354601868,
-0.5,180,0,left,2,3,2,0,2,0,5,6,46,4,,,,,,,,,606.7402294999993,607.2404349999997,607.9581230000003,None,607.2571525000003,607.9414648999991,608.4588480000002,None,left,1,0.44169999999940046,608.4588480000002,None,None,607.2571525000003,608.4420405000001,0.5117584999989049,0.595224299999245,1.7133505000001605,1.7970140999987052,,,,,,oren_1,001,2020_Jan_29_1313,posner,3.1.5,59.90409354601868,
0.5,180,1,right,2,4,2,0,2,0,5,7,47,7,,,,,,,,,608.9267301,609.4267662999991,610.1444864000005,None,609.4434440000005,610.1278263000004,610.6451950999999,None,right,1,0.2555536999989272,610.6451950999999,None,None,609.4434440000005,610.6282993000004,0.5116061000007903,0.5949744999998074,1.7131315999995422,1.7965951999995013,,,,,,oren_1,001,2020_Jan_29_1313,posner,3.1.5,59.90409354601868,
0.5,0,0,right,1,4,2,0,2,0,6,0,48,3,,,,,,,,,610.9295442999992,611.4295552999993,612.1472744999992,None,611.4464231999991,612.1305845999996,612.6479359000004,None,right,1,0.41266129999894474,612.6479359000004,None,None,611.4464231999991,612.6311676999994,0.511703000000125,0.5949839000004431,1.7133013000002393,1.796699600001375,,,,,,oren_1,001,2020_Jan_29_1313,posner,3.1.5,59.90409354601868,
-0.5,0,1,left,1,3,2,0,2,0,6,1,49,0,,,,,,,,,613.0823488999995,613.5824794,614.3002035999998,None,613.5994121000003,614.2834005999994,614.8007123000007,None,left,1,0.29186289999961446,614.8007123000007,None,None,613.5994121000003,614.7844076000001,0.5117904999988241,0.5954244999993534,1.713696599999821,1.7968333999997412,,,,,,oren_1,001,2020_Jan_29_1313,posner,3.1.5,59.90409354601868,
-0.5,0,1,left,1,3,2,0,2,0,6,2,50,2,,,,,,,,,615.1187227999999,615.6187059999993,616.3363057000006,None,615.6351945999995,616.3196270000008,616.8371559000007,None,left,1,0.1754241999988153,616.8371559000007,None,None,615.6351945999995,616.8202913999994,0.5115523000004032,0.5948534999988624,1.7131221999989066,1.7967719999996916,,,,,,oren_1,001,2020_Jan_29_1313,posner,3.1.5,59.90409354601868,
0.5,180,1,right,2,4,2,0,2,0,6,3,51,5,,,,,,,,,617.0378791000003,617.5379818999991,618.2556927000005,None,617.5546806000002,618.2391232999998,618.7562773999998,None,right,1,0.2882317999992665,618.7562773999998,None,None,617.5546806000002,618.7398979000009,0.5117659000006824,0.595115000000078,1.7136645000009594,1.7967515000000276,,,,,,oren_1,001,2020_Jan_29_1313,posner,3.1.5,59.90409354601868,
0.5,180,1,right,2,4,2,0,2,0,6,4,52,6,,,,,,,,,619.0741194000002,619.5743600000005,620.2917003000002,None,619.5908863999994,620.2750725000005,620.7923921999991,None,right,1,0.2682271000012406,620.7923921999991,None,None,619.5908863999994,620.7758348000007,0.5117972999996709,0.5949868000006973,1.7132547000001068,1.7967776999994385,,,,,,oren_1,001,2020_Jan_29_1313,posner,3.1.5,59.90409354601868,
-0.5,0,1,left,1,3,2,0,2,0,6,5,53,1,,,,,,,,,621.0768822999999,621.5770057000009,622.2944642999992,None,621.5937102000007,622.2778424999997,622.7954503000001,None,left,1,0.26523180000003777,622.7954503000001,None,None,621.5937102000007,622.7785045,0.5115281999987928,0.5946809999986726,1.7130207999998674,1.7965478999994957,,,,,,oren_1,001,2020_Jan_29_1313,posner,3.1.5,59.90409354601868,
0.5,180,1,right,2,4,2,0,2,0,6,6,54,7,,,,,,,,,623.0794936000002,623.5797514999995,624.2971765999991,None,623.5964645999993,624.2805688999997,624.7980900999992,None,right,1,0.16662559999895166,624.7980900999992,None,None,623.5964645999993,624.7814025000007,0.511771299999964,0.5949739999996382,1.71340550000059,1.7967143000005308,,,,,,oren_1,001,2020_Jan_29_1313,posner,3.1.5,59.90409354601868,
-0.5,180,0,left,2,3,2,0,2,0,6,7,55,4,,,,,,,,,624.9823832999991,625.4823328999992,626.2000466000009,None,625.4991608,626.1832773999995,626.7005128000001,None,left,1,0.3441290000009758,626.7005128000001,None,None,625.4991608,626.6839595999991,0.511521400001584,0.5949348000012833,1.713095400000384,1.7967416999999841,,,,,,oren_1,001,2020_Jan_29_1313,posner,3.1.5,59.90409354601868,
-0.5,0,1,left,1,3,2,0,2,0,7,0,56,0,,,,,,,,,627.0684961999996,627.5684834999993,628.286349,None,627.5852869999999,628.2695514000006,628.7868679999992,None,left,1,0.22577839999939897,628.7868679999992,None,None,627.5852869999999,628.7701168999993,0.5109518000008393,0.5942060000015772,1.7125332000014168,1.7959139000013238,,,,,,oren_1,001,2020_Jan_29_1313,posner,3.1.5,59.90409354601868,
0.5,0,0,right,1,4,2,0,2,0,7,1,57,3,,,,,,,,,629.0381978000005,629.5378230999995,630.2556270999994,None,629.5546455000003,630.2389934999992,630.7561442999995,None,right,1,0.33644510000158334,630.7561442999995,None,None,629.5546455000003,630.7396632,0.5114794000000984,0.5948978000014904,1.7133014000010007,1.796616500001619,,,,,,oren_1,001,2020_Jan_29_1313,posner,3.1.5,59.90409354601868,
-0.5,0,1,left,1,3,2,0,2,0,7,2,58,2,,,,,,,,,631.1241862999996,631.6240839000002,632.3417313999998,None,631.6408343000003,632.3251242999995,632.8424032999992,None,left,1,0.33021130000088306,632.8424032999992,None,None,631.6408343000003,632.8258877999997,0.51155910000125,0.5950570000004518,1.7133360000007087,1.7965339000002132,,,,,,oren_1,001,2020_Jan_29_1313,posner,3.1.5,59.90409354601868,
-0.5,180,0,left,2,3,2,0,2,0,7,3,59,4,,,,,,,,,633.1940013999993,633.6936150000001,634.4112239999995,None,633.7103587999991,634.3946601999996,634.9119114999994,None,right,0,0.020709000000351807,634.9119114999994,None,None,633.7103587999991,634.8954665000001,0.5114174999998795,0.5948172999997041,1.7132557999993878,None,,,,,,oren_1,001,2020_Jan_29_1313,posner,3.1.5,59.90409354601868,
0.5,180,1,right,2,4,2,0,2,0,7,4,60,7,,,,,,,,,634.9626831000005,635.4627239999991,636.1804179999999,None,635.4795572000003,636.1636942000005,636.6810587,None,right,1,0.2996210000001156,636.6810587,None,None,635.4795572000003,636.6645313999998,0.511380799998733,0.5948565999988205,1.713162199999715,1.7967785999990156,,,,,,oren_1,001,2020_Jan_29_1313,posner,3.1.5,59.90409354601868,
-0.5,0,1,left,1,3,2,0,2,0,7,5,61,1,,,,,,,,,636.9991365999995,637.4990722000002,638.2165101999999,None,637.5156157000001,638.1998967,638.7172190000001,None,left,1,0.23145610000028682,638.7172190000001,None,None,637.5156157000001,638.7005551999991,0.5116493999994418,0.5949196000001393,1.713122299999668,1.7965674999995827,,,,,,oren_1,001,2020_Jan_29_1313,posner,3.1.5,59.90409354601868,
0.5,180,1,right,2,4,2,0,2,0,7,6,62,5,,,,,,,,,638.9683349000006,639.4683513,640.1861055000008,None,639.4849496999996,640.1692604,640.6867853000003,None,right,1,0.1658828999989055,640.6867853000003,None,None,639.4849496999996,640.6698367000008,0.5116469999993569,0.5949521000002278,1.7131210000006831,1.796660800000609,,,,,,oren_1,001,2020_Jan_29_1313,posner,3.1.5,59.90409354601868,
0.5,180,1,right,2,4,2,0,2,0,7,7,63,6,,,,,,,,,640.8707696999991,641.3707071999997,642.0888519,None,641.3876180999996,642.0717459999996,642.5892867999992,None,right,1,0.15138259999912407,642.5892867999992,None,None,641.3876180999996,642.5724678999995,0.5114086000012321,0.5951466000005894,1.7131511000006867,1.7966562000001431,,,,,,oren_1,001,2020_Jan_29_1313,posner,3.1.5,59.90409354601868,
0.5,180,1,right,2,4,2,0,2,0,8,0,64,5,,,,,,,,,642.7567378999993,643.2568377999996,643.9744974999994,None,643.2735518999998,643.9578562999995,644.4752446000002,None,right,1,0.2173283000010997,644.4752446000002,None,None,643.2735518999998,644.4584921999995,0.5114510000003065,0.59481550000055,1.7130914999997913,1.7965987999996287,,,,,,oren_1,001,2020_Jan_29_1313,posner,3.1.5,59.90409354601868,
0.5,180,1,right,2,4,2,0,2,0,8,1,65,6,,,,,,,,,644.7094381999996,645.2098260000002,645.9273826999997,None,645.2260760000008,645.9104559000007,646.4278856000001,646.9118419000006,right,1,0.6488043999997899,646.4278856000001,None,None,645.2260760000008,646.4110787999998,0.5118519999996352,0.5948414999984379,1.7130874999984371,1.7965848999992886,,,,,,oren_1,001,2020_Jan_29_1313,posner,3.1.5,59.90409354601868,
0.5,0,0,right,1,4,2,0,2,0,8,2,66,3,,,,,,,,,647.0961599999991,647.5963785999993,648.3137098999996,None,647.6126877000006,648.2971407000005,648.8146823999996,None,left,0,0.19800709999981336,648.8146823999996,None,None,647.6126877000006,648.7976999999992,0.5117709000005561,0.595018700001674,1.7130781000014395,1.796706200000699,,,,,,oren_1,001,2020_Jan_29_1313,posner,3.1.5,59.90409354601868,
-0.5,180,0,left,2,3,2,0,2,0,8,3,67,4,,,,,,,,,649.0322634000004,649.5320664999999,650.2498240999994,None,649.5490081000007,650.2331021999998,650.7503821999999,651.2347104,left,1,0.5502741999989667,650.7503821999999,None,None,649.5490081000007,650.7340487000001,0.5112257000000682,0.5948119000004226,1.7131852000002254,1.7964410000004136,,,,,,oren_1,001,2020_Jan_29_1313,posner,3.1.5,59.90409354601868,
0.5,180,1,right,2,4,2,0,2,0,8,4,68,7,,,,,,,,,651.3182250999998,651.8186958999995,652.5365019000001,None,651.8353611999992,652.5198483999993,653.0370937000007,653.5208684000008,right,1,0.48758319999978994,653.0370937000007,None,None,651.8353611999992,653.0202578000008,0.5119611000009172,0.5951889000007213,1.7135015000003477,1.7969250999994983,,,,,,oren_1,001,2020_Jan_29_1313,posner,3.1.5,59.90409354601868,
-0.5,0,1,left,1,3,2,0,2,0,8,5,69,0,,,,,,,,,653.5551034,654.0550868999999,654.7726548999999,None,654.0716178999992,654.7561459999997,655.2735269999994,None,left,1,0.25115609999920707,655.2735269999994,None,None,654.0716178999992,655.2568905000007,0.511536600000909,0.5949856000006548,1.713324600001215,1.7967047000001912,,,,,,oren_1,001,2020_Jan_29_1313,posner,3.1.5,59.90409354601868,
-0.5,0,1,left,1,3,2,0,2,0,8,6,70,2,,,,,,,,,655.5409146000002,656.0411354000007,656.7589903000007,None,656.0580556999994,656.7422165999997,657.2594654000004,None,left,1,0.2011750999990909,657.2594654000004,None,None,656.0580556999994,657.2428722000004,0.5118200999986584,0.5952234999986104,1.713542099998449,1.7969522999992478,,,,,,oren_1,001,2020_Jan_29_1313,posner,3.1.5,59.90409354601868,
-0.5,0,1,left,1,3,2,0,2,0,8,7,71,1,,,,,,,,,657.4771378000005,657.9771652,658.6948983000002,None,657.9937042999991,658.6784731999996,659.1955827999991,None,left,1,0.21721620000062103,659.1955827999991,None,None,657.9937042999991,659.1790094000007,0.511474900000394,0.594919299999674,1.7133042000004934,1.7964685000006284,,,,,,oren_1,001,2020_Jan_29_1313,posner,3.1.5,59.90409354601868,
0.5,180,1,right,2,4,2,0,2,0,9,0,72,5,,,,,,,,,659.4297678000003,659.9298003000004,660.6477302999992,None,659.9465694999999,660.6306249000008,661.1481299999996,None,right,1,0.2965533000005962,661.1481299999996,None,None,659.9465694999999,661.1313585999997,0.5117479000000458,0.595099800000753,1.713287799999307,1.7968237000004592,,,,,,oren_1,001,2020_Jan_29_1313,posner,3.1.5,59.90409354601868,
