targetX,cueOri,congr,corrAns,pin_cue,pin_target,block.thisRepN,block.thisTrialN,block.thisN,block.thisIndex,posner_task.thisRepN,posner_task.thisTrialN,posner_task.thisN,posner_task.thisIndex,port_start_block.started,port_start_block.stopped,text_2.started,text_2.stopped,p_port.started,p_port.stopped,text.started,text.stopped,fixation_1.started,fixation_1.stopped,fixation_2.started,fixation_2.stopped,cue.started,cue.stopped,target.started,target.stopped,correct_key_resp.keys,correct_key_resp.corr,correct_key_resp.rt,correct_key_resp.started,correct_key_resp.stopped,early_resp.keys,early_resp.started,early_resp.stopped,trigger_cue.started,trigger_cue.stopped,trigger_target.started,trigger_target.stopped,break_text.started,break_text.stopped,end_port.started,end_port.stopped,participant,session,date,expName,psychopyVersion,frameRate,
0.5,180,1,right,2,4,0,0,0,0,0,0,0,6,1.630000042496249e-05,0.09622229999968113,15.467300199999954,None,1.430000065738568e-05,0.0995757999999114,17.353057000000263,None,17.682790200000454,18.18788459999996,18.905283500000223,None,18.20411460000014,18.888545699999668,19.40603629999987,None,right,1,0.2399559000004956,19.40603629999987,None,None,18.20411460000014,19.38947840000037,0.5146710999997595,0.5976772000003621,1.7162465000001248,1.7993780000006154,,,,,nikita_2,001,2020_Feb_13_1319,posner,3.1.5,59.88791378081541,
-0.5,0,1,left,1,3,0,0,0,0,0,1,1,2,,,,,,,,,19.67359529999976,20.17361450000044,20.89111520000006,None,20.19040320000022,20.874578799999654,21.39193940000041,None,left,1,0.28585350000048493,21.39193940000041,None,None,20.19040320000022,21.375444100000095,0.5109075999998822,0.59425629999987,1.7127058999994915,1.7961089999998876,,,,,nikita_2,001,2020_Feb_13_1319,posner,3.1.5,59.88791378081541,
0.5,180,1,right,2,4,0,0,0,0,0,2,2,5,,,,,,,,,21.709365499999876,22.209762399999818,22.927615499999774,None,22.226385400000254,22.910769000000073,23.428128100000322,None,right,1,0.257750799999485,23.428128100000322,None,None,22.226385400000254,23.411302100000285,0.5120184000006702,0.5953228000007584,1.7135435000000143,1.7970634000002974,,,,,nikita_2,001,2020_Feb_13_1319,posner,3.1.5,59.88791378081541,
0.5,0,0,right,1,4,0,0,0,0,0,3,3,3,,,,,,,,,23.71209850000014,24.212360399999852,24.930240599999706,None,24.229579900000317,24.913394600000174,25.43090140000004,None,right,1,0.3189332000001741,25.43090140000004,None,None,24.229579900000317,25.41451479999978,0.5117989000000307,0.5953878000000259,1.7139400999994905,1.7971902999997837,,,,,nikita_2,001,2020_Feb_13_1319,posner,3.1.5,59.88791378081541,
-0.5,0,1,left,1,3,0,0,0,0,0,4,4,1,,,,,,,,,25.765469400000256,26.265335899999627,26.98312259999966,None,26.28201100000024,26.966405199999826,27.483531400000174,None,left,1,0.2503884999996444,27.483531400000174,None,None,26.28201100000024,27.467048000000432,0.5115793000004487,0.595092200000181,1.713295200000175,1.7967334000004485,,,,,nikita_2,001,2020_Feb_13_1319,posner,3.1.5,59.88791378081541,
0.5,180,1,right,2,4,0,0,0,0,0,5,5,7,,,,,,,,,27.751456199999666,28.251287299999603,28.969204699999864,None,28.268136100000447,28.952691600000435,29.46964560000015,None,right,1,0.2561826999999539,29.46964560000015,None,None,28.268136100000447,29.453194100000474,0.5115010999998049,0.5951846999996633,1.713392599999679,1.7966873999994277,,,,,nikita_2,001,2020_Feb_13_1319,posner,3.1.5,59.88791378081541,
-0.5,180,0,left,2,3,0,0,0,0,0,6,6,4,,,,,,,,,29.754601999999977,30.254158200000347,30.971768899999915,None,30.27072920000046,30.955076199999894,31.472340500000428,None,left,1,0.29339759999948,31.472340500000428,None,None,30.27072920000046,31.455663800000366,0.5118053000005602,0.595154000000548,1.7130828999997902,1.7967223000005106,,,,,nikita_2,001,2020_Feb_13_1319,posner,3.1.5,59.88791378081541,
-0.5,0,1,left,1,3,0,0,0,0,0,7,7,0,,,,,,,,,31.790079000000333,32.29041299999972,33.00821259999975,None,32.30705089999992,32.991221600000245,33.508802500000456,None,left,1,0.2649855999998181,33.508802500000456,None,None,32.30705089999992,33.49183549999998,0.5118816999993214,0.5952649999999267,1.713296299999456,1.7968692999993436,,,,,nikita_2,001,2020_Feb_13_1319,posner,3.1.5,59.88791378081541,
-0.5,180,0,left,2,3,0,0,0,0,1,0,8,4,,,,,,,,,33.79298999999992,34.29315150000002,35.0105666999998,None,34.309743400000116,34.994213599999966,35.511436499999945,None,right,0,0.23040629999923112,35.511436499999945,None,None,34.309743400000116,35.49477670000033,0.5119008000001486,0.5953777000004266,1.713502900000094,1.7969870999995692,,,,,nikita_2,001,2020_Feb_13_1319,posner,3.1.5,59.88791378081541,
0.5,180,1,right,2,4,0,0,0,0,1,1,9,7,,,,,,,,,35.762697899999694,36.26224430000002,36.980221800000436,None,36.27920549999999,36.96341560000019,37.480835899999875,None,right,1,0.3088796000001821,37.480835899999875,None,None,36.27920549999999,37.46397739999975,0.511168799999723,0.5947987999998077,1.7128852999994706,1.7964274999994814,,,,,nikita_2,001,2020_Feb_13_1319,posner,3.1.5,59.88791378081541,
0.5,180,1,right,2,4,0,0,0,0,1,2,10,6,,,,,,,,,37.81566649999968,38.315354899999875,39.03283889999966,None,38.33186939999996,39.0162935999997,39.53360350000003,None,right,1,0.31215140000040265,39.53360350000003,None,None,38.33186939999996,39.516791199999716,0.511549500000001,0.5951082999999926,1.712963199999649,1.796542099999897,,,,,nikita_2,001,2020_Feb_13_1319,posner,3.1.5,59.88791378081541,
-0.5,0,1,left,1,3,0,0,0,0,1,3,11,2,,,,,,,,,39.868099899999834,40.368115999999645,41.08578860000034,None,40.38480780000009,41.06912900000043,41.586333500000364,None,left,1,0.27538259999982984,41.586333500000364,None,None,40.38480780000009,41.56983130000026,0.511649000000034,0.5954134999992675,1.7133406999992076,1.7965566999992006,,,,,nikita_2,001,2020_Feb_13_1319,posner,3.1.5,59.88791378081541,
0.5,180,1,right,2,4,0,0,0,0,1,4,12,5,,,,,,,,,41.887603500000296,42.387451800000235,43.10528729999987,None,42.40439549999974,43.088447899999665,43.60609159999967,None,right,1,0.2796154999996361,43.60609159999967,None,None,42.40439549999974,43.5892702000001,0.5114975999995295,0.5950402999997095,1.7132974999994985,1.7965527999995174,,,,,nikita_2,001,2020_Feb_13_1319,posner,3.1.5,59.88791378081541,
-0.5,0,1,left,1,3,0,0,0,0,1,5,13,0,,,,,,,,,43.90719150000041,44.40713500000038,45.12460009999995,None,44.42359800000031,45.107890500000394,45.62559109999984,None,left,1,0.4280752999993638,45.62559109999984,None,None,44.42359800000031,45.60875550000037,0.5116023999999015,0.5949995000000854,1.7132118999998056,1.7965037000003576,,,,,nikita_2,001,2020_Feb_13_1319,posner,3.1.5,59.88791378081541,
0.5,0,0,right,1,4,0,0,0,0,1,6,14,3,,,,,,,,,46.07628440000008,46.57674510000015,47.294251799999984,None,46.59326340000007,47.27768120000019,47.79489180000019,None,right,1,0.34687789999952656,47.79489180000019,None,None,46.59326340000007,47.77844989999994,0.5120825000003606,0.5954341000006025,1.713783300000614,1.7968760000003385,,,,,nikita_2,001,2020_Feb_13_1319,posner,3.1.5,59.88791378081541,
-0.5,0,1,left,1,3,0,0,0,0,1,7,15,1,,,,,,,,,48.163050699999985,48.66286920000039,49.38063930000044,None,48.67948679999972,49.363746199999696,49.88105170000017,None,left,1,0.28458190000037575,49.88105170000017,None,None,48.67948679999972,49.864508900000146,0.5116321000004973,0.5951848000004247,1.7132497000002331,1.796789400000307,,,,,nikita_2,001,2020_Feb_13_1319,posner,3.1.5,59.88791378081541,
-0.5,0,1,left,1,3,0,0,0,0,2,0,16,1,,,,,,,,,50.182400300000154,50.682202199999665,51.39989010000045,None,50.699033200000486,51.383172800000466,51.90054390000023,None,left,1,0.3050683999999819,51.90054390000023,None,None,50.699033200000486,51.88405479999983,0.5114254999998593,0.5950487999998586,1.7132655999994313,1.7966098999995666,,,,,nikita_2,001,2020_Feb_13_1319,posner,3.1.5,59.88791378081541,
0.5,180,1,right,2,4,0,0,0,0,2,1,17,6,,,,,,,,,52.23518400000012,52.73514049999994,53.452869499999906,None,52.75150399999984,53.43614009999965,53.95340949999991,None,right,1,0.26030830000036076,53.95340949999991,None,None,52.75150399999984,53.93664499999977,0.5115929999992659,0.5950821999995242,1.7130921999996644,1.7965802999997322,,,,,nikita_2,001,2020_Feb_13_1319,posner,3.1.5,59.88791378081541,
0.5,180,1,right,2,4,0,0,0,0,2,2,18,5,,,,,,,,,54.23804589999963,54.737629999999626,55.45544559999962,None,54.75447199999962,55.43889930000023,55.956268799999634,None,right,1,0.2733889999999519,55.956268799999634,None,None,54.75447199999962,55.93941110000014,0.5110716999997749,0.594711599999755,1.7128334999997605,1.796434799999588,,,,,nikita_2,001,2020_Feb_13_1319,posner,3.1.5,59.88791378081541,
-0.5,180,0,left,2,3,0,0,0,0,2,3,19,4,,,,,,,,,56.25931700000001,56.7574225999997,57.4749425,None,56.77425479999965,57.458292500000425,57.975721099999646,None,left,1,0.42188769999938813,57.975721099999646,None,None,56.77425479999965,57.95899280000049,0.5082767000003514,0.5915149000002202,1.709830800000418,1.7932188000004317,,,,,nikita_2,001,2020_Feb_13_1319,posner,3.1.5,59.88791378081541,
0.5,0,0,right,1,4,0,0,0,0,2,4,20,3,,,,,,,,,58.426587400000244,58.92693270000018,59.644690600000104,None,58.94366309999987,59.62797839999985,60.145201199999974,None,right,1,0.3326021999992008,60.145201199999974,None,None,58.94366309999987,60.12862860000041,0.5116773999998259,0.5951166999993802,1.7133561000000554,1.796698899999683,,,,,nikita_2,001,2020_Feb_13_1319,posner,3.1.5,59.88791378081541,
-0.5,0,1,left,1,3,0,0,0,0,2,5,21,0,,,,,,,,,60.497035100000176,60.99648789999992,61.714191299999584,None,61.013088900000184,61.697478400000364,62.21485159999975,None,left,1,0.23875419999967562,62.21485159999975,None,None,61.013088900000184,62.19809239999995,0.5110954000001584,0.5946620999993684,1.7126871000000392,1.7961649999997462,,,,,nikita_2,001,2020_Feb_13_1319,posner,3.1.5,59.88791378081541,
-0.5,0,1,left,1,3,0,0,0,0,2,6,22,2,,,,,,,,,62.482764000000316,62.982391700000335,63.70016659999965,None,62.9992228000001,63.68343730000015,64.20079179999993,None,left,1,0.32485910000013973,64.20079179999993,None,None,62.9992228000001,64.18407469999966,0.5113338000001022,0.5947895999997854,1.7130176000000574,1.7967373999999836,,,,,nikita_2,001,2020_Feb_13_1319,posner,3.1.5,59.88791378081541,
0.5,180,1,right,2,4,0,0,0,0,2,7,23,7,,,,,,,,,64.55203400000028,65.0519475000001,65.76964430000044,None,65.06874789999983,65.7529026000002,66.27032870000039,None,right,1,0.23942429999988235,66.27032870000039,None,None,65.06874789999983,66.25369570000021,0.5114443000002211,0.594893299999967,1.7131878000000142,1.796794800000498,,,,,nikita_2,001,2020_Feb_13_1319,posner,3.1.5,59.88791378081541,
-0.5,0,1,left,1,3,0,0,0,0,3,0,24,1,,,,,,,,,66.53809230000024,67.03830170000037,67.7558595999999,None,67.05487509999966,67.73923749999994,68.2565612999997,None,left,1,0.2530348000000231,68.2565612999997,None,None,67.05487509999966,68.23978299999999,0.5118812000000617,0.5951161000002685,1.7133481999999276,1.79666940000061,,,,,nikita_2,001,2020_Feb_13_1319,posner,3.1.5,59.88791378081541,
0.5,180,1,right,2,4,0,0,0,0,3,1,25,6,,,,,,,,,68.54046490000019,69.04097280000042,69.75856079999994,None,69.05756250000013,69.74167260000013,70.25925439999992,None,right,1,0.24231890000010026,70.25925439999992,None,None,69.05756250000013,70.24237919999996,0.5118044000000737,0.5951816000006147,1.7131921000000148,1.7969235999999,,,,,nikita_2,001,2020_Feb_13_1319,posner,3.1.5,59.88791378081541,
-0.5,0,1,left,1,3,0,0,0,0,3,2,26,2,,,,,,,,,70.52704569999969,71.02717910000047,71.74455940000007,None,71.04370110000036,71.7279282999998,72.24546160000045,None,left,1,0.2960859000004348,72.24546160000045,None,None,71.04370110000036,72.22871610000038,0.5118449000001419,0.5948422999999821,1.7133659999999509,1.7965493000001516,,,,,nikita_2,001,2020_Feb_13_1319,posner,3.1.5,59.88791378081541,
0.5,180,1,right,2,4,0,0,0,0,3,3,27,7,,,,,,,,,72.5631983000003,73.06294080000043,73.78053920000002,None,73.07989199999975,73.76409580000018,74.28140410000015,None,right,1,0.2602080000006026,74.28140410000015,None,None,73.07989199999975,74.26480950000041,0.5112320999996882,0.5947675999996136,1.7130772000000434,1.7964787000000797,,,,,nikita_2,001,2020_Feb_13_1319,posner,3.1.5,59.88791378081541,
0.5,180,1,right,2,4,0,0,0,0,3,4,28,5,,,,,,,,,74.56530300000031,75.06577689999995,75.78333420000035,None,75.08251110000037,75.76670250000006,76.28413650000039,None,right,1,0.3134481999995842,76.28413650000039,None,None,75.08251110000037,76.2675565999998,0.5123598999998649,0.5960200999998051,1.714118700000654,1.7973958000002312,,,,,nikita_2,001,2020_Feb_13_1319,posner,3.1.5,59.88791378081541,
-0.5,0,1,left,1,3,0,0,0,0,3,5,29,0,,,,,,,,,76.61867150000035,77.11871470000006,77.83622120000018,None,77.13542299999972,77.81948139999986,78.33704390000003,None,left,1,0.23647019999953045,78.33704390000003,None,None,77.13542299999972,78.32005029999982,0.5118216000000757,0.5949706999999762,1.7131437999996706,1.796687999999449,,,,,nikita_2,001,2020_Feb_13_1319,posner,3.1.5,59.88791378081541,
-0.5,180,0,left,2,3,0,0,0,0,3,6,30,4,,,,,,,,,78.60387150000042,79.10468390000005,79.82216799999969,None,79.1212486000004,79.80562590000045,80.32289330000003,None,left,1,0.3465756000005058,80.32289330000003,None,None,79.1212486000004,80.30636460000005,0.5116621999995914,0.5950634000000719,1.7133284000001368,1.7968071999994208,,,,,nikita_2,001,2020_Feb_13_1319,posner,3.1.5,59.88791378081541,
0.5,0,0,right,1,4,0,0,0,0,3,7,31,3,,,,,,,,,80.69102480000038,81.19072080000024,81.90865310000027,None,81.20739959999992,81.89192139999977,82.4092069999997,None,right,1,0.292298700000174,82.4092069999997,None,None,81.20739959999992,82.39245819999996,0.5114289000002827,0.5951375000004191,1.7131538000003275,1.7968270000001212,,,,,nikita_2,001,2020_Feb_13_1319,posner,3.1.5,59.88791378081541,
0.5,0,0,right,1,4,0,0,0,0,4,0,32,3,,,,,,,,,82.72719150000012,83.22706709999966,83.94471869999961,None,83.24374540000008,83.92808330000025,84.44541409999965,None,right,1,0.336141900000257,84.44541409999965,None,None,83.24374540000008,84.42866270000013,0.5115823999994973,0.5949388999997609,1.7131664999997156,1.7966003000001365,,,,,nikita_2,001,2020_Feb_13_1319,posner,3.1.5,59.88791378081541,
0.5,180,1,right,2,4,0,0,0,0,4,1,33,5,,,,,,,,,84.81296670000029,85.31323030000021,86.03084049999961,None,85.32994839999992,86.01442709999992,86.53156229999968,None,right,1,0.39412719999927504,86.53156229999968,None,None,85.32994839999992,86.5147151000001,0.5116421999991871,0.5950530000000072,1.7131085999999414,1.7967219999991357,,,,,nikita_2,001,2020_Feb_13_1319,posner,3.1.5,59.88791378081541,
-0.5,0,1,left,1,3,0,0,0,0,4,2,34,0,,,,,,,,,86.94988310000008,87.4496380999999,88.16724570000042,None,87.46628260000034,88.15044769999986,88.66785450000043,None,left,1,0.34563729999990755,88.66785450000043,None,None,87.46628260000034,88.65096449999965,0.5117070000005697,0.5948820000003252,1.7130152999998245,1.7965651000004073,,,,,nikita_2,001,2020_Feb_13_1319,posner,3.1.5,59.88791378081541,
-0.5,180,0,left,2,3,0,0,0,0,4,3,35,4,,,,,,,,,89.0360499999997,89.53559700000005,90.25318119999974,None,89.55225189999965,90.23662419999982,90.75398330000007,None,left,1,0.35572659999979805,90.75398330000007,None,None,89.55225189999965,90.73727179999969,0.5113286999994671,0.5949289999998655,1.7129783999998835,1.7964317999994819,,,,,nikita_2,001,2020_Feb_13_1319,posner,3.1.5,59.88791378081541,
0.5,180,1,right,2,4,0,0,0,0,4,4,36,7,,,,,,,,,91.13878130000012,91.63862539999991,92.35632600000008,None,91.65528100000029,92.33951890000026,92.85688279999977,None,left,0,0.2686071999996784,92.85688279999977,None,None,91.65528100000029,92.84031489999961,0.5116963000000396,0.5949126999994405,1.7133728999997402,1.7967066000001068,,,,,nikita_2,001,2020_Feb_13_1319,posner,3.1.5,59.88791378081541,
-0.5,0,1,left,1,3,0,0,0,0,4,5,37,2,,,,,,,,,93.14119099999971,93.64108810000016,94.35904180000034,None,93.65799919999972,94.34222460000001,94.85979640000005,None,left,1,0.32968069999969885,94.85979640000005,None,None,93.65799919999972,94.84284200000002,0.5114603000001807,0.5953650999999809,1.7131945000000997,1.7968549999995957,,,,,nikita_2,001,2020_Feb_13_1319,posner,3.1.5,59.88791378081541,
-0.5,0,1,left,1,3,0,0,0,0,4,6,38,1,,,,,,,,,95.21112840000023,95.71070289999989,96.42861689999972,None,95.72770690000016,96.41167930000029,96.92924310000035,None,left,1,0.31623339999987365,96.92924310000035,None,None,95.72770690000016,96.91261020000002,0.5113642999995136,0.5950229999998555,1.713252300000022,1.7964758999996775,,,,,nikita_2,001,2020_Feb_13_1319,posner,3.1.5,59.88791378081541,
0.5,180,1,right,2,4,0,0,0,0,4,7,39,6,,,,,,,,,97.26379110000016,97.76363000000038,98.48134620000019,None,97.78027680000014,98.464696,98.98197390000041,None,right,1,0.2954276000000391,98.98197390000041,None,None,97.78027680000014,98.96534840000004,0.5114583000004131,0.5948734000003242,1.7131391000002623,1.7966268999998647,,,,,nikita_2,001,2020_Feb_13_1319,posner,3.1.5,59.88791378081541,
0.5,0,0,right,1,4,0,0,0,0,5,0,40,3,,,,,,,,,99.30013229999986,99.79971699999987,100.51733849999982,None,99.81649019999986,100.5007327000003,101.01799140000003,None,right,1,0.3314578999998048,101.01799140000003,None,None,99.81649019999986,101.00135599999976,0.5113639999999577,0.5947481000002881,1.7129842000003919,1.7966378000000987,,,,,nikita_2,001,2020_Feb_13_1319,posner,3.1.5,59.88791378081541,
0.5,180,1,right,2,4,0,0,0,0,5,1,41,6,,,,,,,,,101.36941320000005,101.86924429999999,102.5870874000002,None,101.88599739999972,102.57016230000045,103.08777050000026,None,right,1,0.2615512000002127,103.08777050000026,None,None,101.88599739999972,103.0709267000002,0.5114177000004929,0.5949510000000373,1.713087600000108,1.7966137000003073,,,,,nikita_2,001,2020_Feb_13_1319,posner,3.1.5,59.88791378081541,
-0.5,180,0,left,2,3,0,0,0,0,5,2,42,4,,,,,,,,,103.37136740000005,103.8720927000004,104.58962090000023,None,103.88899390000006,104.57304740000018,105.09050620000016,None,left,1,0.34694129999934376,105.09050620000016,None,None,103.88899390000006,105.07386690000021,0.5125692000001436,0.5959642999996504,1.7143331999996008,1.7976010000002134,,,,,nikita_2,001,2020_Feb_13_1319,posner,3.1.5,59.88791378081541,
-0.5,0,1,left,1,3,0,0,0,0,5,3,43,1,,,,,,,,,105.45831499999986,105.95849429999998,106.67584850000003,None,105.97494220000044,106.6594455000004,107.17679399999997,None,left,1,0.2686520000006567,107.17679399999997,None,None,105.97494220000044,107.16000290000011,0.5118222000000969,0.5949632000001657,1.713314800000262,1.796567999999752,,,,,nikita_2,001,2020_Feb_13_1319,posner,3.1.5,59.88791378081541,
-0.5,0,1,left,1,3,0,0,0,0,5,4,44,0,,,,,,,,,107.46101420000014,107.96103459999995,108.67855169999984,None,107.97787909999988,108.66199849999975,109.17941369999971,None,left,1,0.2820155999997951,109.17941369999971,None,None,107.97787909999988,109.16280650000044,0.5116065000001981,0.5951261000000159,1.7133628000001409,1.7966950999998517,,,,,nikita_2,001,2020_Feb_13_1319,posner,3.1.5,59.88791378081541,
0.5,180,1,right,2,4,0,0,0,0,5,5,45,5,,,,,,,,,109.48034639999969,109.98051409999971,110.69809629999963,None,109.99703169999975,110.68148870000005,111.19895350000024,None,right,1,0.2785609000002296,111.19895350000024,None,None,109.99703169999975,111.1821001999997,0.5117904999997336,0.5953041000002486,1.71335259999978,1.796872599999915,,,,,nikita_2,001,2020_Feb_13_1319,posner,3.1.5,59.88791378081541,
0.5,180,1,right,2,4,0,0,0,0,5,6,46,7,,,,,,,,,111.50024769999982,111.99990909999997,112.71772229999988,None,112.01656009999988,112.70074810000006,113.21834709999985,None,right,1,0.3071702000006553,113.21834709999985,None,None,112.01656009999988,113.20147590000033,0.5113969000003635,0.5948088000004645,1.712951299999986,1.7964374000002863,,,,,nikita_2,001,2020_Feb_13_1319,posner,3.1.5,59.88791378081541,
-0.5,0,1,left,1,3,0,0,0,0,5,7,47,2,,,,,,,,,113.55310800000007,114.05267999999978,114.7702018,None,114.06945900000028,114.75368450000042,115.27084360000026,None,left,1,0.2944491999996899,115.27084360000026,None,None,114.06945900000028,115.25426270000025,0.5114828000005218,0.5949835999999777,1.7130429999997432,1.7967360000002373,,,,,nikita_2,001,2020_Feb_13_1319,posner,3.1.5,59.88791378081541,
-0.5,0,1,left,1,3,0,0,0,0,6,0,48,2,,,,,,,,,115.58897429999979,116.08887649999997,116.80627079999977,None,116.10559509999985,116.78924910000023,117.30746660000023,None,left,1,0.2819588999991538,117.30746660000023,None,None,116.10559509999985,117.2905381999999,0.5116192999994382,0.5949321999996755,1.7132664999999179,1.796750499999689,,,,,nikita_2,001,2020_Feb_13_1319,posner,3.1.5,59.88791378081541,
0.5,0,0,right,1,4,0,0,0,0,6,1,49,3,,,,,,,,,117.60838390000026,118.10842700000012,118.82605700000022,None,118.1250584999998,118.80913729999975,119.32682180000029,None,right,1,0.3104583000003913,119.32682180000029,None,None,118.1250584999998,119.31010229999993,0.5117392000001928,0.5949133000003712,1.713396900000589,1.796487700000398,,,,,nikita_2,001,2020_Feb_13_1319,posner,3.1.5,59.88791378081541,
-0.5,0,1,left,1,3,0,0,0,0,6,2,50,0,,,,,,,,,119.66114850000031,120.16091460000007,120.87887159999991,None,120.17780649999986,120.8620076999996,121.37931970000045,None,left,1,0.26608179999948334,121.37931970000045,None,None,120.17780649999986,121.36260519999996,0.5114882999996553,0.5952527999997983,1.7131596999997782,1.796878299999662,,,,,nikita_2,001,2020_Feb_13_1319,posner,3.1.5,59.88791378081541,
0.5,180,1,right,2,4,0,0,0,0,6,3,51,7,,,,,,,,,121.66414129999976,122.16379870000037,122.8815983000004,None,122.18059420000009,122.86486280000008,123.38206019999961,None,right,1,0.2552218000000721,123.38206019999961,None,None,122.18059420000009,123.36568799999986,0.5115455999994083,0.5950269999993907,1.713423999999577,1.7971293999999034,,,,,nikita_2,001,2020_Feb_13_1319,posner,3.1.5,59.88791378081541,
-0.5,180,0,left,2,3,0,0,0,0,6,4,52,4,,,,,,,,,123.66633999999976,124.16669430000002,124.88419720000002,None,124.18329059999996,124.86759439999969,125.3850381000002,None,left,1,0.300402099999701,125.3850381000002,None,None,124.18329059999996,125.36829279999984,0.5116205000003902,0.5948384000002989,1.7132056000000375,1.796692200000507,,,,,nikita_2,001,2020_Feb_13_1319,posner,3.1.5,59.88791378081541,
-0.5,0,1,left,1,3,0,0,0,0,6,5,53,1,,,,,,,,,125.70308110000042,126.20256710000012,126.92041820000031,None,126.21932809999998,126.90361440000015,127.42104149999977,None,left,1,0.2563804000001255,127.42104149999977,None,None,126.21932809999998,127.40451750000011,0.5111895000000004,0.5948008999994272,1.713116799999625,1.7963341999993645,,,,,nikita_2,001,2020_Feb_13_1319,posner,3.1.5,59.88791378081541,
0.5,180,1,right,2,4,0,0,0,0,6,6,54,5,,,,,,,,,127.70564680000007,128.20557530000042,128.92305920000035,None,128.22207499999968,128.9064070000004,129.42398729999968,None,right,1,0.2612662999999884,129.42398729999968,None,None,128.22207499999968,129.40766129999975,0.5114647999998851,0.5949043999999049,1.7135455999996339,1.7963441000001694,,,,,nikita_2,001,2020_Feb_13_1319,posner,3.1.5,59.88791378081541,
0.5,180,1,right,2,4,0,0,0,0,6,7,55,6,,,,,,,,,129.70794939999996,130.20839840000008,130.92594399999962,None,130.22502939999958,130.90925470000002,131.42661849999968,None,right,1,0.3386588999992455,131.42661849999968,None,None,130.22502939999958,131.4098759999997,0.5119192000001931,0.5951724000005925,1.713386200000059,1.7968246000000363,,,,,nikita_2,001,2020_Feb_13_1319,posner,3.1.5,59.88791378081541,
-0.5,180,0,left,2,3,0,0,0,0,7,0,56,4,,,,,,,,,131.79486420000012,132.29462909999984,133.01197039999988,None,132.31122669999968,132.9954727000004,133.51283440000043,None,left,1,0.27641459999995277,133.51283440000043,None,None,132.31122669999968,133.49631750000026,0.511288899999272,0.5945825999997396,1.7129484999995839,1.7963695999997071,,,,,nikita_2,001,2020_Feb_13_1319,posner,3.1.5,59.88791378081541,
-0.5,0,1,left,1,3,0,0,0,0,7,1,57,0,,,,,,,,,133.81390180000017,134.3140024000004,135.0314725999997,None,134.33066589999999,135.01481650000005,135.5322500000002,None,left,1,0.3210218000003806,135.5322500000002,None,None,134.33066589999999,135.51561409999977,0.5117508000002999,0.5948490999999194,1.713053200000104,1.7964277999999467,,,,,nikita_2,001,2020_Feb_13_1319,posner,3.1.5,59.88791378081541,
-0.5,0,1,left,1,3,0,0,0,0,7,2,58,1,,,,,,,,,135.88338199999998,136.38367930000004,137.10094349999963,None,136.40012149999984,137.08436239999992,137.60165310000048,None,left,1,0.2996552000004158,137.60165310000048,None,None,136.40012149999984,137.58507550000013,0.5121925000003102,0.5950892000000749,1.713212300000123,1.796766700000262,,,,,nikita_2,001,2020_Feb_13_1319,posner,3.1.5,59.88791378081541,
0.5,180,1,right,2,4,0,0,0,0,7,3,59,6,,,,,,,,,137.9197148000003,138.41962330000024,139.13735170000018,None,138.43633260000024,139.12053070000002,139.63796139999977,None,right,1,0.2792722000003778,139.63796139999977,None,None,138.43633260000024,139.62108720000015,0.5115133999997852,0.5948437999995804,1.7129650999995647,1.7965217999999368,,,,,nikita_2,001,2020_Feb_13_1319,posner,3.1.5,59.88791378081541,
0.5,0,0,right,1,4,0,0,0,0,7,4,60,3,,,,,,,,,139.93906349999997,140.43904800000018,141.15663310000036,None,140.4556365999997,141.1399707999999,141.65739750000012,None,right,1,0.3559176999997362,141.65739750000012,None,None,140.4556365999997,141.6405023999996,0.5116026999994574,0.5950064999997267,1.7130443999994895,1.796642399999655,,,,,nikita_2,001,2020_Feb_13_1319,posner,3.1.5,59.88791378081541,
0.5,180,1,right,2,4,0,0,0,0,7,5,61,7,,,,,,,,,142.04181030000018,142.5418563000003,143.25961650000045,None,142.55870500000037,143.24286759999995,143.76021169999967,None,right,1,0.3571780000002036,143.76021169999967,None,None,142.55870500000037,143.74374400000033,0.5115390000000843,0.5950149000000238,1.7134067000006326,1.7967171000000235,,,,,nikita_2,001,2020_Feb_13_1319,posner,3.1.5,59.88791378081541,
-0.5,0,1,left,1,3,0,0,0,0,7,6,62,2,,,,,,,,,144.14499679999972,144.64475270000003,145.36240559999987,None,144.66129600000022,145.3457645999997,145.86303700000008,None,left,1,0.28612449999945966,145.86303700000008,None,None,144.66129600000022,145.8464339000002,0.5112798000000112,0.5949200000004566,1.7129447000006621,1.7965088000000833,,,,,nikita_2,001,2020_Feb_13_1319,posner,3.1.5,59.88791378081541,
0.5,180,1,right,2,4,0,0,0,0,7,7,63,5,,,,,,,,,146.18054959999972,146.68093109999973,147.3985319000003,None,146.69762850000006,147.38184809999984,147.89932000000044,None,right,1,0.24999300000035873,147.89932000000044,None,None,146.69762850000006,147.88232080000034,0.5118191000001389,0.5953292000003785,1.713192799999888,1.7967632999998386,,,,,nikita_2,001,2020_Feb_13_1319,posner,3.1.5,59.88791378081541,
-0.5,180,0,left,2,3,0,0,0,0,8,0,64,4,,,,,,,,,148.16760609999983,148.66696740000043,149.38457900000049,None,148.6837034,149.3680789,149.88533180000013,None,left,1,0.3120746999993571,149.88533180000013,None,None,148.6837034,149.86854630000016,0.5110901999996713,0.5944567999995343,1.7126590999996552,1.7964161999998396,,,,,nikita_2,001,2020_Feb_13_1319,posner,3.1.5,59.88791378081541,
0.5,0,0,right,1,4,0,0,0,0,8,1,65,3,,,,,,,,,150.2199043999999,150.71980350000013,151.4375011000002,None,150.73655620000045,151.42060450000008,151.93807990000005,None,right,1,0.3231937000000471,151.93807990000005,None,None,150.73655620000045,151.92129010000008,0.5115089999999327,0.5949368999999933,1.7129822999995667,1.7967341000003216,,,,,nikita_2,001,2020_Feb_13_1319,posner,3.1.5,59.88791378081541,
0.5,180,1,right,2,4,0,0,0,0,8,2,66,6,,,,,,,,,152.28912839999975,152.7894513000001,153.50684449999972,None,152.8059056000002,153.49019680000038,154.0076753000003,None,right,1,0.34956179999971937,154.0076753000003,None,None,152.8059056000002,153.99084219999986,0.5117892999996911,0.5949173999997583,1.7131671999995888,1.7966786999995747,,,,,nikita_2,001,2020_Feb_13_1319,posner,3.1.5,59.88791378081541,
-0.5,0,1,left,1,3,0,0,0,0,8,3,67,0,,,,,,,,,154.3752827999997,154.87561819999974,155.59312529999988,None,154.89213290000043,155.57657759999984,156.09385980000025,None,left,1,0.23130119999950693,156.09385980000025,None,None,154.89213290000043,156.07715029999963,0.5118108999995457,0.5950330999994549,1.7133304999997563,1.7967003999992812,,,,,nikita_2,001,2020_Feb_13_1319,posner,3.1.5,59.88791378081541,
0.5,180,1,right,2,4,0,0,0,0,8,4,68,5,,,,,,,,,156.3451114999998,156.84483369999998,157.56254090000039,None,156.86145289999968,157.54598890000034,158.06308340000032,None,right,1,0.2861283000002004,158.06308340000032,None,None,156.86145289999968,158.04645820000042,0.5112810999999056,0.5950179000001299,1.7128812999999354,1.7964300000003277,,,,,nikita_2,001,2020_Feb_13_1319,posner,3.1.5,59.88791378081541,
0.5,180,1,right,2,4,0,0,0,0,8,5,69,7,,,,,,,,,158.38091629999963,158.8811324999997,159.59875459999967,None,158.8977270000005,159.5819633000001,160.09927289999996,None,right,1,0.3220371999996132,160.09927289999996,None,None,158.8977270000005,160.08259069999986,0.5119002999999793,0.5952428000000509,1.7133472000004986,1.7969921000003524,,,,,nikita_2,001,2020_Feb_13_1319,posner,3.1.5,59.88791378081541,
-0.5,0,1,left,1,3,0,0,0,0,8,6,70,2,,,,,,,,,160.45092810000006,160.95056130000012,161.66840239999965,None,160.9671185999996,161.6512518999998,162.16901700000017,None,left,1,0.23610889999963547,162.16901700000017,None,None,160.9671185999996,162.15202649999992,0.5112361999999848,0.594512599999689,1.712687399999595,1.7962280000001556,,,,,nikita_2,001,2020_Feb_13_1319,posner,3.1.5,59.88791378081541,
-0.5,0,1,left,1,3,0,0,0,0,8,7,71,1,,,,,,,,,162.43605490000027,162.93663920000017,163.65437060000022,None,162.95335419999992,163.63746549999996,164.1550086999996,None,left,1,0.36212890000024345,164.1550086999996,None,None,162.95335419999992,164.13820399999986,0.5122834000003422,0.5956436000005851,1.7138304000000062,1.7971854000006715,,,,,nikita_2,001,2020_Feb_13_1319,posner,3.1.5,59.88791378081541,
0.5,180,1,right,2,4,0,0,0,0,9,0,72,5,,,,,,,,,164.53960449999977,165.0396942999996,165.75713910000013,None,165.05596669999977,165.7405292000003,166.2578685999997,None,right,1,0.2912406999994346,166.2578685999997,None,None,165.05596669999977,166.24101419999988,0.5116416000000754,0.5948438000004899,1.712944000000789,1.7964158000004318,,,,,nikita_2,001,2020_Feb_13_1319,posner,3.1.5,59.88791378081541,
-0.5,180,0,left,2,3,0,0,0,0,9,1,73,4,,,,,,,,,166.57588829999986,167.0754238999998,167.7933581999996,None,167.09224090000043,167.77676650000012,168.29387270000007,None,left,1,0.2791296000004877,168.29387270000007,None,None,167.09224090000043,168.2775055000002,0.5110115999996196,0.5946459999995568,1.7130686999998943,1.7962421000001996,,,,,nikita_2,001,2020_Feb_13_1319,posner,3.1.5,59.88791378081541,
0.5,180,1,right,2,4,0,0,0,0,9,2,74,7,,,,,,,,,168.59536079999998,169.0951068000004,169.81259649999993,None,169.11172559999977,169.79622180000024,170.31325800000013,None,right,1,0.2598658999995678,170.31325800000013,None,None,169.11172559999977,170.2966408000002,0.5114497999993546,0.595016599999326,1.7129727999999886,1.7963933999999426,,,,,nikita_2,001,2020_Feb_13_1319,posner,3.1.5,59.88791378081541,
-0.5,0,1,left,1,3,0,0,0,0,9,3,75,2,,,,,,,,,170.59790220000014,171.0978556,171.81553619999977,None,171.11458070000026,171.79886799999986,172.31620329999987,None,left,1,0.20887779999975464,172.31620329999987,None,None,171.11458070000026,172.29952370000046,0.5116459999999279,0.5950038000000859,1.7132917999997517,1.7967502999999851,,,,,nikita_2,001,2020_Feb_13_1319,posner,3.1.5,59.88791378081541,
0.5,180,1,right,2,4,0,0,0,0,9,4,76,6,,,,,,,,,172.55042070000036,173.05033999999978,173.76894900000025,None,173.06725840000036,173.75143500000013,174.26883410000028,None,right,1,0.3042348999997557,174.26883410000028,None,None,173.06725840000036,174.25214219999998,0.5114434999995865,0.5950512999997954,1.7132313000001886,1.796766999999818,,,,,nikita_2,001,2020_Feb_13_1319,posner,3.1.5,59.88791378081541,
0.5,0,0,right,1,4,0,0,0,0,9,5,77,3,,,,,,,,,174.60350730000027,175.10319450000043,175.82108659999994,None,175.11980260000018,175.8044743999999,176.32148830000006,None,right,1,0.3557664999998451,176.32148830000006,None,None,175.11980260000018,176.30480689999968,0.5113629999996192,0.5949665999996796,1.7129512000001341,1.7966431000004377,,,,,nikita_2,001,2020_Feb_13_1319,posner,3.1.5,59.88791378081541,
-0.5,0,1,left,1,3,0,0,0,0,9,6,78,1,,,,,,,,,176.7062007000004,177.20555969999987,177.92383599999994,None,177.22247400000015,177.90710060000038,178.42452179999964,None,left,1,0.3726612999998906,178.42452179999964,None,None,177.22247400000015,178.4079539000004,0.5109169000006659,0.5949426000006497,1.7132996000000276,1.7965176000006977,,,,,nikita_2,001,2020_Feb_13_1319,posner,3.1.5,59.88791378081541,
-0.5,0,1,left,1,3,0,0,0,0,9,7,79,0,,,,,,,,,178.82607220000045,179.32587909999984,180.04354560000047,None,179.34245910000027,180.0269027000004,180.54412539999976,None,left,1,0.4048882000006415,180.54412539999976,None,None,179.34245910000027,180.5276917000001,0.5116496000000552,0.595061899999564,1.7134440999998333,1.7965944999996282,,,,,nikita_2,001,2020_Feb_13_1319,posner,3.1.5,59.88791378081541,
-0.5,0,1,left,1,3,0,0,0,0,10,0,80,2,,,,,,,,,180.9788824999996,181.47884390000036,182.19637039999998,None,181.4955149999996,182.17986159999964,182.69702729999972,None,left,1,0.34806860000026063,182.69702729999972,None,None,181.4955149999996,182.6803444999996,0.5116839000002074,0.59490199999982,1.7131714000006468,1.7966904000004433,,,,,nikita_2,001,2020_Feb_13_1319,posner,3.1.5,59.88791378081541,
0.5,0,0,right,1,4,0,0,0,0,10,1,81,3,,,,,,,,,183.06518919999962,183.56501279999975,184.2824916999998,None,183.58151910000015,184.26599629999964,184.78307380000024,None,right,1,0.3340828000000329,184.78307380000024,None,None,183.58151910000015,184.7666161999996,0.5114346999998816,0.5949516999999105,1.7130262999999104,1.796505299999808,,,,,nikita_2,001,2020_Feb_13_1319,posner,3.1.5,59.88791378081541,
0.5,180,1,right,2,4,0,0,0,0,10,2,82,5,,,,,,,,,185.13423010000042,185.6345111999999,186.35208460000013,None,185.65131500000007,186.33529069999986,186.85266909999973,None,right,1,0.27243300000009185,186.85266909999973,None,None,185.65131500000007,186.83626259999983,0.5122548999997889,0.5957645999997112,1.7139814000001934,1.7972854999998162,,,,,nikita_2,001,2020_Feb_13_1319,posner,3.1.5,59.88791378081541,
-0.5,0,1,left,1,3,0,0,0,0,10,3,83,0,,,,,,,,,187.15412389999983,187.65394970000034,188.37151350000022,None,187.67044160000023,188.35489469999993,188.87205449999965,None,left,1,0.24505599999974947,188.87205449999965,None,None,187.67044160000023,188.85573269999986,0.5114826999997604,0.5949016999993546,1.7132427999995343,1.796548399999665,,,,,nikita_2,001,2020_Feb_13_1319,posner,3.1.5,59.88791378081541,
-0.5,180,0,left,2,3,0,0,0,0,10,4,84,4,,,,,,,,,189.1399024000002,189.6399317000005,190.35765609999999,None,189.65673100000004,190.3408897999998,190.85835990000032,None,left,1,0.33874720000039815,190.85835990000032,None,None,189.65673100000004,190.8415759999998,0.5116642000002685,0.5950763000000734,1.713295300000027,1.7968752000006134,,,,,nikita_2,001,2020_Feb_13_1319,posner,3.1.5,59.88791378081541,
0.5,180,1,right,2,4,0,0,0,0,10,5,85,6,,,,,,,,,191.22641199999998,191.7264310999999,192.44386599999962,None,191.74292839999998,192.42729880000024,192.94470079999974,None,right,1,0.35640760000023874,192.94470079999974,None,None,191.74292839999998,192.92799620000005,0.5115571999995154,0.5944917999995596,1.713104899999962,1.7963816999999835,,,,,nikita_2,001,2020_Feb_13_1319,posner,3.1.5,59.88791378081541,
-0.5,0,1,left,1,3,0,0,0,0,10,6,86,1,,,,,,,,,193.3288309999998,193.82918849999987,194.5465949999998,None,193.84577590000026,194.5301902000001,195.0474191000003,None,left,1,0.29360409999935655,195.0474191000003,None,None,193.84577590000026,195.03070380000008,0.5119378999997934,0.5952053999999407,1.713440499999706,1.796951799999988,,,,,nikita_2,001,2020_Feb_13_1319,posner,3.1.5,59.88791378081541,
0.5,180,1,right,2,4,0,0,0,0,10,7,87,7,,,,,,,,,195.36484440000004,195.86512810000022,196.58279370000037,None,195.88182159999997,196.56608320000032,197.08349840000028,None,right,1,0.29754270000012184,197.08349840000028,None,None,195.88182159999997,197.06687669999974,0.5120823000006567,0.5961038000004919,1.7138072000007014,1.7971169000002192,,,,,nikita_2,001,2020_Feb_13_1319,posner,3.1.5,59.88791378081541,
,,,,,,0,0,0,0,,,,,,,,,,,,,,,,,,,,,,,,,,,,,,,,,197.40157950000048,None,1.5400000847876072e-05,0.9964851000004273,nikita_2,001,2020_Feb_13_1319,posner,3.1.5,59.88791378081541,
-0.5,180,0,left,2,3,1,0,1,0,0,0,0,4,1.2700000297627412e-05,0.09760600000026898,258.4178423000003,None,1.4899999769113492e-05,0.09771139999975276,260.52061870000034,None,260.79630950000046,261.3050611999997,262.0061033000002,None,261.3050611999997,262.0061033000002,262.5068100999997,None,left,1,0.36184289999982866,262.5068100999997,None,None,261.3050611999997,262.4900392999998,0.5024419999999736,0.6026492000000871,1.7040157999999792,1.7875314000002618,,,,,nikita_2,001,2020_Feb_13_1319,posner,3.1.5,59.88791378081541,
-0.5,0,1,left,1,3,1,0,1,0,0,1,1,2,,,,,,,,,262.8906195999998,263.3912538000004,264.1088628999996,None,263.40815420000035,264.09229630000027,264.60941600000024,None,left,1,0.29927520000001095,264.60941600000024,None,None,263.40815420000035,264.59306389999983,0.5114879000002475,0.5951346000001649,1.7132712000002357,1.7967623000004096,,,,,nikita_2,001,2020_Feb_13_1319,posner,3.1.5,59.88791378081541,
0.5,180,1,right,2,4,1,0,1,0,0,2,2,6,,,,,,,,,264.9277026,265.42752800000017,266.1452562000004,None,265.4442028000003,266.1285624000002,266.64573370000016,None,right,1,0.28699000000051456,266.64573370000016,None,None,265.4442028000003,266.6291030000002,0.5115744999993694,0.5949282000001404,1.7131271999996898,1.7964959000000817,,,,,nikita_2,001,2020_Feb_13_1319,posner,3.1.5,59.88791378081541,
0.5,180,1,right,2,4,1,0,1,0,0,3,3,5,,,,,,,,,266.9635009000003,267.4636922999998,268.18134610000016,None,267.48010520000025,268.16460730000017,268.68189170000005,None,right,1,0.3229495000005045,268.68189170000005,None,None,267.48010520000025,268.6653425000004,0.5117930999995224,0.5951144999999087,1.7134249999999156,1.796935399999711,,,,,nikita_2,001,2020_Feb_13_1319,posner,3.1.5,59.88791378081541,
-0.5,0,1,left,1,3,1,0,1,0,0,4,4,0,,,,,,,,,269.03332219999993,269.53292950000014,270.2506143999999,None,269.5496783999997,270.2340433999998,270.7513313999998,None,left,1,0.285294100000101,270.7513313999998,None,None,269.5496783999997,270.7347015000005,0.5114343999994162,0.5949618999993618,1.7131570999999894,1.7966561999992336,,,,,nikita_2,001,2020_Feb_13_1319,posner,3.1.5,59.88791378081541,
0.5,0,0,right,1,4,1,0,1,0,0,5,5,3,,,,,,,,,271.05258609999964,271.5525458000002,272.2700520999997,None,271.5691560000005,272.25343840000005,272.7707653999996,None,right,1,0.34581750000052125,272.7707653999996,None,None,271.5691560000005,272.7541339999998,0.5115859000006822,0.5950569000005999,1.7131552000000738,1.7967880000005607,,,,,nikita_2,001,2020_Feb_13_1319,posner,3.1.5,59.88791378081541,
0.5,180,1,right,2,4,1,0,1,0,0,6,6,7,,,,,,,,,273.13857610000014,273.63889840000047,274.35666180000044,None,273.65526599999976,274.33965249999983,274.8571075,None,right,1,0.3155917000003683,274.8571075,None,None,273.65526599999976,274.84041069999967,0.5117245999999795,0.5948747000002186,1.7132230999995954,1.7966778999998496,,,,,nikita_2,001,2020_Feb_13_1319,posner,3.1.5,59.88791378081541,
-0.5,0,1,left,1,3,1,0,1,0,0,7,7,1,,,,,,,,,275.19173950000004,275.69145170000047,276.4092843999997,None,275.7082784000004,276.3924324999998,276.9097004000005,None,left,1,0.23892090000026656,276.9097004000005,None,None,275.7082784000004,276.89316959999996,0.5113393000001452,0.594933299999866,1.7130447999998069,1.7963231000003361,,,,,nikita_2,001,2020_Feb_13_1319,posner,3.1.5,59.88791378081541,
0.5,180,1,right,2,4,1,0,1,0,1,0,8,6,,,,,,,,,277.17778780000026,277.6776880999996,278.39553479999995,None,277.6943276000002,278.3787063,278.89599240000007,None,right,1,0.30055560000073456,278.89599240000007,None,None,277.6943276000002,278.8793182999998,0.5117326999998113,0.5949430999999095,1.7133394000002227,1.7968247999997402,,,,,nikita_2,001,2020_Feb_13_1319,posner,3.1.5,59.88791378081541,
-0.5,0,1,left,1,3,1,0,1,0,1,1,9,2,,,,,,,,,279.2132770999997,279.7138670000004,280.43141860000014,None,279.73030709999966,280.4147386000004,280.9319886000003,None,left,1,0.2006785999992644,280.9319886000003,None,None,279.73030709999966,280.91550540000026,0.5117540999999619,0.5950959000001603,1.7133760000006077,1.7968674000003375,,,,,nikita_2,001,2020_Feb_13_1319,posner,3.1.5,59.88791378081541,
-0.5,0,1,left,1,3,1,0,1,0,1,2,10,1,,,,,,,,,281.1496672000003,281.64976000000024,282.36753510000017,None,281.6663115000001,282.35055569999986,282.86838480000006,None,left,1,0.2723117000005004,282.86838480000006,None,None,281.6663115000001,282.8512432999996,0.5116618000001836,0.5950508000005357,1.7131310000004305,1.79670729999998,,,,,nikita_2,001,2020_Feb_13_1319,posner,3.1.5,59.88791378081541,
-0.5,180,0,left,2,3,1,0,1,0,1,3,11,4,,,,,,,,,283.1691587000005,283.66925919999994,284.38702980000016,None,283.68595019999975,284.3699704999999,284.88744080000015,None,left,1,0.32515220000004774,284.88744080000015,None,None,283.68595019999975,284.87080830000014,0.5114379999995435,0.5947292999999263,1.7129752999999255,1.7966308999993998,,,,,nikita_2,001,2020_Feb_13_1319,posner,3.1.5,59.88791378081541,
0.5,0,0,right,1,4,1,0,1,0,1,4,12,3,,,,,,,,,285.23853899999995,285.738738,286.4561550999997,None,285.7554388999997,286.43944980000015,286.9571801000002,None,right,1,0.3033599000000322,286.9571801000002,None,None,285.7554388999997,286.9402393999999,0.5117190000000846,0.5950104999992618,1.7132117999999537,1.7970887999999832,,,,,nikita_2,001,2020_Feb_13_1319,posner,3.1.5,59.88791378081541,
-0.5,0,1,left,1,3,1,0,1,0,1,5,13,0,,,,,,,,,287.2916392999996,287.79136350000044,288.50926230000005,None,287.8082688000004,288.4925211,289.0100550999996,None,left,1,0.24249060000056488,289.0100550999996,None,None,287.8082688000004,288.9933834000003,0.511169900000823,0.5947542000003523,1.713173000000097,1.7965089000008447,,,,,nikita_2,001,2020_Feb_13_1319,posner,3.1.5,59.88791378081541,
0.5,180,1,right,2,4,1,0,1,0,1,6,14,5,,,,,,,,,289.2777683000004,289.7777729999998,290.4953396000001,None,289.7943502999997,290.4785531999996,290.9960240999999,None,right,1,0.2965282000004663,290.9960240999999,None,None,289.7943502999997,290.97935140000027,0.5116802000002281,0.594821800000318,1.7132392000003165,1.7965492000002996,,,,,nikita_2,001,2020_Feb_13_1319,posner,3.1.5,59.88791378081541,
0.5,180,1,right,2,4,1,0,1,0,1,7,15,7,,,,,,,,,291.3135413,291.81381280000005,292.53141479999977,None,291.83037460000014,292.51489459999993,293.03209460000016,None,right,1,0.2604388999998264,293.03209460000016,None,None,291.83037460000014,293.0153100999996,0.5119211000001087,0.5953016000003117,1.7134067000006326,1.7970212000000174,,,,,nikita_2,001,2020_Feb_13_1319,posner,3.1.5,59.88791378081541,
-0.5,0,1,left,1,3,1,0,1,0,2,0,16,1,,,,,,,,,293.31660439999996,293.81657859999996,294.5341838000004,None,293.8333364,294.5175122999999,295.0347800999998,None,left,1,0.24170169999979407,295.0347800999998,None,None,293.8333364,295.0181359999997,0.5116926000000603,0.5949324000002889,1.7132343000002948,1.7966999999998734,,,,,nikita_2,001,2020_Feb_13_1319,posner,3.1.5,59.88791378081541,
0.5,180,1,right,2,4,1,0,1,0,2,1,17,6,,,,,,,,,295.30251860000044,295.80282270000043,296.52014789999976,None,295.8191604000003,296.50361989999965,297.02070060000005,None,right,1,0.27974470000026486,297.02070060000005,None,None,295.8191604000003,297.00421280000046,0.5119615999992675,0.5951437999992777,1.713338599999588,1.7969758999997794,,,,,nikita_2,001,2020_Feb_13_1319,posner,3.1.5,59.88791378081541,
0.5,0,0,right,1,4,1,0,1,0,2,2,18,3,,,,,,,,,297.32219050000003,297.8221311999996,298.5397071999996,None,297.8383990000002,298.5227582999996,299.04029249999985,None,right,1,0.3563924999998562,299.04029249999985,None,None,297.8383990000002,299.0236157999998,0.5115640999993047,0.5947912999999971,1.7130306999997629,1.7966939999996612,,,,,nikita_2,001,2020_Feb_13_1319,posner,3.1.5,59.88791378081541,
-0.5,180,0,left,2,3,1,0,1,0,2,3,19,4,,,,,,,,,299.4249209999998,299.92496649999975,300.6422974999996,None,299.9413376000002,300.62584510000033,301.1432182999997,None,left,1,0.2774656000001414,301.1432182999997,None,None,299.9413376000002,301.12647749999996,0.5116174999993746,0.595156099999258,1.7131231999992451,1.7964936999997008,,,,,nikita_2,001,2020_Feb_13_1319,posner,3.1.5,59.88791378081541,
-0.5,0,1,left,1,3,1,0,1,0,2,4,20,2,,,,,,,,,301.4450176999999,301.94445449999967,302.6619060000003,None,301.9609102000004,302.6454113,303.1625313000004,None,left,1,0.329984300000433,303.1625313000004,None,None,301.9609102000004,303.1459807000001,0.5112374000000273,0.5946482000008473,1.712751200000639,1.796060700000453,,,,,nikita_2,001,2020_Feb_13_1319,posner,3.1.5,59.88791378081541,
-0.5,0,1,left,1,3,1,0,1,0,2,5,21,0,,,,,,,,,303.5139978999996,304.01389930000005,304.7316099999998,None,304.0304127999998,304.71492709999984,305.23217039999963,None,left,1,0.3083133000000089,305.23217039999963,None,None,304.0304127999998,305.21547029999965,0.5115464999998949,0.5950019000001703,1.7130927999996857,1.796405600000071,,,,,nikita_2,001,2020_Feb_13_1319,posner,3.1.5,59.88791378081541,
0.5,180,1,right,2,4,1,0,1,0,2,6,22,5,,,,,,,,,305.5667771999997,306.0667014999999,306.78428540000004,None,306.08352560000003,306.76764060000005,307.2850448999998,None,right,1,0.25541859999975713,307.2850448999998,None,None,306.08352560000003,307.26827140000023,0.5113327999997637,0.5945695000000342,1.7128936999997677,1.7962979999992967,,,,,nikita_2,001,2020_Feb_13_1319,posner,3.1.5,59.88791378081541,
0.5,180,1,right,2,4,1,0,1,0,2,7,23,7,,,,,,,,,307.5693215000001,308.06929930000024,308.78704519999974,None,308.0863939999999,308.7703087,309.28782150000006,None,right,1,0.3248299999995652,309.28782150000006,None,None,308.0863939999999,309.2711457000005,0.5115738000004058,0.5955082999998922,1.7134032000003572,1.7967162000004464,,,,,nikita_2,001,2020_Feb_13_1319,posner,3.1.5,59.88791378081541,
-0.5,0,1,left,1,3,1,0,1,0,3,0,24,0,,,,,,,,,309.63873409999997,310.13893519999965,310.856538,None,310.15564110000014,310.8398030999997,311.3573091999997,None,left,1,0.2554211000006035,311.3573091999997,None,None,310.15564110000014,311.34039910000047,0.5118256000005204,0.5950812000000951,1.713278199999877,1.7969407000000501,,,,,nikita_2,001,2020_Feb_13_1319,posner,3.1.5,59.88791378081541,
0.5,180,1,right,2,4,1,0,1,0,3,1,25,7,,,,,,,,,311.64156249999996,312.1419939999996,312.8592630000003,None,312.1583020999997,312.84257249999973,313.35974689999966,None,right,1,0.24497020000035263,313.35974689999966,None,None,312.1583020999997,313.34320089999983,0.5118937000006554,0.5951543000001038,1.7130753999999797,1.7967448999997941,,,,,nikita_2,001,2020_Feb_13_1319,posner,3.1.5,59.88791378081541,
0.5,180,1,right,2,4,1,0,1,0,3,2,26,5,,,,,,,,,313.62790229999973,314.1279448000005,314.84546539999974,None,314.14433780000036,314.8285850000002,315.3462118999996,None,right,1,0.3381741000002876,315.3462118999996,None,None,314.14433780000036,315.3293399000004,0.5118259999999282,0.5949847000001682,1.7132054000003336,1.7965887999998813,,,,,nikita_2,001,2020_Feb_13_1319,posner,3.1.5,59.88791378081541,
-0.5,180,0,left,2,3,1,0,1,0,3,3,27,4,,,,,,,,,315.71398729999964,316.21401609999975,316.9315827999999,None,316.2305250999998,316.91491769999993,317.43224980000014,None,left,1,0.30024409999987256,317.43224980000014,None,None,316.2305250999998,317.4157017999996,0.5116962000001877,0.5950671999999031,1.7133647999999084,1.7965978000001996,,,,,nikita_2,001,2020_Feb_13_1319,posner,3.1.5,59.88791378081541,
-0.5,0,1,left,1,3,1,0,1,0,3,4,28,1,,,,,,,,,317.74962680000044,318.24983090000023,318.9678935000002,None,318.2666968000003,318.9512187,319.4685188000003,None,left,1,0.3039115999999922,319.4685188000003,None,None,318.2666968000003,319.45202750000044,0.5119007999992391,0.5955352999999377,1.7140841999998884,1.7972575999992841,,,,,nikita_2,001,2020_Feb_13_1319,posner,3.1.5,59.88791378081541,
-0.5,0,1,left,1,3,1,0,1,0,3,5,29,2,,,,,,,,,319.8027505,320.3028454000005,321.0205140999997,None,320.31930939999984,321.0038685999998,321.52112020000004,None,left,1,0.2833367000002909,321.52112020000004,None,None,320.31930939999984,321.5045935999997,0.5116108000001987,0.5951255999998466,1.7133437000002232,1.7967946999997366,,,,,nikita_2,001,2020_Feb_13_1319,posner,3.1.5,59.88791378081541,
0.5,0,0,right,1,4,1,0,1,0,3,6,30,3,,,,,,,,,321.8226384999998,322.3223487000005,323.0399680999999,None,322.3389465,323.0232073999996,323.5406429000004,None,right,1,0.3117595000003348,323.5406429000004,None,None,322.3389465,323.52399349999996,0.5115797999997085,0.5950488999997106,1.7132002999996985,1.7966765999999552,,,,,nikita_2,001,2020_Feb_13_1319,posner,3.1.5,59.88791378081541,
0.5,180,1,right,2,4,1,0,1,0,3,7,31,6,,,,,,,,,323.8751860000002,324.3751900999996,325.0928535000003,None,324.39192280000043,325.07626119999986,325.59346989999995,None,right,1,0.36287540000012086,325.59346989999995,None,None,324.39192280000043,325.57695049999984,0.5115657999995165,0.594891199999438,1.7133022999996683,1.7965544999997292,,,,,nikita_2,001,2020_Feb_13_1319,posner,3.1.5,59.88791378081541,
-0.5,180,0,left,2,3,1,0,1,0,4,0,32,4,,,,,,,,,325.9781644000004,326.47827270000016,327.19588939999994,None,326.4946307,327.1789478999999,327.6965329000004,None,left,1,0.23580010000023321,327.6965329000004,None,None,326.4946307,327.67949430000044,0.5116183000000092,0.5947410999997373,1.7128235000000132,1.7965931999997338,,,,,nikita_2,001,2020_Feb_13_1319,posner,3.1.5,59.88791378081541,
-0.5,0,1,left,1,3,1,0,1,0,4,1,33,2,,,,,,,,,327.9638463000001,328.4642350000004,329.1816729000002,None,328.4807853000002,329.16510130000006,329.6824329000001,None,left,1,0.30612569999993866,329.6824329000001,None,None,328.4807853000002,329.6657285000001,0.5120745999993233,0.5955596999992849,1.7135504999996556,1.7969016999995802,,,,,nikita_2,001,2020_Feb_13_1319,posner,3.1.5,59.88791378081541,
-0.5,0,1,left,1,3,1,0,1,0,4,2,34,1,,,,,,,,,330.0169477999998,330.51691519999986,331.23457099999996,None,330.5335408000001,331.2180949000003,331.73519080000005,None,left,1,0.27715319999970234,331.73519080000005,None,None,330.5335408000001,331.7186431,0.5115789999999834,0.5949831999996604,1.7132820999995602,1.7965759999997317,,,,,nikita_2,001,2020_Feb_13_1319,posner,3.1.5,59.88791378081541,
-0.5,0,1,left,1,3,1,0,1,0,4,3,35,0,,,,,,,,,332.0365775,332.5363804999997,333.2539733000003,None,332.55322049999995,333.2375830000001,333.75470120000045,None,left,1,0.2897067000003517,333.75470120000045,None,None,332.55322049999995,333.7381459999997,0.5116236000003482,0.5948876000002201,1.7133764000000156,1.796627499999886,,,,,nikita_2,001,2020_Feb_13_1319,posner,3.1.5,59.88791378081541,
0.5,180,1,right,2,4,1,0,1,0,4,4,36,6,,,,,,,,,334.0724986000005,334.5723502000001,335.2901413999998,None,334.5890155999996,335.27349200000026,335.79068879999977,None,right,1,0.2856584999999541,335.79068879999977,None,None,334.5890155999996,335.7741568000001,0.5115670000004684,0.5951585000002524,1.7133524999999281,1.7967471000001751,,,,,nikita_2,001,2020_Feb_13_1319,posner,3.1.5,59.88791378081541,
0.5,0,0,right,1,4,1,0,1,0,4,5,37,3,,,,,,,,,336.09219250000024,336.59183870000015,337.3095011000005,None,336.6086083,337.2928058999996,337.81023000000005,None,right,1,0.30627670000012586,337.81023000000005,None,None,336.6086083,337.79375119999986,0.5114254999998593,0.595001499999853,1.7133413000001383,1.7967974000002869,,,,,nikita_2,001,2020_Feb_13_1319,posner,3.1.5,59.88791378081541,
0.5,180,1,right,2,4,1,0,1,0,4,6,38,7,,,,,,,,,338.1445682000003,338.6448607000002,339.3624342000003,None,338.6613666000003,339.34581439999965,339.8632901000001,None,right,1,0.3249852999997529,339.8632901000001,None,None,338.6613666000003,339.84634689999984,0.5120128999997178,0.5954728999995496,1.7134868000002825,1.7970760999996855,,,,,nikita_2,001,2020_Feb_13_1319,posner,3.1.5,59.88791378081541,
0.5,180,1,right,2,4,1,0,1,0,4,7,39,5,,,,,,,,,340.21443309999995,340.7142309000001,341.4319827999998,None,340.73096970000006,341.41511679999985,341.9326645000001,None,right,1,0.3036363999999594,341.9326645000001,None,None,340.73096970000006,341.91595489999963,0.5115074999994249,0.5951036999995267,1.713206899999932,1.7966712999996162,,,,,nikita_2,001,2020_Feb_13_1319,posner,3.1.5,59.88791378081541,
0.5,180,1,right,2,4,1,0,1,0,5,0,40,6,,,,,,,,,342.26673349999965,342.7672167999999,343.4848548,None,342.78365680000024,343.4680950000002,343.9854766999997,None,right,1,0.2828511999996408,343.9854766999997,None,None,342.78365680000024,343.96866409999984,0.5119166000004043,0.5950968000006469,1.7133502000006047,1.796792799999821,,,,,nikita_2,001,2020_Feb_13_1319,posner,3.1.5,59.88791378081541,
-0.5,180,0,left,2,3,1,0,1,0,5,1,41,4,,,,,,,,,344.2865400999999,344.78667719999976,345.5042088,None,344.8033691999999,345.4875990999999,346.00497429999996,None,left,1,0.35118949999923643,346.00497429999996,None,None,344.8033691999999,345.9882193000003,0.511395999999877,0.5946430000003602,1.7129248000001098,1.7963417999999365,,,,,nikita_2,001,2020_Feb_13_1319,posner,3.1.5,59.88791378081541,
0.5,180,1,right,2,4,1,0,1,0,5,2,42,7,,,,,,,,,346.3730250999997,346.87286349999977,347.5903645999997,None,346.8893968000002,347.5739137999999,348.09101459999965,None,right,1,0.2412214000005406,348.09101459999965,None,None,346.8893968000002,348.07432340000014,0.5116605000002892,0.5949280000004364,1.713107100000343,1.796852200000103,,,,,nikita_2,001,2020_Feb_13_1319,posner,3.1.5,59.88791378081541,
-0.5,0,1,left,1,3,1,0,1,0,5,3,43,2,,,,,,,,,348.35855979999997,348.8588273000005,349.57661629999984,None,348.87552589999996,349.55971409999984,350.0771942000001,None,left,1,0.2630592000004981,350.0771942000001,None,None,348.87552589999996,350.0604946000003,0.5117626999999629,0.5950078000005306,1.7134173000004012,1.7969128000004275,,,,,nikita_2,001,2020_Feb_13_1319,posner,3.1.5,59.88791378081541,
0.5,180,1,right,2,4,1,0,1,0,5,4,44,5,,,,,,,,,350.3616783999996,350.8614299000001,351.57931740000004,None,350.8783507999997,351.56249690000004,352.07991760000004,None,right,1,0.2522859000000608,352.07991760000004,None,None,350.8783507999997,352.0632211000002,0.5113803999993252,0.5949745999996594,1.7131487999995443,1.7966990999993868,,,,,nikita_2,001,2020_Feb_13_1319,posner,3.1.5,59.88791378081541,
-0.5,0,1,left,1,3,1,0,1,0,5,5,45,0,,,,,,,,,352.36432930000046,352.86427189999995,353.5819111999999,None,352.8809530999997,353.5654609000003,354.0827749,None,left,1,0.28958980000061274,354.0827749,None,None,352.8809530999997,354.06593559999965,0.511418500000218,0.5953067000000374,1.7130610000003799,1.7963823999998567,,,,,nikita_2,001,2020_Feb_13_1319,posner,3.1.5,59.88791378081541,
-0.5,0,1,left,1,3,1,0,1,0,5,6,46,1,,,,,,,,,354.40063699999973,354.90038449999975,355.61811730000045,None,354.9172160999997,355.60131360000014,356.1188450999998,None,left,1,0.30136289999973087,356.1188450999998,None,None,354.9172160999997,356.10213980000026,0.5116926000000603,0.5952938999998878,1.7134275999997044,1.7967263999998977,,,,,nikita_2,001,2020_Feb_13_1319,posner,3.1.5,59.88791378081541,
0.5,0,0,right,1,4,1,0,1,0,5,7,47,3,,,,,,,,,356.43647409999994,356.9366038999997,357.6543502000004,None,356.95334509999975,357.63768119999986,358.1548487,None,right,1,0.3453665999995792,358.1548487,None,None,356.95334509999975,358.1378883999996,0.5114831000000777,0.5946707000002789,1.7127484000002369,1.7961021999999502,,,,,nikita_2,001,2020_Feb_13_1319,posner,3.1.5,59.88791378081541,
-0.5,0,1,left,1,3,1,0,1,0,6,0,48,0,,,,,,,,,358.52319369999987,359.0227252000004,359.74047580000024,None,359.03952759999993,359.72368019999976,360.24119789999986,None,left,1,0.274970100000246,360.24119789999986,None,None,359.03952759999993,360.22448350000013,0.5116393999996944,0.5948680999999851,1.7130977999995594,1.7965411999994103,,,,,nikita_2,001,2020_Feb_13_1319,posner,3.1.5,59.88791378081541,
-0.5,0,1,left,1,3,1,0,1,0,6,1,49,1,,,,,,,,,360.5424234000002,361.0422638,361.7598073999998,None,361.05881969999973,361.74326310000015,362.26045539999996,None,left,1,0.24773869999989984,362.26045539999996,None,None,361.05881969999973,362.24397640000007,0.5116084000001138,0.5949266999996325,1.7132936999996673,1.7966785999997228,,,,,nikita_2,001,2020_Feb_13_1319,posner,3.1.5,59.88791378081541,
-0.5,180,0,left,2,3,1,0,1,0,6,2,50,4,,,,,,,,,362.5282702000004,363.0283451000005,363.74597059999996,None,363.0449497999998,363.72911750000003,364.2466287999996,None,left,1,0.34959690000050614,364.2466287999996,None,None,363.0449497999998,364.2300686999997,0.5116703000003326,0.5949489000004178,1.7133825000000797,1.7966517000004387,,,,,nikita_2,001,2020_Feb_13_1319,posner,3.1.5,59.88791378081541,
0.5,0,0,right,1,4,1,0,1,0,6,3,51,3,,,,,,,,,364.61469020000004,365.1145998000002,365.8321584000005,None,365.1313030000001,365.81555110000045,366.3329197000003,None,right,1,0.31138039999950706,366.3329197000003,None,None,365.1313030000001,366.3161763999997,0.5115011999996568,0.5947297999991861,1.7130637999998726,1.7965436999993472,,,,,nikita_2,001,2020_Feb_13_1319,posner,3.1.5,59.88791378081541,
-0.5,0,1,left,1,3,1,0,1,0,6,4,52,2,,,,,,,,,366.6675083,367.1674807999998,367.8849917999996,None,367.1841119999999,367.8683854000001,368.3858062999998,None,left,1,0.3623079000008147,368.3858062999998,None,None,367.1841119999999,368.3688106999998,0.5115618999998333,0.5947539999997389,1.7128752999997232,1.7970667999998113,,,,,nikita_2,001,2020_Feb_13_1319,posner,3.1.5,59.88791378081541,
0.5,180,1,right,2,4,1,0,1,0,6,5,53,6,,,,,,,,,368.7704481999999,369.2701619999998,369.9880026000001,None,369.2870181999997,369.9710378,370.48859319999974,None,right,1,0.2915334999997867,370.48859319999974,None,None,369.2870181999997,370.4716814000003,0.5115533999996842,0.5951704999997673,1.7130498999995325,1.7965616999999838,,,,,nikita_2,001,2020_Feb_13_1319,posner,3.1.5,59.88791378081541,
0.5,180,1,right,2,4,1,0,1,0,6,6,54,5,,,,,,,,,370.8062799999998,371.30661820000023,372.02400099999977,None,371.32305989999986,372.0073521000004,372.5247201000002,None,right,1,0.2954170000002705,372.5247201000002,None,None,371.32305989999986,372.5082134000004,0.512050199999976,0.5950650999993741,1.7136295999998765,1.7967589999998381,,,,,nikita_2,001,2020_Feb_13_1319,posner,3.1.5,59.88791378081541,
0.5,180,1,right,2,4,1,0,1,0,6,7,55,7,,,,,,,,,372.84201459999986,373.34237829999984,374.0599830000001,None,373.3590489999997,374.0434889999997,374.56073600000036,None,right,1,0.28350659999978234,374.56073600000036,None,None,373.3590489999997,374.54402089999985,0.5119006000004447,0.5952532999999676,1.7134752000001754,1.7970669000005728,,,,,nikita_2,001,2020_Feb_13_1319,posner,3.1.5,59.88791378081541,
0.5,180,1,right,2,4,1,0,1,0,7,0,56,5,,,,,,,,,374.86242330000005,375.36178440000003,376.07959070000015,None,375.37862060000043,376.0630788999997,376.5802010999996,None,right,1,0.25609350000013364,376.5802010999996,None,None,375.37862060000043,376.56376,0.5112355999999636,0.5947482000001401,1.713180700000521,1.7966205000002446,,,,,nikita_2,001,2020_Feb_13_1319,posner,3.1.5,59.88791378081541,
-0.5,0,1,left,1,3,1,0,1,0,7,1,57,1,,,,,,,,,376.8651181000005,377.3648183000005,378.0822869000003,None,377.3813532000004,378.0657170000004,378.5831003000003,None,left,1,0.25304639999922074,378.5831003000003,None,None,377.3813532000004,378.5663053999997,0.5115402000001268,0.5947994999996808,1.713019699999677,1.7963929999996253,,,,,nikita_2,001,2020_Feb_13_1319,posner,3.1.5,59.88791378081541,
0.5,180,1,right,2,4,1,0,1,0,7,2,58,7,,,,,,,,,378.8673343999999,379.3675280999996,380.08500019999974,None,379.3841696999998,380.06861430000026,380.58583,None,right,1,0.25823529999979655,380.58583,None,None,379.3841696999998,380.5689904000001,0.5117579999996451,0.5953944000002593,1.7131994999999733,1.7967576999999437,,,,,nikita_2,001,2020_Feb_13_1319,posner,3.1.5,59.88791378081541,
-0.5,180,0,left,2,3,1,0,1,0,7,3,59,4,,,,,,,,,380.8699738000005,381.36994870000035,382.08789739999975,None,381.38689109999996,382.0712483999996,382.5883348999996,None,left,1,0.46391959999982646,382.5883348999996,None,None,381.38689109999996,382.57172210000044,0.511612199999945,0.5955330000006143,1.7133654999997816,1.7970161000002918,,,,,nikita_2,001,2020_Feb_13_1319,posner,3.1.5,59.88791378081541,
-0.5,0,1,left,1,3,1,0,1,0,7,4,60,2,,,,,,,,,383.07329370000025,383.5731026000003,384.2906734999997,None,383.58980390000033,384.27427480000006,384.79154540000036,383.07329370000025,left,1,0.26051439999992,384.79154540000036,None,None,383.58980390000033,384.77489140000034,0.5112654000004113,0.5948983999996926,1.7130415000001449,1.796425200000158,,,,,nikita_2,001,2020_Feb_13_1319,posner,3.1.5,59.88791378081541,
0.5,180,1,right,2,4,1,0,1,0,7,5,61,6,,,,,,,,,385.07620789999964,385.57595930000025,386.29363209999974,None,385.5926085000001,386.2771292999996,386.79422030000023,None,right,1,0.30594290000044566,386.79422030000023,None,None,385.5926085000001,386.77779420000024,0.5115064000001439,0.5948207999999795,1.713318099999924,1.7965317999996842,,,,,nikita_2,001,2020_Feb_13_1319,posner,3.1.5,59.88791378081541,
-0.5,0,1,left,1,3,1,0,1,0,7,6,62,0,,,,,,,,,387.1288833999997,387.62895930000013,388.34633699999995,None,387.6456172999997,388.32976119999967,388.8472167,None,left,1,0.2447887999996965,388.8472167,None,None,387.6456172999997,388.8304541999996,0.511908499999663,0.595439499999884,1.7133868999999322,1.7968678999995973,,,,,nikita_2,001,2020_Feb_13_1319,posner,3.1.5,59.88791378081541,
0.5,0,0,right,1,4,1,0,1,0,7,7,63,3,,,,,,,,,389.1148626000004,389.61484050000035,390.3324730000004,None,389.63161579999996,390.3158401999999,390.83331819999967,None,right,1,0.32293720000052417,390.83331819999967,None,None,389.63161579999996,390.81640030000017,0.5114634999999907,0.594819599999937,1.7130106000004162,1.7965771999997742,,,,,nikita_2,001,2020_Feb_13_1319,posner,3.1.5,59.88791378081541,
0.5,0,0,right,1,4,1,0,1,0,8,0,64,3,,,,,,,,,391.1846811000005,391.68423900000016,392.4020326,None,391.70107780000035,392.38526639999964,392.9027001000004,None,right,1,0.3574793000007048,392.9027001000004,None,None,391.70107780000035,392.8861737999996,0.5113401999997222,0.594879299999775,1.7132308999998713,1.7963377999994918,,,,,nikita_2,001,2020_Feb_13_1319,posner,3.1.5,59.88791378081541,
0.5,180,1,right,2,4,1,0,1,0,8,1,65,6,,,,,,,,,393.2873265999997,393.7872623000003,394.5048740000002,None,393.80383660000007,394.4881895999997,395.00561860000016,395.4893393000002,None,0,,395.00561860000016,None,None,393.80383660000007,394.98868330000005,0.5117522000000463,0.5951373000007152,1.7131537000004755,1.796880400000191,,,,,nikita_2,001,2020_Feb_13_1319,posner,3.1.5,59.88791378081541,
-0.5,0,1,left,1,3,1,0,1,0,8,2,66,1,,,,,,,,,395.9902095999996,396.4909289999996,397.20867950000047,395.9902095999996,396.5075794000004,397.1917994000005,397.7092444,None,left,1,0.2547727000001032,397.7092444,None,None,396.5075794000004,397.69260380000014,0.513631699999678,0.5970085999997536,1.7152931999999055,1.7988846999996895,,,,,nikita_2,001,2020_Feb_13_1319,posner,3.1.5,59.88791378081541,
0.5,180,1,right,2,4,1,0,1,0,8,3,67,5,,,,,,,,,397.9932066000001,398.49388610000005,399.21129740000015,None,398.5103597999996,399.1947210999997,399.7120709999999,400.1961100999997,right,1,0.491965799999889,399.7120709999999,None,None,398.5103597999996,399.69527110000035,0.5124797999997099,0.595905600000151,1.7138477999997122,1.797319499999503,,,,,nikita_2,001,2020_Feb_13_1319,posner,3.1.5,59.88791378081541,
0.5,180,1,right,2,4,1,0,1,0,8,4,68,7,,,,,,,,,400.23022409999976,400.7302179999997,401.44820249999975,None,400.7470328999998,401.4310949999999,401.9487701999997,None,right,1,0.31121189999976195,401.9487701999997,None,None,400.7470328999998,401.9319261999999,0.5117761000001337,0.5952190999996674,1.7134667999998783,1.7966358999992735,,,,,nikita_2,001,2020_Feb_13_1319,posner,3.1.5,59.88791378081541,
-0.5,0,1,left,1,3,1,0,1,0,8,5,69,0,,,,,,,,,402.28327379999973,402.78302520000034,403.5005465000004,None,402.79955080000036,403.48404459999983,404.00120679999964,None,left,1,0.21876070000053005,404.00120679999964,None,None,402.79955080000036,403.9846752000003,0.5115878999995402,0.5949067999999897,1.7132124999998268,1.7965296000002127,,,,,nikita_2,001,2020_Feb_13_1319,posner,3.1.5,59.88791378081541,
-0.5,0,1,left,1,3,1,0,1,0,8,6,70,2,,,,,,,,,404.2356528,404.73567960000037,405.4533959999999,None,404.75230680000004,405.43670569999995,405.9543143000001,None,left,1,0.32971159999942756,405.9543143000001,None,None,404.75230680000004,405.9373157,0.51176039999973,0.5952336999998806,1.7133852999995725,1.796798200000012,,,,,nikita_2,001,2020_Feb_13_1319,posner,3.1.5,59.88791378081541,
-0.5,180,0,left,2,3,1,0,1,0,8,7,71,4,,,,,,,,,406.30527450000045,406.8051357000004,407.52283460000035,None,406.8218404999998,407.50619389999974,408.02347499999996,None,left,1,0.32446639999943727,408.02347499999996,None,None,406.8218404999998,408.0068017000003,0.5113830999998754,0.5948895999999877,1.713021900000058,1.7963358999995762,,,,,nikita_2,001,2020_Feb_13_1319,posner,3.1.5,59.88791378081541,
0.5,180,1,right,2,4,1,0,1,0,9,0,72,7,,,,,,,,,408.37472510000043,408.87469169999986,409.59219159999975,None,408.89128249999976,409.5755890999999,410.09300540000004,None,right,1,0.27087049999954615,410.09300540000004,None,None,408.89128249999976,410.0763557,0.5114212999997108,0.5947159999996074,1.7130688999995982,1.7963204999996378,,,,,nikita_2,001,2020_Feb_13_1319,posner,3.1.5,59.88791378081541,
0.5,180,1,right,2,4,1,0,1,0,9,1,73,5,,,,,,,,,410.3941101999999,410.89418769999975,411.61169040000004,None,410.91074670000035,411.59496469999976,412.1122439999999,None,right,1,0.2998351999995066,412.1122439999999,None,None,410.91074670000035,412.09592520000024,0.5115654999999606,0.5950044999999591,1.7132907000004707,1.796450100000584,,,,,nikita_2,001,2020_Feb_13_1319,posner,3.1.5,59.88791378081541,
-0.5,0,1,left,1,3,1,0,1,0,9,2,74,1,,,,,,,,,412.4305918,412.93031900000005,413.6479585999996,None,412.9468864999999,413.63130009999986,414.14859419999993,None,left,1,0.22343659999933152,414.14859419999993,None,None,412.9468864999999,414.1317694999998,0.5114548999999897,0.5947789000001649,1.7128861999999572,1.7965715999998793,,,,,nikita_2,001,2020_Feb_13_1319,posner,3.1.5,59.88791378081541,
0.5,0,0,right,1,4,1,0,1,0,9,3,75,3,,,,,,,,,414.39958149999984,414.8996893000003,415.61728459999995,None,414.9163054999999,415.6004117000002,416.1178705000002,None,right,1,0.30207679999966786,416.1178705000002,None,None,414.9163054999999,416.10119870000017,0.5115678000001935,0.5950095999996847,1.7130570999997872,1.7964872000002288,,,,,nikita_2,001,2020_Feb_13_1319,posner,3.1.5,59.88791378081541,
0.5,180,1,right,2,4,1,0,1,0,9,4,76,6,,,,,,,,,416.43565000000035,416.93568909999976,417.6534147000002,None,416.95266360000005,417.6369285999999,418.1539706000003,None,right,1,0.2577545000003738,418.1539706000003,None,None,416.95266360000005,418.1374157,0.511629399999947,0.595015599999897,1.7133326000002853,1.7965091000005486,,,,,nikita_2,001,2020_Feb_13_1319,posner,3.1.5,59.88791378081541,
-0.5,0,1,left,1,3,1,0,1,0,9,5,77,0,,,,,,,,,418.43798870000046,418.9385626000003,419.65627940000013,None,418.955379,419.63942860000043,420.1567831000002,None,left,1,0.2311372999993182,420.1567831000002,None,None,418.955379,420.1401044000004,0.5118854000002102,0.5952726000004986,1.713420699999915,1.7968475000006947,,,,,nikita_2,001,2020_Feb_13_1319,posner,3.1.5,59.88791378081541,
-0.5,180,0,left,2,3,1,0,1,0,9,6,78,4,,,,,,,,,420.4078663999999,420.90799179999976,421.62553149999985,None,420.9245570000003,421.6088890000001,422.1261806000002,None,left,1,0.30179019999923185,422.1261806000002,None,None,420.9245570000003,422.1093437999998,0.5117073999999775,0.594933399999718,1.713045399999828,1.7967838000004122,,,,,nikita_2,001,2020_Feb_13_1319,posner,3.1.5,59.88791378081541,
-0.5,0,1,left,1,3,1,0,1,0,9,7,79,2,,,,,,,,,422.44403390000025,422.94406660000004,423.6615713000001,None,422.9605824,423.6450560000003,424.1624076999997,None,left,1,0.28966810000019905,424.1624076999997,None,None,422.9605824,424.1456535999996,0.5116820000002917,0.5952133999999205,1.7132438999997248,1.7966961000001902,,,,,nikita_2,001,2020_Feb_13_1319,posner,3.1.5,59.88791378081541,
-0.5,0,1,left,1,3,1,0,1,0,10,0,80,2,,,,,,,,,424.4802473,424.9801561000004,425.6977651999996,None,424.9969753000005,425.6810324999997,426.1983987000003,None,left,1,0.26947279999967577,426.1983987000003,None,None,424.9969753000005,426.1816527000001,0.5116745999994237,0.5951198999991902,1.7131488999993962,1.7966766999998072,,,,,nikita_2,001,2020_Feb_13_1319,posner,3.1.5,59.88791378081541,
0.5,180,1,right,2,4,1,0,1,0,10,1,81,6,,,,,,,,,426.4995630000003,426.9994655999999,427.71741720000045,None,427.0163015999997,427.70048940000015,428.21790039999996,None,right,1,0.3620857000005344,428.21790039999996,None,None,427.0163015999997,428.2010891,0.511492100000396,0.5949859000002107,1.7130972000004476,1.7966449000005014,,,,,nikita_2,001,2020_Feb_13_1319,posner,3.1.5,59.88791378081541,
-0.5,0,1,left,1,3,1,0,1,0,10,2,82,0,,,,,,,,,428.6027525999998,429.10254929999974,429.82005149999986,None,429.11912910000046,429.8035401999996,430.32069560000036,None,left,1,0.2114222999998674,430.32069560000036,None,None,429.11912910000046,430.30419359999996,0.5116833000001861,0.5949651000000813,1.7133114999996906,1.7969960000000356,,,,,nikita_2,001,2020_Feb_13_1319,posner,3.1.5,59.88791378081541,
0.5,0,0,right,1,4,1,0,1,0,10,3,83,3,,,,,,,,,430.55548139999974,431.0550553000003,431.7728102000001,None,431.07182100000045,431.7560462000001,432.2736310999999,None,right,1,0.36217820000001666,432.2736310999999,None,None,431.07182100000045,432.2569999999996,0.5111271000005218,0.5945085000003019,1.713050000000294,1.7961842000004253,,,,,nikita_2,001,2020_Feb_13_1319,posner,3.1.5,59.88791378081541,
-0.5,180,0,left,2,3,1,0,1,0,10,4,84,4,,,,,,,,,432.6582647000005,433.15810930000043,433.87575370000013,None,433.17465189999984,433.85892160000003,434.37639969999964,None,left,1,0.29944930000056047,434.37639969999964,None,None,433.17465189999984,434.3597026999996,0.5116373000000749,0.5948842999996486,1.7132179999998698,1.7966784999998708,,,,,nikita_2,001,2020_Feb_13_1319,posner,3.1.5,59.88791378081541,
-0.5,0,1,left,1,3,1,0,1,0,10,5,85,1,,,,,,,,,434.69407370000044,435.1942316000004,435.91175490000023,None,435.21083699999963,435.89499090000027,436.41268130000026,None,left,1,0.27134770000066055,436.41268130000026,None,None,435.21083699999963,436.3957339999997,0.5118781000001036,0.5954977000001236,1.7133644000005006,1.7968147000001409,,,,,nikita_2,001,2020_Feb_13_1319,posner,3.1.5,59.88791378081541,
0.5,180,1,right,2,4,1,0,1,0,10,6,86,5,,,,,,,,,436.71386390000043,437.2136991999996,437.9313622999998,None,437.23033399999986,437.9147721999998,438.43187560000024,None,right,1,0.30009980000068026,438.43187560000024,None,None,437.23033399999986,438.41531140000006,0.5114318999994794,0.5947999999998501,1.7130299000000377,1.7964105999999447,,,,,nikita_2,001,2020_Feb_13_1319,posner,3.1.5,59.88791378081541,
0.5,180,1,right,2,4,1,0,1,0,10,7,87,7,,,,,,,,,438.74989280000045,439.24956790000033,439.9673706000003,None,439.26642640000046,439.95088810000016,440.4680932000001,None,right,1,0.4078668000001926,440.4680932000001,None,None,439.26642640000046,440.4517444000003,0.5113910999998552,0.5951449999993201,1.7135546999998041,1.796522599999662,,,,,nikita_2,001,2020_Feb_13_1319,posner,3.1.5,59.88791378081541,
,,,,,,1,0,1,0,,,,,,,,,,,,,,,,,,,,,,,,,,,,,,,,,440.9019274000002,None,1.6199999663513154e-05,0.9964085999999952,nikita_2,001,2020_Feb_13_1319,posner,3.1.5,59.88791378081541,
0.5,180,1,right,2,4,2,0,2,0,0,0,0,6,1.2100000276404899e-05,0.09751150000010966,501.9192052999997,None,1.4899999769113492e-05,0.0977298999996492,504.0221171000003,None,504.30961600000046,504.8066663999998,505.52438749999965,None,504.82308120000016,505.50742139999966,506.0249752,None,right,1,0.2906167999999525,506.0249752,None,None,504.82308120000016,506.0081332,0.506471199999396,0.5896198000000368,1.7079219999995985,1.7914737999999488,,,,,nikita_2,001,2020_Feb_13_1319,posner,3.1.5,59.88791378081541,
0.5,0,0,right,1,4,2,0,2,0,0,1,1,3,,,,,,,,,506.3429707000005,506.84277759999986,507.5602079999999,None,506.8592303000005,507.54350929999964,508.06095749999986,None,right,1,0.2787037000007331,508.06095749999986,None,None,506.8592303000005,508.04431399999976,0.5106792999995378,0.5939441999998962,1.7122042000000874,1.7956813999999213,,,,,nikita_2,001,2020_Feb_13_1319,posner,3.1.5,59.88791378081541,
-0.5,180,0,left,2,3,2,0,2,0,0,2,2,4,,,,,,,,,508.36230290000003,508.8619299000002,509.57986530000017,None,508.87871799999994,509.56314459999976,510.0804814000003,None,left,1,0.314954200000102,510.0804814000003,None,None,508.87871799999994,510.06382159999976,0.5113633000000846,0.5949297999995906,1.7132361999993009,1.7967375999996875,,,,,nikita_2,001,2020_Feb_13_1319,posner,3.1.5,59.88791378081541,
0.5,180,1,right,2,4,2,0,2,0,0,3,3,5,,,,,,,,,510.4150759000004,510.91501380000045,511.6328469,None,510.93178609999995,511.61584479999965,512.1334818000005,None,right,1,0.254021499999908,512.1334818000005,None,None,510.93178609999995,512.1166254,0.5118351000000985,0.595220000000154,1.7134332999994513,1.7967058999993242,,,,,nikita_2,001,2020_Feb_13_1319,posner,3.1.5,59.88791378081541,
-0.5,0,1,left,1,3,2,0,2,0,0,4,4,0,,,,,,,,,512.4174725000003,512.9178294000003,513.6353786,None,512.934182,513.6186318999999,514.1359966999999,None,left,1,0.29151590000037686,514.1359966999999,None,None,512.934182,514.1190146999998,0.5116656999998668,0.5948702000005142,1.7128360000006069,1.7965912999998181,,,,,nikita_2,001,2020_Feb_13_1319,posner,3.1.5,59.88791378081541,
0.5,180,1,right,2,4,2,0,2,0,0,5,5,7,,,,,,,,,514.4540032000004,514.9538351000001,515.671472,None,514.9702802000002,515.6549124000003,516.1721422,None,right,1,0.2712385999993785,516.1721422,None,None,514.9702802000002,516.1553974999997,0.511561499999516,0.5951139999997395,1.713104200000089,1.7964492000000973,,,,,nikita_2,001,2020_Feb_13_1319,posner,3.1.5,59.88791378081541,
-0.5,0,1,left,1,3,2,0,2,0,0,6,6,2,,,,,,,,,516.4732200999997,516.9732337000005,517.6907898,None,516.9899507,517.6742116000005,518.1914625,None,left,1,0.30801659999997355,518.1914625,None,None,516.9899507,518.1748571999997,0.5114898000001631,0.5949106999996729,1.7131009999993694,1.7965355999995154,,,,,nikita_2,001,2020_Feb_13_1319,posner,3.1.5,59.88791378081541,
-0.5,0,1,left,1,3,2,0,2,0,0,7,7,1,,,,,,,,,518.5262646000001,519.0261474999998,519.7438054000004,None,519.0428682000002,519.7272942,520.2443048000005,None,left,1,0.415148400000362,520.2443048000005,None,None,519.0428682000002,520.2277720000002,0.5113135000001421,0.594546000000264,1.7129205999999613,1.7963298000004215,,,,,nikita_2,001,2020_Feb_13_1319,posner,3.1.5,59.88791378081541,
0.5,0,0,right,1,4,2,0,2,0,1,0,8,3,,,,,,,,,520.6791730000004,521.1789300999999,521.8968683000003,None,521.1956859000002,521.8798773999997,522.3974919000002,None,right,1,0.35005220000039117,522.3974919000002,None,None,521.1956859000002,522.3805699000004,0.5113900999995167,0.5947906999999759,1.7130148999995072,1.796661999999742,,,,,nikita_2,001,2020_Feb_13_1319,posner,3.1.5,59.88791378081541,
0.5,180,1,right,2,4,2,0,2,0,1,1,9,5,,,,,,,,,522.7653418999998,523.2653736000002,523.9829121000002,None,523.2819835,523.9661741,524.4836335999998,None,right,1,0.3037942999999359,524.4836335999998,None,None,523.2819835,524.4670417999996,0.5117024999999558,0.5948861999995643,1.7133541000002879,1.796585099999902,,,,,nikita_2,001,2020_Feb_13_1319,posner,3.1.5,59.88791378081541,
-0.5,0,1,left,1,3,2,0,2,0,1,2,10,2,,,,,,,,,524.8176857999997,525.3180177000004,526.0357438000001,None,525.3347387000003,526.0189148,526.5364007999997,None,left,1,0.2831242000002021,526.5364007999997,None,None,525.3347387000003,526.5195823000004,0.5117186000006768,0.595165800000359,1.7132651000001715,1.7967189999999391,,,,,nikita_2,001,2020_Feb_13_1319,posner,3.1.5,59.88791378081541,
0.5,180,1,right,2,4,2,0,2,0,1,3,11,6,,,,,,,,,526.8375853999996,527.3375389000003,528.0553295999998,None,527.3541894999998,528.0383392000003,528.5558773000002,None,right,1,0.26359250000041357,528.5558773000002,None,None,527.3541894999998,528.5390785,0.5116086999996696,0.5948149999994712,1.7131294999999227,1.7966483999998673,,,,,nikita_2,001,2020_Feb_13_1319,posner,3.1.5,59.88791378081541,
0.5,180,1,right,2,4,2,0,2,0,1,4,12,7,,,,,,,,,528.8403494000004,529.3401365999998,530.0579330999999,None,529.3569531000003,530.0410632000003,530.5584638,None,right,1,0.2929229999999734,530.5584638,None,None,529.3569531000003,530.5418362999999,0.5113922000000457,0.5949913999993441,1.7130674,1.7964624999995067,,,,,nikita_2,001,2020_Feb_13_1319,posner,3.1.5,59.88791378081541,
-0.5,180,0,left,2,3,2,0,2,0,1,5,13,4,,,,,,,,,530.8763267000004,531.3765732000002,532.0940947999998,None,531.3929164000001,532.0774509000003,532.5947378000001,None,left,1,0.3450073000003613,532.5947378000001,None,None,531.3929164000001,532.5781846,0.5119397999997091,0.5950140000004467,1.7135350999997172,1.796723800000109,,,,,nikita_2,001,2020_Feb_13_1319,posner,3.1.5,59.88791378081541,
-0.5,0,1,left,1,3,2,0,2,0,1,6,14,0,,,,,,,,,532.9633185000002,533.4627326999998,534.1802002000004,None,533.4792493000004,534.1635194999999,534.6810254000002,None,left,1,0.2503639000005933,534.6810254000002,None,None,533.4792493000004,534.6643715999999,0.5114802999996755,0.5945445999996082,1.7131029000001945,1.7965242000000217,,,,,nikita_2,001,2020_Feb_13_1319,posner,3.1.5,59.88791378081541,
-0.5,0,1,left,1,3,2,0,2,0,1,7,15,1,,,,,,,,,534.9489186000001,535.4489703999998,536.1663703000004,None,535.4655149,536.1495741999997,536.6669664000001,None,left,1,0.32846389999940584,536.6669664000001,None,None,535.4655149,536.6502897999999,0.5121139000002586,0.5952620999996725,1.7134181000001263,1.7967100999994727,,,,,nikita_2,001,2020_Feb_13_1319,posner,3.1.5,59.88791378081541,
0.5,180,1,right,2,4,2,0,2,0,2,0,16,5,,,,,,,,,537.0177572000002,537.5180725999999,538.2359469000003,None,537.5347633000001,538.2190153000001,538.7365398000002,None,right,1,0.33868169999914244,538.7365398000002,None,None,537.5347633000001,538.7196700000004,0.5121722000003501,0.5956875000001673,1.7137594000005265,1.7973164000004545,,,,,nikita_2,001,2020_Feb_13_1319,posner,3.1.5,59.88791378081541,
-0.5,180,0,left,2,3,2,0,2,0,2,1,17,4,,,,,,,,,539.1044013000001,539.6043694,540.3217598000001,None,539.6210503000002,540.3053184999999,540.8226979000001,None,left,1,0.30106250000062573,540.8226979000001,None,None,539.6210503000002,540.8062020999996,0.5116385999999693,0.5951050999992731,1.713452399999369,1.7966019999994387,,,,,nikita_2,001,2020_Feb_13_1319,posner,3.1.5,59.88791378081541,
-0.5,0,1,left,1,3,2,0,2,0,2,2,18,1,,,,,,,,,541.1401342999998,541.6403324000003,542.3582968999999,None,541.6572552999996,542.3412873999996,542.8586243,None,left,1,0.2887057999996614,542.8586243,None,None,541.6572552999996,542.8421182000002,0.511106099999779,0.59482509999998,1.7128738999999769,1.7964554999998654,,,,,nikita_2,001,2020_Feb_13_1319,posner,3.1.5,59.88791378081541,
0.5,180,1,right,2,4,2,0,2,0,2,3,19,7,,,,,,,,,543.1762440000002,543.6767980000004,544.3943288999999,None,543.6933725999997,544.3775957999997,544.8948748000003,None,right,1,0.3005305999995471,544.8948748000003,None,None,543.6933725999997,544.8782443,0.512007100000119,0.595063000000664,1.7134374000006574,1.7967849000006026,,,,,nikita_2,001,2020_Feb_13_1319,posner,3.1.5,59.88791378081541,
0.5,0,0,right,1,4,2,0,2,0,2,4,20,3,,,,,,,,,545.2124725000003,545.7129926999996,546.4303098999999,None,545.7294027999997,546.4136114000003,546.9311427000002,None,right,1,0.3761357000003045,546.9311427000002,None,None,545.7294027999997,546.9143535000003,0.5124455000004673,0.5958535999998276,1.7137890000003608,1.7972257999999783,,,,,nikita_2,001,2020_Feb_13_1319,posner,3.1.5,59.88791378081541,
-0.5,0,1,left,1,3,2,0,2,0,2,5,21,2,,,,,,,,,547.3325408000001,547.8324162999997,548.5497931999998,None,547.8489830999997,548.5331797999997,549.0506206999999,None,left,1,0.33673240000007354,549.0506206999999,None,None,547.8489830999997,549.0340581999999,0.5118062000001373,0.5953176000002713,1.7134133999998085,1.7965859000005366,,,,,nikita_2,001,2020_Feb_13_1319,posner,3.1.5,59.88791378081541,
0.5,180,1,right,2,4,2,0,2,0,2,6,22,6,,,,,,,,,549.4183837,549.9184584000004,550.6363242999996,None,549.9354544999997,550.6193894999997,551.1369711999996,551.6207557999996,right,1,0.4903924999998708,551.1369711999996,None,None,549.9354544999997,551.1201216,0.5115962999998374,0.5951391999997213,1.7132369000000836,1.796770099999776,,,,,nikita_2,001,2020_Feb_13_1319,posner,3.1.5,59.88791378081541,
-0.5,0,1,left,1,3,2,0,2,0,2,7,23,0,,,,,,,,,551.6547664,552.1551018,552.8725691,None,552.1715389000001,552.8559639000005,553.3734612999997,None,left,1,0.26980769999954646,553.3734612999997,None,None,552.1715389000001,553.3566452000005,0.5114857999997184,0.5946328999998514,1.7130182999999306,1.7962308999995003,,,,,nikita_2,001,2020_Feb_13_1319,posner,3.1.5,59.88791378081541,
0.5,0,0,right,1,4,2,0,2,0,3,0,24,3,,,,,,,,,553.6743896999997,554.1743729999998,554.8919567000003,None,554.1910429,554.8753060999998,555.3927905999999,None,right,1,0.34644509999998263,555.3927905999999,None,None,554.1910429,555.3761492000003,0.5113730000002761,0.5948837000005369,1.7131319000000076,1.7964235999997982,,,,,nikita_2,001,2020_Feb_13_1319,posner,3.1.5,59.88791378081541,
-0.5,180,0,left,2,3,2,0,2,0,3,1,25,4,,,,,,,,,555.7610213999997,556.2605247000001,556.9782729999997,None,556.2775477000005,556.9614703999996,557.4788010000002,None,left,1,0.3724592999997185,557.4788010000002,None,None,556.2775477000005,557.4622820000004,0.5112838999993983,0.594810999999936,1.7130181999991692,1.7964650999992955,,,,,nikita_2,001,2020_Feb_13_1319,posner,3.1.5,59.88791378081541,
-0.5,0,1,left,1,3,2,0,2,0,3,2,26,1,,,,,,,,,557.8802851,558.3802435999996,559.0977961999997,None,558.3969776000004,559.0811317999996,559.5984252999997,None,left,1,0.2847858000004635,559.5984252999997,None,None,558.3969776000004,559.5819129000001,0.5117425999997067,0.5952255000001969,1.713388500000292,1.796732300000258,,,,,nikita_2,001,2020_Feb_13_1319,posner,3.1.5,59.88791378081541,
0.5,180,1,right,2,4,2,0,2,0,3,3,27,7,,,,,,,,,559.8996161000005,560.3995253000003,561.1172173000004,None,560.4163712,561.1005198000003,561.6180531999998,None,right,1,0.3291325999998662,561.6180531999998,None,None,560.4163712,561.6011925000003,0.5116196000008131,0.5952206000001752,1.7132659000008061,1.7968014000007315,,,,,nikita_2,001,2020_Feb_13_1319,posner,3.1.5,59.88791378081541,
0.5,180,1,right,2,4,2,0,2,0,3,4,28,5,,,,,,,,,561.9683879000004,562.4691758999998,563.1868815999997,None,562.4859085999997,563.1701055000003,563.6873966000003,None,right,1,0.35586070000044856,563.6873966000003,None,None,562.4859085999997,563.6707122999996,0.5122253999998065,0.5956679000000804,1.7137446999995518,1.797372699999869,,,,,nikita_2,001,2020_Feb_13_1319,posner,3.1.5,59.88791378081541,
-0.5,0,1,left,1,3,2,0,2,0,3,5,29,0,,,,,,,,,564.0719090000002,564.5720780000001,565.2896890000002,None,564.5885932000001,565.2729476000004,565.7902018000004,None,left,1,0.2850274000002173,565.7902018000004,None,None,564.5885932000001,565.7737858,0.511674899999889,0.5950112000000445,1.7133671999999933,1.7968065000004572,,,,,nikita_2,001,2020_Feb_13_1319,posner,3.1.5,59.88791378081541,
-0.5,0,1,left,1,3,2,0,2,0,3,6,30,2,,,,,,,,,566.0917023000002,566.5912721000004,567.3089184,None,566.6081164999996,567.2924696999999,567.8097328000003,None,left,1,0.3934828999999809,567.8097328000003,None,None,566.6081164999996,567.7930988999997,0.5113934999999401,0.5948293000001286,1.7131703000004563,1.7967089000003398,,,,,nikita_2,001,2020_Feb_13_1319,posner,3.1.5,59.88791378081541,
0.5,180,1,right,2,4,2,0,2,0,3,7,31,6,,,,,,,,,568.2275535999997,568.7278318999997,569.4453352,None,568.7445005999998,569.4286715999997,569.9461658999999,None,right,1,0.34536930000012944,569.9461658999999,None,None,568.7445005999998,569.9294295999998,0.5118453999994017,0.5950928999991447,1.7134297999991759,1.7966937999999573,,,,,nikita_2,001,2020_Feb_13_1319,posner,3.1.5,59.88791378081541,
-0.5,0,1,left,1,3,2,0,2,0,4,0,32,0,,,,,,,,,570.3141519999999,570.8139744999999,571.5316633000002,None,570.8306208000004,571.5150610000001,572.032389,None,left,1,0.28284379999968223,572.032389,None,None,570.8306208000004,572.0155391999997,0.511492200000248,0.5949736000002304,1.713044699999955,1.796479000000545,,,,,nikita_2,001,2020_Feb_13_1319,posner,3.1.5,59.88791378081541,
0.5,180,1,right,2,4,2,0,2,0,4,1,33,6,,,,,,,,,572.3338771999997,572.8333863999997,573.5508755999999,None,572.8499964000002,573.5343100999999,574.0518590000001,None,right,1,0.27931140000055166,574.0518590000001,None,None,572.8499964000002,574.0350939,0.5112962000002881,0.5947575000000143,1.7129896999995253,1.7962399999996705,,,,,nikita_2,001,2020_Feb_13_1319,posner,3.1.5,59.88791378081541,
0.5,180,1,right,2,4,2,0,2,0,4,2,34,5,,,,,,,,,574.3529864000002,574.8528901,575.5704808999999,None,574.8693326000002,575.5537727999999,576.0712352,None,right,1,0.3720852000005834,576.0712352,None,None,574.8693326000002,576.0543607999998,0.5116601999998238,0.5950567999998384,1.7131131999994977,1.7967030999998315,,,,,nikita_2,001,2020_Feb_13_1319,posner,3.1.5,59.88791378081541,
0.5,0,0,right,1,4,2,0,2,0,4,3,35,3,,,,,,,,,576.4725189000001,576.972401,577.6899769000001,None,576.9890802,577.6731885999998,578.1906607999999,None,right,1,0.33261510000011185,578.1906607999999,None,None,576.9890802,578.1741185000001,0.5116454999997586,0.5952483000000939,1.7133442000003924,1.7966317999998864,,,,,nikita_2,001,2020_Feb_13_1319,posner,3.1.5,59.88791378081541,
0.5,180,1,right,2,4,2,0,2,0,4,4,36,7,,,,,,,,,578.5422847,579.0419239000003,579.7593963999998,None,579.0586369000002,579.7429454000003,580.2600330000005,None,right,1,0.3351638999993156,580.2600330000005,None,None,579.0586369000002,580.2435064000001,0.5115175000000818,0.5948533999999199,1.713087600000108,1.7969207999994978,,,,,nikita_2,001,2020_Feb_13_1319,posner,3.1.5,59.88791378081541,
-0.5,0,1,left,1,3,2,0,2,0,4,5,37,1,,,,,,,,,580.6113309000002,581.1113877999996,581.8290071000001,None,581.1283063000001,581.8124463000004,582.3297499999999,None,left,1,0.289502700000412,582.3297499999999,None,None,581.1283063000001,582.3131495999996,0.5117040000004636,0.5950824999999895,1.7134150000001682,1.796892200000002,,,,,nikita_2,001,2020_Feb_13_1319,posner,3.1.5,59.88791378081541,
-0.5,0,1,left,1,3,2,0,2,0,4,6,38,2,,,,,,,,,582.6478171999997,583.1475360000004,583.8651787999997,None,583.1643136000002,583.8483495999999,584.3659168000004,None,left,1,0.3333333999999013,584.3659168000004,None,None,583.1643136000002,584.3492587000001,0.51146400000016,0.5949964000001273,1.7131684999994832,1.7966489999998885,,,,,nikita_2,001,2020_Feb_13_1319,posner,3.1.5,59.88791378081541,
-0.5,180,0,left,2,3,2,0,2,0,4,7,39,4,,,,,,,,,584.717052,585.2171743999997,585.9347766999999,None,585.2335796999996,585.9182504999999,586.4355249999999,None,left,1,0.31154119999973773,586.4355249999999,None,None,585.2335796999996,586.4188837000002,0.5115298000000621,0.5951529000003575,1.7132290999998077,1.7965909000004103,,,,,nikita_2,001,2020_Feb_13_1319,posner,3.1.5,59.88791378081541,
0.5,180,1,right,2,4,2,0,2,0,5,0,40,6,,,,,,,,,586.7701204000005,587.2698975000003,587.9875727999997,None,587.2865921000002,587.9708221000001,588.4880040999997,None,right,1,0.29914410000037606,588.4880040999997,None,None,587.2865921000002,588.4715310000001,0.5115003000000797,0.5949067000001378,1.7131154999997307,1.7966088000002856,,,,,nikita_2,001,2020_Feb_13_1319,posner,3.1.5,59.88791378081541,
-0.5,0,1,left,1,3,2,0,2,0,5,1,41,0,,,,,,,,,588.8058926000003,589.3062282999999,590.0237373999998,None,589.3227505000004,590.0071426000004,590.5243890000002,None,left,1,0.27869339999961085,590.5243890000002,None,None,589.3227505000004,590.5075616000004,0.5117999999993117,0.5950102999995579,1.7131206999993083,1.796614099999715,,,,,nikita_2,001,2020_Feb_13_1319,posner,3.1.5,59.88791378081541,
-0.5,0,1,left,1,3,2,0,2,0,5,2,42,2,,,,,,,,,590.8255386000001,591.3254789000002,592.0429630999997,None,591.3421142999996,592.0264729999999,592.5438753999997,None,left,1,0.29114620000018476,592.5438753999997,None,None,591.3421142999996,592.5274165000001,0.511455300000307,0.5946327000001475,1.713375299999825,1.7964041000004727,,,,,nikita_2,001,2020_Feb_13_1319,posner,3.1.5,59.88791378081541,
0.5,180,1,right,2,4,2,0,2,0,5,3,43,5,,,,,,,,,592.8617207999996,593.361519,594.0792294000003,None,593.3783172000003,594.0626098000002,594.5800030999999,None,right,1,0.2629767999997057,594.5800030999999,None,None,593.3783172000003,594.5637552999997,0.5114180999999007,0.5949645000000601,1.7136215000000448,1.7968808000005083,,,,,nikita_2,001,2020_Feb_13_1319,posner,3.1.5,59.88791378081541,
-0.5,180,0,left,2,3,2,0,2,0,5,4,44,4,,,,,,,,,594.8655379000002,595.3641888000002,596.0821821,None,595.3810635,596.0653164000005,596.5826251999997,None,left,1,0.30841789999976754,596.5826251999997,None,None,595.3810635,596.5660441,0.5100170000005164,0.5940147000001161,1.7118468999997276,1.7951852000005601,,,,,nikita_2,001,2020_Feb_13_1319,posner,3.1.5,59.88791378081541,
0.5,0,0,right,1,4,2,0,2,0,5,5,45,3,,,,,,,,,596.9172209999997,597.4171145999999,598.1348902999998,None,597.4341654,598.1182152000001,598.6354523999998,None,right,1,0.3116221999998743,598.6354523999998,None,None,597.4341654,598.6189104000005,0.5116948999993838,0.5950983999991877,1.713472799999181,1.7969148999991376,,,,,nikita_2,001,2020_Feb_13_1319,posner,3.1.5,59.88791378081541,
0.5,180,1,right,2,4,2,0,2,0,5,6,46,7,,,,,,,,,598.9701986999999,599.4701388000003,600.1874187000003,None,599.4871258000003,600.1707806000004,600.6881581999996,None,right,1,0.3549110000003566,600.6881581999996,None,None,599.4871258000003,600.6715598000001,0.5115169999999125,0.5950666999997338,1.712931899999603,1.796658799999932,,,,,nikita_2,001,2020_Feb_13_1319,posner,3.1.5,59.88791378081541,
-0.5,0,1,left,1,3,2,0,2,0,5,7,47,1,,,,,,,,,601.0738031999999,601.5729203000001,602.2904503999998,None,601.5895794999997,602.2736885000004,602.7911358000001,None,left,1,0.3319007000000056,602.7911358000001,None,None,601.5895794999997,602.7747053000003,0.5107839000002059,0.5944122999999308,1.7125515999996423,1.795802999999978,,,,,nikita_2,001,2020_Feb_13_1319,posner,3.1.5,59.88791378081541,
-0.5,0,1,left,1,3,2,0,2,0,6,0,48,0,,,,,,,,,603.1426500999996,603.6423111000004,604.3599178000004,None,603.6590666000002,604.3434322000003,604.8606996999997,None,left,1,0.3743169000008493,604.8606996999997,None,None,603.6590666000002,604.8442303000002,0.5114118000001326,0.5948977999996714,1.713315099999818,1.7967288999998345,,,,,nikita_2,001,2020_Feb_13_1319,posner,3.1.5,59.88791378081541,
-0.5,180,0,left,2,3,2,0,2,0,6,1,49,4,,,,,,,,,605.2622070999996,605.7621781999997,606.4796292999999,None,605.7786068000005,606.4630402000003,606.9804298999998,None,left,1,0.3266055999993114,606.9804298999998,None,None,605.7786068000005,606.9637314000001,0.5117124999997031,0.5948426999993899,1.7132486999998946,1.7965325999994093,,,,,nikita_2,001,2020_Feb_13_1319,posner,3.1.5,59.88791378081541,
0.5,180,1,right,2,4,2,0,2,0,6,2,50,6,,,,,,,,,607.331666,607.8315149999999,608.5489594000001,None,607.8478863,608.5324766000003,609.0496635,None,right,1,0.32129710000026535,609.0496635,None,None,607.8478863,609.0330745000001,0.5116948000004413,0.5952119000003222,1.7132353000006333,1.7968320999998468,,,,,nikita_2,001,2020_Feb_13_1319,posner,3.1.5,59.88791378081541,
0.5,180,1,right,2,4,2,0,2,0,6,3,51,7,,,,,,,,,609.4014312999998,609.900866,610.61859,None,609.9176737999996,610.6019850000002,611.1192811999999,None,right,1,0.3478015000000596,611.1192811999999,None,None,609.9176737999996,611.102895,0.5115882000000056,0.5951793000003818,1.713594099999682,1.7969329999996262,,,,,nikita_2,001,2020_Feb_13_1319,posner,3.1.5,59.88791378081541,
-0.5,0,1,left,1,3,2,0,2,0,6,4,52,1,,,,,,,,,611.4873373999999,611.9871559000003,612.7049221999996,None,612.0040154999997,612.6880743000002,613.2055950000004,None,left,1,0.34943790000033914,613.2055950000004,None,None,612.0040154999997,613.1887593000001,0.5116389000004347,0.5950601000004099,1.7132234999999127,1.796809200000098,,,,,nikita_2,001,2020_Feb_13_1319,posner,3.1.5,59.88791378081541,
0.5,180,1,right,2,4,2,0,2,0,6,5,53,5,,,,,,,,,613.5739094,614.0732737999997,614.7908602999996,None,614.0900743000002,614.7745955,615.2917242000003,None,right,1,0.30332460000045103,615.2917242000003,None,None,614.0900743000002,615.2749894999997,0.5110917000001791,0.5948887000004106,1.712791500000094,1.7961450000002515,,,,,nikita_2,001,2020_Feb_13_1319,posner,3.1.5,59.88791378081541,
-0.5,0,1,left,1,3,2,0,2,0,6,6,54,2,,,,,,,,,615.6255898,616.1263188000003,616.8437279,None,616.1429643000001,616.8274435000003,617.3444796000003,None,left,1,0.18647859999964567,617.3444796000003,None,None,616.1429643000001,617.3278454000001,0.5122679999994944,0.5954019999999218,1.713782299999366,1.7971041000000696,,,,,nikita_2,001,2020_Feb_13_1319,posner,3.1.5,59.88791378081541,
0.5,0,0,right,1,4,2,0,2,0,6,7,55,3,,,,,,,,,617.5623139999998,618.0621910999998,618.7799444000002,None,618.0791175000004,618.7632892000001,619.2806723000003,None,right,1,0.30635110000002896,619.2806723000003,None,None,618.0791175000004,619.2640406999999,0.5113511999998082,0.5948375999996642,1.7131722999993144,1.7964558999992732,,,,,nikita_2,001,2020_Feb_13_1319,posner,3.1.5,59.88791378081541,
0.5,180,1,right,2,4,2,0,2,0,7,0,56,6,,,,,,,,,619.6150031999996,620.1151221999999,620.8327462999996,None,620.1318234999999,620.8160627999996,621.3334439,None,right,1,0.27743240000017977,621.3334439,None,None,620.1318234999999,621.3166395999997,0.5116218000002846,0.5948165999998309,1.7131294000000707,1.7965175999997882,,,,,nikita_2,001,2020_Feb_13_1319,posner,3.1.5,59.88791378081541,
0.5,0,0,right,1,4,2,0,2,0,7,1,57,3,,,,,,,,,621.6345792000002,622.1345223999997,622.8522131999998,None,622.1511102000004,622.8353847999997,623.3527718000005,None,right,1,0.42614159999993717,623.3527718000005,None,None,622.1511102000004,623.3362790000001,0.511566700000003,0.5948969999999463,1.7133069000001342,1.7965555000000677,,,,,nikita_2,001,2020_Feb_13_1319,posner,3.1.5,59.88791378081541,
-0.5,0,1,left,1,3,2,0,2,0,7,2,58,0,,,,,,,,,623.8041731000003,624.3040533000003,625.0220019999997,None,624.3206565,625.0050897000001,625.5224201999999,None,left,1,0.24869229999967501,625.5224201999999,None,None,624.3206565,625.5060243999997,0.5113649000004443,0.594842499999686,1.7133130000001984,1.7965266999999585,,,,,nikita_2,001,2020_Feb_13_1319,posner,3.1.5,59.88791378081541,
0.5,180,1,right,2,4,2,0,2,0,7,3,59,7,,,,,,,,,625.7904033000004,626.2901816000003,627.0077756999999,None,626.3071446000004,626.9911136999999,627.5084064000002,None,right,1,0.23870790000000852,627.5084064000002,None,None,626.3071446000004,627.4916893,0.5115402999999787,0.5949197999998432,1.7130300999997417,1.796724799999538,,,,,nikita_2,001,2020_Feb_13_1319,posner,3.1.5,59.88791378081541,
-0.5,180,0,left,2,3,2,0,2,0,7,4,60,4,,,,,,,,,627.7762075999999,628.2762080000002,628.9938018000003,None,628.2929407000001,628.9773863,629.4946264,None,left,1,0.35635590000038064,629.4946264,None,None,628.2929407000001,629.4780889000003,0.5115741999998136,0.5950300000004063,1.7134377000002132,1.7967638999998599,,,,,nikita_2,001,2020_Feb_13_1319,posner,3.1.5,59.88791378081541,
-0.5,0,1,left,1,3,2,0,2,0,7,5,61,2,,,,,,,,,629.8787690999998,630.3789981,631.0967662000003,None,630.3960223000004,631.0801472000003,631.5975789000004,None,left,1,0.2453150999999707,631.5975789000004,None,None,630.3960223000004,631.5810442000002,0.5119718999994802,0.5954668999993373,1.7139932000000044,1.7973029999993742,,,,,nikita_2,001,2020_Feb_13_1319,posner,3.1.5,59.88791378081541,
0.5,180,1,right,2,4,2,0,2,0,7,6,62,5,,,,,,,,,631.8652260999997,632.3654779999997,633.0828391000005,None,632.3820326000005,633.0664495000001,633.5834973999999,None,right,1,0.26755059999959485,633.5834973999999,None,None,632.3820326000005,633.5668658000004,0.5115507999998954,0.5946876999996675,1.712919100000363,1.796203200000491,,,,,nikita_2,001,2020_Feb_13_1319,posner,3.1.5,59.88791378081541,
-0.5,0,1,left,1,3,2,0,2,0,7,7,63,1,,,,,,,,,633.8678111999998,634.3677888000002,635.0856050000002,None,634.3848024999998,635.0689222999999,635.5864893999997,None,left,1,0.304394400000092,635.5864893999997,None,None,634.3848024999998,635.5695690000002,0.5117112999996607,0.5958022999993773,1.7134741999998369,1.797071999999389,,,,,nikita_2,001,2020_Feb_13_1319,posner,3.1.5,59.88791378081541,
0.5,180,1,right,2,4,2,0,2,0,8,0,64,7,,,,,,,,,635.9204198999996,636.4206936999999,637.1383513999999,None,636.4373138000001,637.1217107000002,637.6391317999996,None,right,1,0.2998521999998047,637.6391317999996,None,None,636.4373138000001,637.6223799999998,0.5115644000006796,0.5950745000000097,1.7132311000004847,1.7969302000001335,,,,,nikita_2,001,2020_Feb_13_1319,posner,3.1.5,59.88791378081541,
-0.5,0,1,left,1,3,2,0,2,0,8,1,65,1,,,,,,,,,637.9571181000001,638.4569583000002,639.1746580999998,None,638.4737665000002,639.1579167,639.6751985999999,None,left,1,0.26377080000020214,639.6751985999999,None,None,638.4737665000002,639.6583616999997,0.5116008000004513,0.5948979000004329,1.7129859000006036,1.7966126999999688,,,,,nikita_2,001,2020_Feb_13_1319,posner,3.1.5,59.88791378081541,
-0.5,0,1,left,1,3,2,0,2,0,8,2,66,2,,,,,,,,,639.9601899999998,640.4598075000004,641.1774520999998,None,640.4764364000002,641.1607379999996,641.6779907,None,left,1,0.34910930000023654,641.6779907,None,None,640.4764364000002,641.6613354000001,0.5113957999992635,0.594662900000003,1.712908299999981,1.796451199999865,,,,,nikita_2,001,2020_Feb_13_1319,posner,3.1.5,59.88791378081541,
-0.5,0,1,left,1,3,2,0,2,0,8,3,67,0,,,,,,,,,642.0463308999997,642.5458852000002,643.2636093000001,None,642.5626828000004,643.2467915999996,643.7642444000003,None,left,1,0.3106931000002078,643.7642444000003,None,None,642.5626828000004,643.7475611,0.511288899999272,0.5946825999999419,1.7129383999999845,1.7965955999998187,,,,,nikita_2,001,2020_Feb_13_1319,posner,3.1.5,59.88791378081541,
0.5,180,1,right,2,4,2,0,2,0,8,4,68,6,,,,,,,,,644.0987674999997,644.5987127999997,645.3165847,None,644.6155228999996,645.2997799000004,645.8171373000005,None,right,1,0.31368360000033135,645.8171373000005,None,None,644.6155228999996,645.8002779999997,0.511720299999979,0.5952483999999458,1.7132517999998527,1.796727899999496,,,,,nikita_2,001,2020_Feb_13_1319,posner,3.1.5,59.88791378081541,
-0.5,180,0,left,2,3,2,0,2,0,8,5,69,4,,,,,,,,,646.1515827000003,646.6515276999999,647.3689562999998,None,646.6678758999997,647.3526984,647.8697669000003,None,left,1,0.3571056000000681,647.8697669000003,None,None,646.6678758999997,647.8531530999999,0.5115968000000066,0.5951340999999957,1.713198299999931,1.7966940999995131,,,,,nikita_2,001,2020_Feb_13_1319,posner,3.1.5,59.88791378081541,
0.5,0,0,right,1,4,2,0,2,0,8,6,70,3,,,,,,,,,648.2542903000003,648.7545155999996,649.4721726999996,None,648.7710354999999,649.4552622000001,649.9726502000003,None,right,1,0.46246289999999135,649.9726502000003,None,None,648.7710354999999,649.9561824000002,0.5117976000001363,0.5951218000000154,1.7134486000004472,1.7965917999999874,,,,,nikita_2,001,2020_Feb_13_1319,posner,3.1.5,59.88791378081541,
0.5,180,1,right,2,4,2,0,2,0,8,7,71,5,,,,,,,,,650.4576477999999,650.9573344,651.6750191000001,None,650.9741387000004,651.6582758000004,652.1758188000003,650.4576477999999,right,1,0.3232021000003442,652.1758188000003,None,None,650.9741387000004,652.1589862000001,0.5114398000005167,0.5951719000004232,1.7130784999999378,1.796684400000231,,,,,nikita_2,001,2020_Feb_13_1319,posner,3.1.5,59.88791378081541,
0.5,180,1,right,2,4,2,0,2,0,9,0,72,6,,,,,,,,,652.5269508000001,653.0270575000004,653.7447283000001,None,653.0436595000001,653.7280496000003,654.2452264000003,None,right,1,0.3336904999996477,654.2452264000003,None,None,653.0436595000001,654.2285180999997,0.5116505000005418,0.5949114000004556,1.713089900000341,1.7965538000007655,,,,,nikita_2,001,2020_Feb_13_1319,posner,3.1.5,59.88791378081541,
