targetX,cueOri,congr,corrAns,pin_cue,pin_target,block.thisRepN,block.thisTrialN,block.thisN,block.thisIndex,posner_task.thisRepN,posner_task.thisTrialN,posner_task.thisN,posner_task.thisIndex,port_start_block.started,port_start_block.stopped,text_2.started,text_2.stopped,p_port.started,p_port.stopped,text.started,text.stopped,fixation_1.started,fixation_1.stopped,fixation_2.started,fixation_2.stopped,cue.started,cue.stopped,target.started,target.stopped,correct_key_resp.keys,correct_key_resp.corr,correct_key_resp.rt,correct_key_resp.started,correct_key_resp.stopped,early_resp.keys,early_resp.started,early_resp.stopped,trigger_cue.started,trigger_cue.stopped,trigger_target.started,trigger_target.stopped,break_text.started,break_text.stopped,end_port.started,end_port.stopped,participant,session,date,expName,psychopyVersion,frameRate,
0.5,180,1,right,2,4,0,0,0,0,0,0,0,5,1.8100001398124732e-05,0.09386710000035237,15.27287570000044,None,1.3099999705445953e-05,0.09950119999848539,17.158514200000354,None,17.50437140000031,18.009907800000292,18.72746030000053,None,18.02653250000003,18.71079220000138,19.228330699999788,None,right,1,0.322123100000681,19.228330699999788,None,None,18.02653250000003,19.211240100001305,0.5151108000009117,0.5983474000004207,1.716446200000064,1.799949899999774,,,,,faizah_3,001,2020_Jan_10_1424,posner,3.1.5,59.93601231378876,
-0.5,0,1,left,1,3,0,0,0,0,0,1,1,0,,,,,,,,,19.579544400001396,20.079069400000662,20.796992800000226,None,20.095784500001173,20.780172000000675,21.297766200001206,None,left,1,0.3166235000007873,21.297766200001206,None,None,20.095784500001173,21.281037700000525,0.510702499999752,0.5943466000007902,1.7126544999991893,1.7959475999996357,,,,,faizah_3,001,2020_Jan_10_1424,posner,3.1.5,59.93601231378876,
-0.5,0,1,left,1,3,0,0,0,0,0,2,2,1,,,,,,,,,21.632353400000284,22.132056399999783,22.85010560000046,None,22.14907850000054,22.833067100000335,23.350562600000558,None,left,1,0.3278492000008555,23.350562600000558,None,None,22.14907850000054,23.333596800001033,0.5114534999993339,0.5949509000001854,1.7129822999995667,1.7967044999986683,,,,,faizah_3,001,2020_Jan_10_1424,posner,3.1.5,59.93601231378876,
0.5,180,1,right,2,4,0,0,0,0,0,3,3,6,,,,,,,,,23.701369899999918,24.201668900001096,24.91936910000004,None,24.218454800000472,24.90270960000089,25.420040799999697,None,right,1,0.2903569999998581,25.420040799999697,None,None,24.218454800000472,25.403225100000782,0.5121294999989914,0.5953838999994332,1.7136656000002404,1.7972886999996263,,,,,faizah_3,001,2020_Jan_10_1424,posner,3.1.5,59.93601231378876,
-0.5,180,0,left,2,3,0,0,0,0,0,4,4,4,,,,,,,,,25.738205700001345,26.237914600000295,26.955393400001412,None,26.25448140000117,26.93883580000147,27.45631140000114,None,left,1,0.36597919999985606,27.45631140000114,None,None,26.25448140000117,27.439493500000026,0.5115535999993881,0.5949827999993431,1.7131168999985675,1.7964766999994026,,,,,faizah_3,001,2020_Jan_10_1424,posner,3.1.5,59.93601231378876,
-0.5,0,1,left,1,3,0,0,0,0,0,5,5,2,,,,,,,,,27.840972500000134,28.340803099999903,29.05826110000089,None,28.357577400000082,29.04174200000125,29.559185300000536,None,left,1,0.27106629999980214,29.559185300000536,None,None,28.357577400000082,29.542159900000115,0.5117522000000463,0.5949722999994265,1.713097399999242,1.7971016999999847,,,,,faizah_3,001,2020_Jan_10_1424,posner,3.1.5,59.93601231378876,
0.5,0,0,right,1,4,0,0,0,0,0,6,6,3,,,,,,,,,29.85991600000125,30.360357600000498,31.07780290000119,None,30.3767699,31.061212700000397,31.57857630000035,None,right,1,0.35582199999953446,31.57857630000035,None,None,30.3767699,31.561949099999765,0.5119926999996096,0.595056599999225,1.7135686999990867,1.796825199999148,,,,,faizah_3,001,2020_Jan_10_1424,posner,3.1.5,59.93601231378876,
0.5,180,1,right,2,4,0,0,0,0,0,7,7,7,,,,,,,,,31.962866900001245,32.46286820000023,33.18062490000011,None,32.47969400000147,33.163816100000986,33.68134420000024,None,right,1,0.460959100000764,33.68134420000024,None,None,32.47969400000147,33.66457380000065,0.5117961000014475,0.5955783000008523,1.7134796999998798,1.7971629000003304,,,,,faizah_3,001,2020_Jan_10_1424,posner,3.1.5,59.93601231378876,
0.5,180,1,right,2,4,0,0,0,0,1,0,8,5,,,,,,,,,34.166598499999964,34.66609000000062,35.38351680000051,None,34.682581500001106,35.367120000000796,35.88442180000129,34.166598499999964,right,1,0.35380330000043614,35.88442180000129,None,None,34.682581500001106,35.86783699999978,0.511606899999606,0.594801399998687,1.713154699998995,1.7964873999990232,,,,,faizah_3,001,2020_Jan_10_1424,posner,3.1.5,59.93601231378876,
-0.5,0,1,left,1,3,0,0,0,0,1,1,9,2,,,,,,,,,36.26877410000088,36.76913140000033,37.48649459999979,None,36.78569770000104,37.46989660000145,37.98735660000057,None,left,1,0.2990375999997923,37.98735660000057,None,None,36.78569770000104,37.97067950000019,0.5117738000008103,0.5949893000015436,1.7133069999999861,1.7968098000001191,,,,,faizah_3,001,2020_Jan_10_1424,posner,3.1.5,59.93601231378876,
0.5,180,1,right,2,4,0,0,0,0,1,2,10,7,,,,,,,,,38.30548920000001,38.80502230000093,39.52249970000048,None,38.82178139999996,39.50601319999987,40.023271100000784,None,right,1,0.2629034000001411,40.023271100000784,None,None,38.82178139999996,40.00690039999972,0.5115358000002743,0.5950111000001925,1.7133630999996967,1.7966646000004403,,,,,faizah_3,001,2020_Jan_10_1424,posner,3.1.5,59.93601231378876,
0.5,0,0,right,1,4,0,0,0,0,1,3,11,3,,,,,,,,,40.308278900000005,40.80779299999995,41.52544660000058,None,40.82441579999977,41.50870560000112,42.02633120000064,None,right,1,0.38005689999954484,42.02633120000064,None,None,40.82441579999977,42.0095921000011,0.5112797999991017,0.5948284000005515,1.7130643000000418,1.7962592000003497,,,,,faizah_3,001,2020_Jan_10_1424,posner,3.1.5,59.93601231378876,
-0.5,180,0,left,2,3,0,0,0,0,1,4,12,4,,,,,,,,,42.42809050000142,42.92750580000029,43.64499360000082,None,42.94403229999989,43.628375100000994,44.14576500000112,None,left,1,0.29246239999883983,44.14576500000112,None,None,42.94403229999989,44.12914880000062,0.5114659999999276,0.5948967000003904,1.713092300000426,1.7964026000008744,,,,,faizah_3,001,2020_Jan_10_1424,posner,3.1.5,59.93601231378876,
-0.5,0,1,left,1,3,0,0,0,0,1,5,13,0,,,,,,,,,44.463043700001435,44.963469400001486,45.68124440000065,None,44.980450300001394,45.664419000000635,46.18194250000124,None,left,1,0.36824800000067626,46.18194250000124,None,None,44.980450300001394,46.165136900001016,0.5122812000008707,0.5957567999994353,1.713934800000061,1.797506599999906,,,,,faizah_3,001,2020_Jan_10_1424,posner,3.1.5,59.93601231378876,
-0.5,0,1,left,1,3,0,0,0,0,1,6,14,1,,,,,,,,,46.56655470000078,47.066414500000974,47.784130500000174,None,47.08289820000027,47.767343999999866,48.28485809999984,None,left,1,0.2575185000005149,48.28485809999984,None,None,47.08289820000027,48.26810480000131,0.5117440000012721,0.5953315000006114,1.7134091000007174,1.796893300001102,,,,,faizah_3,001,2020_Jan_10_1424,posner,3.1.5,59.93601231378876,
0.5,180,1,right,2,4,0,0,0,0,1,7,15,6,,,,,,,,,48.568830199999866,49.069242000001395,49.787078200000906,None,49.08606610000061,49.770122699999774,50.28764840000076,None,right,1,0.2704895000006218,50.28764840000076,None,None,49.08606610000061,50.27091389999987,0.5122162999996362,0.595433000000412,1.7138651000004756,1.7970874000002368,,,,,faizah_3,001,2020_Jan_10_1424,posner,3.1.5,59.93601231378876,
0.5,0,0,right,1,4,0,0,0,0,2,0,16,3,,,,,,,,,50.588681799999904,51.08868970000003,51.80639599999995,None,51.10543310000139,51.78977280000072,52.307006200000615,None,right,1,0.3232004000001325,52.307006200000615,None,None,51.10543310000139,52.2904821000011,0.5116606000010506,0.5950377999997727,1.7134280000009312,1.7966914999997243,,,,,faizah_3,001,2020_Jan_10_1424,posner,3.1.5,59.93601231378876,
0.5,180,1,right,2,4,0,0,0,0,2,1,17,6,,,,,,,,,52.6584952000012,53.1580670000003,53.8760596000011,None,53.174773800001276,53.859233700000914,54.37666700000045,None,right,1,0.26166960000045947,54.37666700000045,None,None,53.174773800001276,54.359951600001295,0.5112881000004563,0.5948351999995793,1.7131546000000526,1.7963593999993464,,,,,faizah_3,001,2020_Jan_10_1424,posner,3.1.5,59.93601231378876,
-0.5,0,1,left,1,3,0,0,0,0,2,2,18,0,,,,,,,,,54.66095940000014,55.16117590000067,55.87860040000123,None,55.17775799999981,55.86172670000087,56.37950460000138,None,left,1,0.28274299999975483,56.37950460000138,None,None,55.17775799999981,56.362464400001045,0.5119516999984626,0.5951571999994485,1.7132275999992999,1.7969823999992514,,,,,faizah_3,001,2020_Jan_10_1424,posner,3.1.5,59.93601231378876,
-0.5,0,1,left,1,3,0,0,0,0,2,3,19,1,,,,,,,,,56.680044000000635,57.180356500000926,57.898242299999765,None,57.19704470000033,57.88123960000121,58.39895980000074,None,left,1,0.34327010000015434,58.39895980000074,None,None,57.19704470000033,58.38206590000118,0.5122272000007797,0.5956612000009045,1.7139213000009477,1.7972712999999203,,,,,faizah_3,001,2020_Jan_10_1424,posner,3.1.5,59.93601231378876,
-0.5,180,0,left,2,3,0,0,0,0,2,4,20,4,,,,,,,,,58.767119600001024,59.266773600000306,59.98403470000085,None,59.283187400000315,59.96746499999972,60.48484749999989,None,right,0,0.16137370000069495,60.48484749999989,None,None,59.283187400000315,60.46829109999999,0.5118047000014485,0.5951757000002544,1.7132987000004505,1.7966539999997622,,,,,faizah_3,001,2020_Jan_10_1424,posner,3.1.5,59.93601231378876,
0.5,180,1,right,2,4,0,0,0,0,2,5,21,7,,,,,,,,,60.66925000000083,61.169271100001424,61.8869121000007,None,61.185884700000315,61.87016180000137,62.387584300000526,None,right,1,0.35452709999844956,62.387584300000526,None,None,61.185884700000315,62.37102220000088,0.5115531999999803,0.5948171000000002,1.7132891999990534,1.796520399999281,,,,,faizah_3,001,2020_Jan_10_1424,posner,3.1.5,59.93601231378876,
-0.5,0,1,left,1,3,0,0,0,0,2,6,22,2,,,,,,,,,62.77173450000009,63.272070600000006,63.989719299999706,None,63.288820400000986,63.97301780000089,64.49053000000094,None,left,1,0.2837058999994042,64.49053000000094,None,None,63.288820400000986,64.47363399999995,0.5117628999996668,0.5951779000006354,1.713310500001171,1.7967914000000746,,,,,faizah_3,001,2020_Jan_10_1424,posner,3.1.5,59.93601231378876,
0.5,180,1,right,2,4,0,0,0,0,2,7,23,5,,,,,,,,,64.7915008,65.29154089999975,66.00923160000093,None,65.30812390000028,65.99275289999969,66.50990790000105,None,right,1,0.28033119999963674,66.50990790000105,None,None,65.30812390000028,66.4930701000012,0.5118387000002258,0.5951695999992808,1.713355899999442,1.7969286999996257,,,,,faizah_3,001,2020_Jan_10_1424,posner,3.1.5,59.93601231378876,
-0.5,0,1,left,1,3,0,0,0,0,3,0,24,0,,,,,,,,,66.81128400000125,67.3110912000011,68.0285942999999,None,67.32751420000022,68.0119921000005,68.5294300000005,None,left,1,0.2768802999999025,68.5294300000005,None,None,67.32751420000022,68.51260360000015,0.5116485000016837,0.5949233999999706,1.7131449000007706,1.7965586000009353,,,,,faizah_3,001,2020_Jan_10_1424,posner,3.1.5,59.93601231378876,
0.5,180,1,right,2,4,0,0,0,0,3,1,25,6,,,,,,,,,68.83080549999977,69.33045710000079,70.04825210000126,None,69.34763420000127,70.03127430000131,70.54890530000011,None,right,1,0.2573849999989761,70.54890530000011,None,None,69.34763420000127,70.53206590000082,0.5116570999998657,0.5949897000009514,1.7132436000010784,1.7966503000006924,,,,,faizah_3,001,2020_Jan_10_1424,posner,3.1.5,59.93601231378876,
-0.5,0,1,left,1,3,0,0,0,0,3,2,26,2,,,,,,,,,70.83297670000138,71.33312370000021,72.05101840000134,None,71.35005040000033,72.03391069999998,72.55153849999988,None,left,1,0.27870699999948556,72.55153849999988,None,None,71.35005040000033,72.53475200000139,0.5119927000014286,0.5954386000012164,1.7136077000013756,1.797198500000377,,,,,faizah_3,001,2020_Jan_10_1424,posner,3.1.5,59.93601231378876,
0.5,180,1,right,2,4,0,0,0,0,3,3,27,5,,,,,,,,,72.853150500001,73.35261570000148,74.07039670000086,None,73.36939250000069,74.05351669999982,74.5710111999997,None,right,1,0.2910788999997749,74.5710111999997,None,None,73.36939250000069,74.55409310000141,0.5115986000000703,0.5950176999995165,1.7130563000009715,1.7966993000009097,,,,,faizah_3,001,2020_Jan_10_1424,posner,3.1.5,59.93601231378876,
0.5,180,1,right,2,4,0,0,0,0,3,4,28,7,,,,,,,,,74.88877289999982,75.38887849999992,76.10648850000143,None,75.40532650000023,76.08987060000072,76.60717590000058,None,right,1,0.31887779999851773,76.60717590000058,None,None,75.40532650000023,76.59047360000113,0.5116908999989391,0.5949194000004354,1.7132745999988401,1.7965824999992037,,,,,faizah_3,001,2020_Jan_10_1424,posner,3.1.5,59.93601231378876,
-0.5,180,0,left,2,3,0,0,0,0,3,5,29,4,,,,,,,,,76.95835100000113,77.45832330000121,78.17613859999983,None,77.47490050000124,78.15924290000112,78.67658800000027,None,left,1,0.297629999999117,78.67658800000027,None,None,77.47490050000124,78.65994460000002,0.511427299999923,0.5948635999993712,1.7130238999998255,1.7962757000004785,,,,,faizah_3,001,2020_Jan_10_1424,posner,3.1.5,59.93601231378876,
-0.5,0,1,left,1,3,0,0,0,0,3,6,30,1,,,,,,,,,78.99404789999971,79.49435280000034,80.21213700000044,None,79.51116230000116,80.1952919000014,80.71266020000076,None,left,1,0.2774422999991657,80.71266020000076,None,None,79.51116230000116,80.69613159999972,0.5121539000010671,0.5955912999997963,1.7139100000003964,1.797439600000871,,,,,faizah_3,001,2020_Jan_10_1424,posner,3.1.5,59.93601231378876,
0.5,0,0,right,1,4,0,0,0,0,3,7,31,3,,,,,,,,,81.01327590000074,81.51369760000125,82.23141940000096,None,81.53047909999987,82.21467920000032,82.73217440000008,83.2161130000004,right,1,0.6098880000008648,82.73217440000008,None,None,81.53047909999987,82.71573619999981,0.5116305999999895,0.5952745000013238,1.7136508000003232,1.7970018000014534,,,,,faizah_3,001,2020_Jan_10_1424,posner,3.1.5,59.93601231378876,
-0.5,0,1,left,1,3,0,0,0,0,4,0,32,2,,,,,,,,,83.36750860000029,83.8671329000008,84.58479799999986,None,83.88352579999992,84.56794930000069,85.08542850000049,None,left,1,0.27284189999954833,85.08542850000049,None,None,83.88352579999992,85.0687238999999,0.5116319999997359,0.5953081999996357,1.7132067999991705,1.7965404000005947,,,,,faizah_3,001,2020_Jan_10_1424,posner,3.1.5,59.93601231378876,
0.5,180,1,right,2,4,0,0,0,0,4,1,33,7,,,,,,,,,85.38635570000042,85.88648290000128,86.60407219999979,None,85.90338549999979,86.58760919999986,87.10467489999974,None,right,1,0.237424099999771,87.10467489999974,None,None,85.90338549999979,87.0881900000004,0.5122518000007403,0.5958368999999948,1.7139365000002726,1.7973254000007728,,,,,faizah_3,001,2020_Jan_10_1424,posner,3.1.5,59.93601231378876,
0.5,0,0,right,1,4,0,0,0,0,4,2,34,3,,,,,,,,,87.37240639999982,87.87247110000135,88.59043689999999,None,87.8892880000003,88.57344940000075,89.09088930000144,None,right,1,0.39530290000038804,89.09088930000144,None,None,87.8892880000003,89.07410230000096,0.5116017999989708,0.5952584999995452,1.713218400000187,1.7969362999992882,,,,,faizah_3,001,2020_Jan_10_1424,posner,3.1.5,59.93601231378876,
0.5,180,1,right,2,4,0,0,0,0,4,3,35,5,,,,,,,,,89.50924490000034,90.00893450000149,90.72688320000088,None,90.02540300000146,90.70986830000038,91.2273935000012,None,right,1,0.3625381000001653,91.2273935000012,None,None,90.02540300000146,91.21063570000115,0.5115921000015078,0.5949006999999256,1.713279000001421,1.7965887000009388,,,,,faizah_3,001,2020_Jan_10_1424,posner,3.1.5,59.93601231378876,
0.5,180,1,right,2,4,0,0,0,0,4,4,36,6,,,,,,,,,91.61197309999989,92.11195520000001,92.829396000001,None,92.1284968,92.81260020000082,93.33009219999985,None,right,1,0.31607029999941005,93.33009219999985,None,None,92.1284968,93.31339280000066,0.5118272999989131,0.5950013999990915,1.7132537999987107,1.7968235999996978,,,,,faizah_3,001,2020_Jan_10_1424,posner,3.1.5,59.93601231378876,
-0.5,180,0,left,2,3,0,0,0,0,4,5,37,4,,,,,,,,,93.66506120000122,94.16439520000131,94.88228499999968,None,94.18127920000006,94.86548130000119,95.38280889999987,None,left,1,0.31922169999961625,95.38280889999987,None,None,94.18127920000006,95.36618920000001,0.511328799999319,0.5951396000000386,1.7131114000003436,1.796792799999821,,,,,faizah_3,001,2020_Jan_10_1424,posner,3.1.5,59.93601231378876,
-0.5,0,1,left,1,3,0,0,0,0,4,6,38,0,,,,,,,,,95.71785180000006,96.21739270000035,96.93499590000101,None,96.23400410000067,96.91840650000086,97.43587900000057,None,left,1,0.4262860999988334,97.43587900000057,None,None,96.23400410000067,97.41916330000095,0.5114121999995405,0.5951272999991488,1.7131671999995888,1.796416200000749,,,,,faizah_3,001,2020_Jan_10_1424,posner,3.1.5,59.93601231378876,
-0.5,0,1,left,1,3,0,0,0,0,4,7,39,1,,,,,,,,,97.88717700000052,98.38708060000135,99.10458769999968,None,98.40368620000118,99.08823149999989,99.60532489999969,None,left,1,0.4406373000001622,99.60532489999969,None,None,98.40368620000118,99.588596900001,0.5117199999986042,0.5952221999996254,1.713224999999511,1.7967069999995147,,,,,faizah_3,001,2020_Jan_10_1424,posner,3.1.5,59.93601231378876,
0.5,180,1,right,2,4,0,0,0,0,5,0,40,5,,,,,,,,,100.07273800000075,100.57323410000026,101.29100800000015,None,100.590036900001,101.27414959999987,101.7917268000001,None,right,1,0.29430130000037025,101.7917268000001,None,None,100.590036900001,101.7750044000004,0.5116476000002876,0.5954037999999855,1.7134115000008023,1.7969893999998021,,,,,faizah_3,001,2020_Jan_10_1424,posner,3.1.5,59.93601231378876,
-0.5,0,1,left,1,3,0,0,0,0,5,1,41,0,,,,,,,,,102.10964090000016,102.60947080000005,103.32728560000032,None,102.62637450000148,103.31060700000126,103.82785310000145,None,left,1,0.3063000000001921,103.82785310000145,None,None,102.62637450000148,103.81126880000011,0.5116748999989795,0.595062099999268,1.713452399999369,1.7967546999989281,,,,,faizah_3,001,2020_Jan_10_1424,posner,3.1.5,59.93601231378876,
0.5,180,1,right,2,4,0,0,0,0,5,2,42,6,,,,,,,,,104.1626355999997,104.66239219999989,105.38004770000043,None,104.67921560000104,105.3632976000008,105.88079010000001,None,right,1,0.2692059999990306,105.88079010000001,None,None,104.67921560000104,105.86406940000052,0.5116046000002825,0.5952636999991228,1.7132698000004893,1.796786200000497,,,,,faizah_3,001,2020_Jan_10_1424,posner,3.1.5,59.93601231378876,
-0.5,0,1,left,1,3,0,0,0,0,5,3,43,2,,,,,,,,,106.18153080000047,106.68177500000093,107.39952960000119,None,106.69859739999993,107.38263830000142,107.90026209999996,None,left,1,0.3217298999988998,107.90026209999996,None,None,106.69859739999993,107.88338660000045,0.5117548999987775,0.5952360999999655,1.7133541999992303,1.79698229999849,,,,,faizah_3,001,2020_Jan_10_1424,posner,3.1.5,59.93601231378876,
0.5,0,0,right,1,4,0,0,0,0,5,4,44,3,,,,,,,,,108.25078200000098,108.75129949999973,109.46942980000131,None,108.7681947000001,109.45242599999983,109.96977740000148,None,right,1,0.3242333000016515,109.96977740000148,None,None,108.7681947000001,109.95286459999988,0.5118781000001036,0.595211300000301,1.7134232000007614,1.7970485000005283,,,,,faizah_3,001,2020_Jan_10_1424,posner,3.1.5,59.93601231378876,
0.5,180,1,right,2,4,0,0,0,0,5,5,45,7,,,,,,,,,110.32111650000115,110.82089540000015,111.53857729999982,None,110.83774050000102,111.52178530000128,112.03926830000091,112.5230991999997,right,1,0.4708165000010922,112.03926830000091,None,None,110.83774050000102,112.02258790000087,0.5117079999999987,0.5948791000009805,1.7133862000009685,1.7967076000004454,,,,,faizah_3,001,2020_Jan_10_1424,posner,3.1.5,59.93601231378876,
-0.5,0,1,left,1,3,0,0,0,0,5,6,46,1,,,,,,,,,112.54057939999984,113.04076150000037,113.75830490000044,None,113.0574116000007,113.74159110000073,114.25900430000002,None,left,1,0.29088729999966745,114.25900430000002,None,None,113.0574116000007,114.24233850000019,0.5118800000000192,0.5950145999995584,1.7134446000000025,1.7966612000000168,,,,,faizah_3,001,2020_Jan_10_1424,posner,3.1.5,59.93601231378876,
-0.5,180,0,left,2,3,0,0,0,0,5,7,47,4,,,,,,,,,114.5768549000004,115.07677010000043,115.79421470000125,None,115.09322369999973,115.77754910000112,116.29503079999995,None,left,1,0.4150535000007949,116.29503079999995,None,None,115.09322369999973,116.27847000000111,0.5116660999992746,0.5951033999990614,1.7133544999996957,1.7968215999990207,,,,,faizah_3,001,2020_Jan_10_1424,posner,3.1.5,59.93601231378876,
0.5,0,0,right,1,4,0,0,0,0,6,0,48,3,,,,,,,,,116.73014909999984,117.22973740000089,117.94750890000068,None,117.24646220000068,117.93062230000032,118.4482934000007,None,right,1,0.37367900000026566,118.4482934000007,None,None,117.24646220000068,118.43136210000011,0.5111367000008613,0.5944838000013988,1.7127484000011464,1.795998800000234,,,,,faizah_3,001,2020_Jan_10_1424,posner,3.1.5,59.93601231378876,
-0.5,0,1,left,1,3,0,0,0,0,6,1,49,1,,,,,,,,,118.848989600001,119.34936010000092,120.06684400000086,None,119.36592420000125,120.05039360000046,120.56732400000146,None,left,1,0.31854399999974703,120.56732400000146,None,None,119.36592420000125,120.5504920000003,0.512246000000232,0.5954937999995309,1.7133647999999084,1.7973665999998047,,,,,faizah_3,001,2020_Jan_10_1424,posner,3.1.5,59.93601231378876,
0.5,180,1,right,2,4,0,0,0,0,6,2,50,7,,,,,,,,,120.9021102000006,121.40205310000056,122.11972489999971,None,121.41883290000078,122.1029221000008,122.6204241000014,None,right,1,0.27358600000115985,122.6204241000014,None,None,121.41883290000078,122.60361120000016,0.5117184999999154,0.5952225999990333,1.7132633999990503,1.7969226999994135,,,,,faizah_3,001,2020_Jan_10_1424,posner,3.1.5,59.93601231378876,
-0.5,180,0,left,2,3,0,0,0,0,6,3,51,4,,,,,,,,,122.92142940000122,123.4215707000003,124.13924300000144,None,123.43830320000052,124.12243370000033,124.63986010000008,None,left,1,0.3902385999990656,124.63986010000008,None,None,123.43830320000052,124.62312380000003,0.5118574999996781,0.5950701999990997,1.7133892000001651,1.796846799999912,,,,,faizah_3,001,2020_Jan_10_1424,posner,3.1.5,59.93601231378876,
0.5,180,1,right,2,4,0,0,0,0,6,4,52,5,,,,,,,,,125.05820880000101,125.55774440000096,126.27553799999987,None,125.57438210000146,126.25868679999985,126.77615800000058,None,right,1,0.29374559999996563,126.77615800000058,None,None,125.57438210000146,126.75944619999973,0.5113756999999168,0.594863099999202,1.7130666999983077,1.7966529999994236,,,,,faizah_3,001,2020_Jan_10_1424,posner,3.1.5,59.93601231378876,
-0.5,0,1,left,1,3,0,0,0,0,6,5,53,2,,,,,,,,,127.0942466000015,127.59376010000051,128.31159190000108,None,127.61070230000041,128.2949133000002,128.81216630000017,None,left,1,0.27394120000099065,128.81216630000017,None,None,127.61070230000041,128.7957423000007,0.5113214000011794,0.5951469999999972,1.713276100001167,1.7967719000007492,,,,,faizah_3,001,2020_Jan_10_1424,posner,3.1.5,59.93601231378876,
-0.5,0,1,left,1,3,0,0,0,0,6,6,54,0,,,,,,,,,129.11340380000001,129.61324390000118,130.3311388000002,None,129.63009910000073,130.3142501000002,130.83168730000034,None,left,1,0.35025320000022475,130.83168730000034,None,None,129.63009910000073,130.81489540000075,0.5114236999997956,0.5951234000003751,1.713056399999914,1.79686860000038,,,,,faizah_3,001,2020_Jan_10_1424,posner,3.1.5,59.93601231378876,
0.5,180,1,right,2,4,0,0,0,0,6,7,55,6,,,,,,,,,131.19985220000126,131.69966810000005,132.41730100000132,None,131.7162454999998,132.40067770000132,132.91802860000098,None,right,1,0.29579849999936414,132.91802860000098,None,None,131.7162454999998,132.90131290000136,0.5115853999996034,0.5948506999993697,1.7132139999994251,1.7966178999995464,,,,,faizah_3,001,2020_Jan_10_1424,posner,3.1.5,59.93601231378876,
-0.5,180,0,left,2,3,0,0,0,0,7,0,56,4,,,,,,,,,133.23602940000092,133.73576660000072,134.45354980000047,None,133.7523878000011,134.43673990000025,134.9540175000002,None,left,1,0.30787880000025325,134.9540175000002,None,None,133.7523878000011,134.93745110000054,0.5110989000004338,0.5945381000001362,1.7127604999986943,1.796260600000096,,,,,faizah_3,001,2020_Jan_10_1424,posner,3.1.5,59.93601231378876,
0.5,180,1,right,2,4,0,0,0,0,7,1,57,7,,,,,,,,,135.28867320000063,135.7885967000002,136.5062581000002,None,135.8050518,136.48946330000035,137.00693950000095,None,right,1,0.3349797999999282,137.00693950000095,None,None,135.8050518,136.99015970000073,0.5115499999992608,0.5947469999991881,1.7131011999990733,1.7964563999994425,,,,,faizah_3,001,2020_Jan_10_1424,posner,3.1.5,59.93601231378876,
-0.5,0,1,left,1,3,0,0,0,0,7,2,58,1,,,,,,,,,137.35823820000041,137.85824930000126,138.5757908000014,None,137.87464980000004,138.55899240000144,139.07643670000107,None,left,1,0.33744109999861394,139.07643670000107,None,None,137.87464980000004,139.0595873000002,0.511843799999042,0.5950427999996464,1.7131783999993786,1.796633899999506,,,,,faizah_3,001,2020_Jan_10_1424,posner,3.1.5,59.93601231378876,
-0.5,0,1,left,1,3,0,0,0,0,7,3,59,0,,,,,,,,,139.4441824000005,139.94419370000105,140.6619797000003,None,139.96104259999993,140.64523329999975,141.16248319999977,None,left,1,0.38743219999923895,141.16248319999977,None,None,139.96104259999993,141.1460416000009,0.5115760000007867,0.5951482000000397,1.7133983000003354,1.7969253999999637,,,,,faizah_3,001,2020_Jan_10_1424,posner,3.1.5,59.93601231378876,
0.5,180,1,right,2,4,0,0,0,0,7,4,60,5,,,,,,,,,141.58032420000018,142.08063030000085,142.79822760000025,None,142.09740890000103,142.7814694000008,143.29894860000059,None,right,1,0.2989713999995729,143.29894860000059,None,None,142.09740890000103,143.2822928000005,0.5118973999997252,0.5950405000003229,1.7135446000011143,1.796872599999915,,,,,faizah_3,001,2020_Jan_10_1424,posner,3.1.5,59.93601231378876,
-0.5,0,1,left,1,3,0,0,0,0,7,5,61,2,,,,,,,,,143.61715999999979,144.11680810000144,144.83426700000018,None,144.13324060000014,144.8177807000011,145.33491230000072,None,left,1,0.4309030000003986,145.33491230000072,None,None,144.13324060000014,145.3182609000014,0.5117202999990695,0.5950130000001081,1.7131598999985727,1.796671599999172,,,,,faizah_3,001,2020_Jan_10_1424,posner,3.1.5,59.93601231378876,
0.5,0,0,right,1,4,0,0,0,0,7,6,62,3,,,,,,,,,145.7871309000002,146.28633770000124,147.0038784999997,None,146.3028348000007,146.98716400000012,147.50456330000088,None,right,1,0.29339339999933145,147.50456330000088,None,None,146.3028348000007,147.48804510000082,0.5113529999998718,0.5948454999997921,1.7130352000003768,1.7963791000001947,,,,,faizah_3,001,2020_Jan_10_1424,posner,3.1.5,59.93601231378876,
0.5,180,1,right,2,4,0,0,0,0,7,7,63,6,,,,,,,,,147.8224463000006,148.32252479999988,149.0401739000008,None,148.33904150000126,149.02333520000138,149.5408520000001,None,right,1,0.3049785000002885,149.5408520000001,None,None,148.33904150000126,149.5240328,0.5118972000000213,0.5952076000012312,1.7133899000000383,1.7969183000004705,,,,,faizah_3,001,2020_Jan_10_1424,posner,3.1.5,59.93601231378876,
0.5,180,1,right,2,4,0,0,0,0,8,0,64,7,,,,,,,,,149.8752882000008,150.37565689999974,151.09276470000077,None,150.39200020000135,151.0761760000005,151.59351570000035,152.07768130000113,right,1,0.5882841000002372,151.59351570000035,None,None,150.39200020000135,151.57686939999985,0.5120253000004595,0.59513220000008,1.713222099999257,1.7967965000007098,,,,,faizah_3,001,2020_Jan_10_1424,posner,3.1.5,59.93601231378876,
-0.5,0,1,left,1,3,0,0,0,0,8,1,65,2,,,,,,,,,152.21158939999987,152.71189010000126,153.4294340000015,None,152.72849830000087,153.41270690000056,153.9301157000009,None,left,1,0.28379800000038813,153.9301157000009,None,None,152.72849830000087,153.91338300000098,0.5118133000014495,0.5950601000004099,1.71329440000045,1.7968670999998722,,,,,faizah_3,001,2020_Jan_10_1424,posner,3.1.5,59.93601231378876,
-0.5,0,1,left,1,3,0,0,0,0,8,2,66,0,,,,,,,,,154.23102830000062,154.7313907000007,155.4489211,None,154.74814239999978,155.43234790000133,155.94964040000013,None,left,1,0.41634650000014517,155.94964040000013,None,None,154.74814239999978,155.93280980000054,0.5119588999987172,0.5951153999994858,1.7133718999994016,1.7969665999989957,,,,,faizah_3,001,2020_Jan_10_1424,posner,3.1.5,59.93601231378876,
-0.5,0,1,left,1,3,0,0,0,0,8,3,67,1,,,,,,,,,156.38456150000093,156.8842323000008,157.60207150000133,None,156.90101210000103,157.585095800001,158.10252010000113,None,left,1,0.39931539999997767,158.10252010000113,None,None,156.90101210000103,158.08593360000123,0.5113622000008036,0.5946917000001122,1.7130450000004203,1.7964225000014267,,,,,faizah_3,001,2020_Jan_10_1424,posner,3.1.5,59.93601231378876,
0.5,180,1,right,2,4,0,0,0,0,8,4,68,6,,,,,,,,,158.52056410000114,159.02072530000078,159.73831880000034,None,159.03727320000144,159.72152580000147,160.2389045,None,right,1,0.2389987000005931,160.2389045,None,None,159.03727320000144,160.22213460000057,0.5120135999986815,0.5950570999993943,1.7133978000001662,1.7969271000001754,,,,,faizah_3,001,2020_Jan_10_1424,posner,3.1.5,59.93601231378876,
-0.5,180,0,left,2,3,0,0,0,0,8,5,69,4,,,,,,,,,160.50685630000044,161.0067405000009,161.72418310000103,None,161.02310110000144,161.70766120000008,162.2247806000014,None,left,1,0.29302800000004936,162.2247806000014,None,None,161.02310110000144,162.20832580000024,0.5117150000005495,0.5950250000005326,1.7132871000012528,1.7967175000012503,,,,,faizah_3,001,2020_Jan_10_1424,posner,3.1.5,59.93601231378876,
0.5,0,0,right,1,4,0,0,0,0,8,6,70,3,,,,,,,,,162.54317400000036,163.04256069999974,163.76054960000147,None,163.0594775999998,163.7436034000002,164.2608863000005,None,right,1,0.3369449000001623,164.2608863000005,None,None,163.0594775999998,164.24426310000126,0.511214199999813,0.5948329000002559,1.7128969000004872,1.79643600000054,,,,,faizah_3,001,2020_Jan_10_1424,posner,3.1.5,59.93601231378876,
0.5,180,1,right,2,4,0,0,0,0,8,7,71,5,,,,,,,,,164.6286798000001,165.12890220000008,165.8469681000006,None,165.1457687000002,165.82990160000008,166.34768729999996,None,right,1,0.22613930000079563,166.34768729999996,None,None,165.1457687000002,166.3304688999997,0.5119187000000238,0.5953233999989607,1.7134626999995817,1.7968404999992345,,,,,faizah_3,001,2020_Jan_10_1424,posner,3.1.5,59.93601231378876,
-0.5,0,1,left,1,3,0,0,0,0,9,0,72,2,,,,,,,,,166.5984779999999,167.09838160000072,167.81599020000067,None,167.11479789999976,167.7994135000008,168.3166154999999,None,left,1,0.3454442000002018,168.3166154999999,None,None,167.11479789999976,168.30003880000004,0.5118184999992081,0.5951801999999589,1.7134602999994968,1.796700700000656,,,,,faizah_3,001,2020_Jan_10_1424,posner,3.1.5,59.93601231378876,
0.5,180,1,right,2,4,0,0,0,0,9,1,73,7,,,,,,,,,168.6848342000012,169.18443339999976,169.90217459999985,None,169.20119309999973,169.88543449999997,170.40281610000056,None,right,1,0.25901019999946584,170.40281610000056,None,None,169.20119309999973,170.38605840000128,0.5114342999986548,0.594789499999024,1.7130368999987695,1.796615199998996,,,,,faizah_3,001,2020_Jan_10_1424,posner,3.1.5,59.93601231378876,
-0.5,180,0,left,2,3,0,0,0,0,9,2,74,4,,,,,,,,,170.68759390000014,171.187356800001,171.90469250000024,None,171.20395110000027,171.8881962000014,172.4055100000005,None,left,1,0.3042316999999457,172.4055100000005,None,None,171.20395110000027,172.38912730000084,0.5115994000007049,0.5950135999992199,1.7133534999993572,1.7965115000006335,,,,,faizah_3,001,2020_Jan_10_1424,posner,3.1.5,59.93601231378876,
0.5,0,0,right,1,4,0,0,0,0,9,3,75,3,,,,,,,,,172.7399060000007,173.24003319999974,173.95790769999985,None,173.25683720000052,173.9411908000002,174.45838970000113,None,right,1,0.3873199999998178,174.45838970000113,None,None,173.25683720000052,174.44173440000122,0.5117033999995328,0.5950351000010414,1.7133821999996144,1.7966582999997627,,,,,faizah_3,001,2020_Jan_10_1424,posner,3.1.5,59.93601231378876,
0.5,180,1,right,2,4,0,0,0,0,9,4,76,5,,,,,,,,,174.87569880000046,175.37632290000147,176.09387200000128,None,175.39281380000102,176.07733449999978,176.59467790000053,None,right,1,0.2991610999997647,176.59467790000053,None,None,175.39281380000102,176.57828880000125,0.51167279999936,0.5950969999994413,1.7136510000000271,1.7967565999988437,,,,,faizah_3,001,2020_Jan_10_1424,posner,3.1.5,59.93601231378876,
-0.5,0,1,left,1,3,0,0,0,0,9,5,77,1,,,,,,,,,176.9117681000007,177.41232480000144,178.13027570000122,None,177.42928270000084,178.1133576000011,178.6309497000002,None,left,1,0.37476800000149524,178.6309497000002,None,None,177.42928270000084,178.61418109999977,0.5121767000000546,0.5959627000011096,1.7140156000004936,1.7975071000000753,,,,,faizah_3,001,2020_Jan_10_1424,posner,3.1.5,59.93601231378876,
-0.5,0,1,left,1,3,0,0,0,0,9,6,78,0,,,,,,,,,179.03219770000032,179.5318944999999,180.24971060000098,None,179.54890850000083,180.23303529999976,180.7505368000002,None,left,1,0.26319300000068324,180.7505368000002,None,None,179.54890850000083,180.73373360000005,0.5114501999996719,0.5949565999999322,1.713265999998839,1.796517999999196,,,,,faizah_3,001,2020_Jan_10_1424,posner,3.1.5,59.93601231378876,
0.5,180,1,right,2,4,0,0,0,0,9,7,79,6,,,,,,,,,181.03397980000045,181.53484190000017,182.2523785000012,None,181.55162060000112,182.23572849999982,182.75312160000067,None,right,1,0.23663119999946503,182.75312160000067,None,None,181.55162060000112,182.73654859999988,0.512293599998884,0.5957331999998132,1.7139811999986705,1.7974587999997311,,,,,faizah_3,001,2020_Jan_10_1424,posner,3.1.5,59.93601231378876,
0.5,0,0,right,1,4,0,0,0,0,10,0,80,3,,,,,,,,,183.0206691000003,183.52095050000025,184.23858380000092,None,183.5375681000005,184.22187640000084,184.73935450000135,None,right,1,0.3542629000003217,184.73935450000135,None,None,183.5375681000005,184.7225221000008,0.5118641999997635,0.5952326000005996,1.7134225000008882,1.7968416000003344,,,,,faizah_3,001,2020_Jan_10_1424,posner,3.1.5,59.93601231378876,
0.5,180,1,right,2,4,0,0,0,0,10,1,81,6,,,,,,,,,185.1235542000013,185.62364800000068,186.34146110000074,None,185.64059319999978,186.32469289999972,186.84207770000103,None,right,1,0.2916826000000583,186.84207770000103,None,None,185.64059319999978,186.82553440000083,0.511646799999653,0.5953103000010742,1.7135075999995024,1.7967217000004894,,,,,faizah_3,001,2020_Jan_10_1424,posner,3.1.5,59.93601231378876,
0.5,180,1,right,2,4,0,0,0,0,10,2,82,5,,,,,,,,,187.1599696000012,187.65989360000094,188.37765130000116,None,187.67670220000036,188.36095990000103,188.8781912000013,None,right,1,0.2955569999994623,188.8781912000013,None,None,187.67670220000036,188.86155620000136,0.5116268000001583,0.5950087000001076,1.7132753000005323,1.7967724000009184,,,,,faizah_3,001,2020_Jan_10_1424,posner,3.1.5,59.93601231378876,
-0.5,0,1,left,1,3,0,0,0,0,10,3,83,2,,,,,,,,,189.1953795999998,189.695975300001,190.41369140000097,None,189.7126487000005,190.39703720000034,190.91438949999974,None,left,1,0.2593782000003557,190.91438949999974,None,None,189.7126487000005,190.89775759999975,0.5113402000006317,0.5948920000009821,1.7130997000003845,1.796475700000883,,,,,faizah_3,001,2020_Jan_10_1424,posner,3.1.5,59.93601231378876,
-0.5,180,0,left,2,3,0,0,0,0,10,4,84,4,,,,,,,,,191.1988261000006,191.69883760000084,192.4164378000005,None,191.7154929999997,192.39974320000147,192.917107700001,None,right,0,0.22463319999951636,192.917107700001,None,None,191.7154929999997,192.90064770000026,0.5117260000006354,0.5952428000000509,1.7135144999992917,1.7967179999996006,,,,,faizah_3,001,2020_Jan_10_1424,posner,3.1.5,59.93601231378876,
0.5,180,1,right,2,4,0,0,0,0,10,5,85,7,,,,,,,,,193.16861470000003,193.66821150000033,194.38582450000104,None,193.6848888000004,194.36909670000023,194.88665890000084,None,right,1,0.42321020000053977,194.88665890000084,None,None,193.6848888000004,194.8699128999997,0.5113793000000442,0.5949990999997681,1.7130651000006765,1.7964097000003676,,,,,faizah_3,001,2020_Jan_10_1424,posner,3.1.5,59.93601231378876,
-0.5,0,1,left,1,3,0,0,0,0,10,6,86,0,,,,,,,,,195.33793370000058,195.8378960000009,196.55562670000108,None,195.85445710000022,196.5391550000004,197.0564185000003,None,left,1,0.2693118000006507,197.0564185000003,None,None,195.85445710000022,197.03964910000104,0.5116775999995298,0.595032799999899,1.7134178999986034,1.796545299999707,,,,,faizah_3,001,2020_Jan_10_1424,posner,3.1.5,59.93601231378876,
-0.5,0,1,left,1,3,0,0,0,0,10,7,87,1,,,,,,,,,197.3573352000003,197.85727320000115,198.57491740000114,None,197.8739357000013,198.55832720000035,199.07578450000074,None,left,1,0.3698031000003539,199.07578450000074,None,None,197.8739357000013,199.05884590000096,0.5112344999997731,0.5947728000010102,1.7127975000003062,1.7963672000005317,,,,,faizah_3,001,2020_Jan_10_1424,posner,3.1.5,59.93601231378876,
,,,,,,0,0,0,0,,,,,,,,,,,,,,,,,,,,,,,,,,,,,,,,,199.47742520000065,None,1.559999873279594e-05,0.9958680999989156,faizah_3,001,2020_Jan_10_1424,posner,3.1.5,59.93601231378876,
-0.5,180,0,left,2,3,1,0,1,0,0,0,0,4,1.2000000424450263e-05,0.09755820000100357,260.4935407000012,None,1.4100000043981709e-05,0.09761270000126387,262.5963474,None,262.87485519999973,263.3807873000005,264.09864560000096,None,263.39771810000093,264.08182920000036,264.5824453000005,None,left,1,0.4471567000000505,264.5824453000005,None,None,263.39771810000093,264.5824453000005,0.5154265999990457,0.5986478999984683,1.700324699999328,1.8005116999993334,,,,,faizah_3,001,2020_Jan_10_1424,posner,3.1.5,59.93601231378876,
-0.5,0,1,left,1,3,1,0,1,0,0,1,1,2,,,,,,,,,265.0519347999998,265.5505344000012,266.26810280000063,None,265.56711580000047,266.2514932000013,266.7688080000007,None,left,1,0.33265690000007453,266.7688080000007,None,None,265.56711580000047,266.7520562999998,0.5106143000011798,0.5939507000002777,1.7121212000001833,1.7958287000001292,,,,,faizah_3,001,2020_Jan_10_1424,posner,3.1.5,59.93601231378876,
0.5,180,1,right,2,4,1,0,1,0,0,2,2,7,,,,,,,,,267.1200688000008,267.6200614999998,268.33761680000134,None,267.63673970000127,268.32088470000053,268.8382242000007,None,right,1,0.30327000000033877,268.8382242000007,None,None,267.63673970000127,268.8214637000001,0.5118685999987065,0.5950150999997277,1.713232500000231,1.7966257999996742,,,,,faizah_3,001,2020_Jan_10_1424,posner,3.1.5,59.93601231378876,
-0.5,0,1,left,1,3,1,0,1,0,0,3,3,1,,,,,,,,,269.1721111000006,269.67281600000024,270.3904351000001,None,269.689534000001,270.37353260000054,270.8912106000007,None,left,1,0.34613549999994575,270.8912106000007,None,None,269.689534000001,270.8743454000014,0.5123774000003323,0.5958637000003364,1.7138940000004368,1.7974606000007043,,,,,faizah_3,001,2020_Jan_10_1424,posner,3.1.5,59.93601231378876,
0.5,180,1,right,2,4,1,0,1,0,0,4,4,6,,,,,,,,,271.25930270000026,271.7589810999998,272.47661289999996,None,271.7756448,272.4601595000004,272.9774372000011,None,right,1,0.22803929999827233,272.9774372000011,None,None,271.7756448,272.9608121000001,0.5112288999989687,0.5944395999995322,1.7130447999988974,1.7963160999988759,,,,,faizah_3,001,2020_Jan_10_1424,posner,3.1.5,59.93601231378876,
-0.5,0,1,left,1,3,1,0,1,0,0,5,5,0,,,,,,,,,273.2284952000009,273.7283984000005,274.4460153,None,273.74497750000046,274.42928089999987,274.9468023999998,None,left,1,0.3067762999999104,274.9468023999998,None,None,273.74497750000046,274.9300237000007,0.5116273000003275,0.5950331999993068,1.713240199998836,1.7965653999999631,,,,,faizah_3,001,2020_Jan_10_1424,posner,3.1.5,59.93601231378876,
0.5,180,1,right,2,4,1,0,1,0,0,6,6,5,,,,,,,,,275.2814565000008,275.7820079000012,276.4989048000007,None,275.798055700001,276.4820305000012,276.99987350000083,None,right,1,0.35746430000108376,276.99987350000083,None,None,275.798055700001,276.9826331000004,0.5124789000001329,0.5949963000002754,1.7130503000007593,1.7967774000007921,,,,,faizah_3,001,2020_Jan_10_1424,posner,3.1.5,59.93601231378876,
0.5,0,0,right,1,4,1,0,1,0,0,7,7,3,,,,,,,,,277.3834028000001,277.8840095000014,278.60186220000105,None,277.9007212000015,278.58495960000073,279.1023868000011,None,right,1,0.3990815000015573,279.1023868000011,None,None,277.9007212000015,279.08592190000127,0.5118352000008599,0.5952474999994593,1.7137235999998666,1.796961399999418,,,,,faizah_3,001,2020_Jan_10_1424,posner,3.1.5,59.93601231378876,
-0.5,180,0,left,2,3,1,0,1,0,1,0,8,4,,,,,,,,,279.5207992000014,280.02038280000124,280.73817390000113,None,280.0370227000003,280.72130749999997,281.2388451000006,None,left,1,0.366608799999085,281.2388451000006,None,None,280.0370227000003,281.221885500001,0.5115488999999798,0.5949173000008159,1.7130360999999539,1.79686220000076,,,,,faizah_3,001,2020_Jan_10_1424,posner,3.1.5,59.93601231378876,
0.5,180,1,right,2,4,1,0,1,0,1,1,9,5,,,,,,,,,281.62371880000137,282.1230561000011,282.8408572999997,None,282.13996899999984,282.82426250000026,283.3414474000001,None,right,1,0.3280250999996497,283.3414474000001,None,None,282.13996899999984,283.3250753000011,0.5112511000006634,0.5949430000000575,1.7132573000017146,1.7965188000016497,,,,,faizah_3,001,2020_Jan_10_1424,posner,3.1.5,59.93601231378876,
0.5,180,1,right,2,4,1,0,1,0,1,2,10,6,,,,,,,,,283.69334250000065,284.1926792000013,284.9105543000005,None,284.20936430000074,284.8937285000011,285.4111401000009,None,right,1,0.4262464000003092,285.4111401000009,None,None,284.20936430000074,285.39436600000045,0.5114567999989958,0.5950364000000263,1.7131205000005139,1.7967451000004075,,,,,faizah_3,001,2020_Jan_10_1424,posner,3.1.5,59.93601231378876,
0.5,0,0,right,1,4,1,0,1,0,1,3,11,3,,,,,,,,,285.86165820000133,286.3623602000007,287.08010470000045,None,286.37901430000056,287.06335580000086,287.58051630000045,None,right,1,0.3849651000000449,287.58051630000045,None,None,286.37901430000056,287.5639965999999,0.511995000000752,0.5956399999995483,1.7136172000009537,1.7971890999997413,,,,,faizah_3,001,2020_Jan_10_1424,posner,3.1.5,59.93601231378876,
-0.5,0,1,left,1,3,1,0,1,0,1,4,12,0,,,,,,,,,287.9818758000001,288.4819961000012,289.20001690000026,None,288.4987333000008,289.1829697000012,289.7007183000005,None,left,1,0.39265989999876183,289.7007183000005,None,None,288.4987333000008,289.6836923999999,0.5119814999998198,0.5952766999998858,1.713663299999098,1.7972805999997945,,,,,faizah_3,001,2020_Jan_10_1424,posner,3.1.5,59.93601231378876,
0.5,180,1,right,2,4,1,0,1,0,1,5,13,7,,,,,,,,,290.118883000001,290.6181859999997,291.33583569999973,None,290.63508300000103,291.31933890000073,291.83654209999986,None,right,1,0.4087714000015694,291.83654209999986,None,None,290.63508300000103,291.82011870000133,0.5113553000010143,0.5949762000000192,1.7132633000001078,1.796330000001035,,,,,faizah_3,001,2020_Jan_10_1424,posner,3.1.5,59.93601231378876,
-0.5,0,1,left,1,3,1,0,1,0,1,6,14,2,,,,,,,,,292.27153870000075,292.7713506,293.4890778000008,None,292.7880986,293.4722462000009,293.9896337000009,294.4736021000008,left,1,0.487775600000532,293.9896337000009,None,None,292.7880986,293.9728866000005,0.511681399999361,0.5949050999988685,1.7132060999992973,1.7969284999999218,,,,,faizah_3,001,2020_Jan_10_1424,posner,3.1.5,59.93601231378876,
-0.5,0,1,left,1,3,1,0,1,0,1,7,15,1,,,,,,,,,294.5072588000003,295.00773110000046,295.72547120000127,None,295.02421479999975,295.7086766000011,296.2259750000012,None,left,1,0.2834401000000071,296.2259750000012,None,None,295.02421479999975,296.2093048000006,0.5121057999986078,0.5953726999996434,1.7136623999995209,1.7969373999985692,,,,,faizah_3,001,2020_Jan_10_1424,posner,3.1.5,59.93601231378876,
0.5,180,1,right,2,4,1,0,1,0,2,0,16,5,,,,,,,,,296.5276339000011,297.02700150000055,297.74459190000016,None,297.0435748,297.7280251000011,298.24552080000103,None,right,1,0.30387619999964954,298.24552080000103,None,None,297.0435748,298.22874330000013,0.5112382999996044,0.5949149999996735,1.7129612999997335,1.7963417999999365,,,,,faizah_3,001,2020_Jan_10_1424,posner,3.1.5,59.93601231378876,
0.5,0,0,right,1,4,1,0,1,0,2,1,17,3,,,,,,,,,298.57965049999984,299.07993570000144,299.7976916000007,None,299.0966141000008,299.7808580000001,300.2985656000001,None,right,1,0.40271369999936724,300.2985656000001,None,None,299.0966141000008,300.28161080000064,0.5118867000001046,0.5952546999997139,1.713539899999887,1.796878099999958,,,,,faizah_3,001,2020_Jan_10_1424,posner,3.1.5,59.93601231378876,
-0.5,0,1,left,1,3,1,0,1,0,2,2,18,0,,,,,,,,,300.7327714000003,301.2326838000008,301.9505423999999,None,301.2495878000009,301.93377490000057,302.4511453000014,None,left,1,0.37818110000080196,302.4511453000014,None,None,301.2495878000009,302.43448309999985,0.5116247999994812,0.5952992999991693,1.7134043999994901,1.7967338999987987,,,,,faizah_3,001,2020_Jan_10_1424,posner,3.1.5,59.93601231378876,
0.5,180,1,right,2,4,1,0,1,0,2,3,19,7,,,,,,,,,302.85280310000053,303.35233380000136,304.06997650000085,None,303.36919620000117,304.0533903000014,304.5708551000007,None,right,1,0.2744068000010884,304.5708551000007,None,None,303.36919620000117,304.5541602000012,0.5115635999991355,0.5952163000001747,1.7133716999996977,1.7968861999997898,,,,,faizah_3,001,2020_Jan_10_1424,posner,3.1.5,59.93601231378876,
0.5,180,1,right,2,4,1,0,1,0,2,4,20,6,,,,,,,,,304.87183130000085,305.3718435999999,306.0894680000001,None,305.3885922999998,306.0728244000002,306.5903470000012,None,right,1,0.3189996000000974,306.5903470000012,None,None,305.3885922999998,306.57344139999987,0.511708500000168,0.5952760000000126,1.7132946000001539,1.7969828999994206,,,,,faizah_3,001,2020_Jan_10_1424,posner,3.1.5,59.93601231378876,
-0.5,0,1,left,1,3,1,0,1,0,2,5,21,2,,,,,,,,,306.94126010000036,307.4414510000006,308.1590161000004,None,307.4580358000003,308.14227089999986,308.65996989999985,None,left,1,0.30537809999987076,308.65996989999985,None,None,307.4580358000003,308.6429237000011,0.511808100000053,0.5950302999990527,1.713260700000319,1.796807999999146,,,,,faizah_3,001,2020_Jan_10_1424,posner,3.1.5,59.93601231378876,
-0.5,0,1,left,1,3,1,0,1,0,2,6,22,1,,,,,,,,,308.99362050000127,309.4943516000003,310.21166660000017,None,309.5108715000006,310.1951331,310.71255030000066,None,left,1,0.3167975000014849,310.71255030000066,None,None,309.5108715000006,310.69602900000064,0.511911899999177,0.595186399999875,1.7135503999998036,1.7969180999989476,,,,,faizah_3,001,2020_Jan_10_1424,posner,3.1.5,59.93601231378876,
-0.5,180,0,left,2,3,1,0,1,0,2,7,23,4,,,,,,,,,311.04761920000055,311.54718500000126,312.26463740000145,None,311.5637440999999,312.24821990000055,312.7654588000005,None,left,1,0.3999562999997579,312.7654588000005,None,None,311.5637440999999,312.7488076999998,0.511459700001069,0.5946734000008291,1.7130691000002116,1.7963605000004463,,,,,faizah_3,001,2020_Jan_10_1424,posner,3.1.5,59.93601231378876,
-0.5,0,1,left,1,3,1,0,1,0,3,0,24,2,,,,,,,,,313.18371060000027,313.68315390000134,314.4011007000008,None,313.7001314000008,314.38422470000114,314.90154650000113,None,left,1,0.31180379999932484,314.90154650000113,None,None,313.7001314000008,314.88495330000114,0.5113401999988127,0.5949731999990036,1.7134478999996645,1.7966574000001856,,,,,faizah_3,001,2020_Jan_10_1424,posner,3.1.5,59.93601231378876,
-0.5,180,0,left,2,3,1,0,1,0,3,1,25,4,,,,,,,,,315.23645300000135,315.73618290000013,316.45459630000005,None,315.7527179000008,316.4375293000012,316.9545151000002,None,left,1,0.4188168000000587,316.9545151000002,None,None,315.7527179000008,316.9379630000003,0.5115440000008675,0.5949925000004441,1.7132970999991812,1.7965739999999641,,,,,faizah_3,001,2020_Jan_10_1424,posner,3.1.5,59.93601231378876,
-0.5,0,1,left,1,3,1,0,1,0,3,2,26,1,,,,,,,,,317.3892229000012,317.88920730000063,318.60684220000076,None,317.9058187999999,318.5902193000002,319.10759680000047,None,left,1,0.29771079999954964,319.10759680000047,None,None,317.9058187999999,319.0907936000003,0.5118347999996331,0.5951323000008415,1.7134337999996205,1.796944400000939,,,,,faizah_3,001,2020_Jan_10_1424,posner,3.1.5,59.93601231378876,
0.5,180,1,right,2,4,1,0,1,0,3,3,27,5,,,,,,,,,319.42576759999974,319.92539880000004,320.64274840000144,None,319.94206029999987,320.62614080000094,321.14352300000064,None,right,1,0.2857867000002443,321.14352300000064,None,None,319.94206029999987,321.1270089999998,0.511714899999788,0.5947835999995732,1.7133099999991828,1.7965578000003006,,,,,faizah_3,001,2020_Jan_10_1424,posner,3.1.5,59.93601231378876,
0.5,180,1,right,2,4,1,0,1,0,3,4,28,7,,,,,,,,,321.461673400001,321.961389600001,322.6790996,None,321.9780741000013,322.66220990000147,323.1798471000002,None,right,1,0.321583400000236,323.1798471000002,None,None,321.9780741000013,323.16298129999996,0.5115886000003229,0.5950133000005735,1.7131675000000541,1.796613200000138,,,,,faizah_3,001,2020_Jan_10_1424,posner,3.1.5,59.93601231378876,
0.5,0,0,right,1,4,1,0,1,0,3,5,29,3,,,,,,,,,323.5306854999999,324.0309612000001,324.74862270000085,None,324.04772440000124,324.7318198000012,325.2492785000013,None,right,1,0.42823390000012296,325.2492785000013,None,None,324.04772440000124,325.23244800000066,0.5119200000008277,0.5952661000010266,1.7133943000008003,1.7970829000005324,,,,,faizah_3,001,2020_Jan_10_1424,posner,3.1.5,59.93601231378876,
0.5,180,1,right,2,4,1,0,1,0,3,6,30,6,,,,,,,,,325.70085240000117,326.20057110000016,326.9183118000001,None,326.2173464000007,326.9014438000013,327.41879359999984,None,right,1,0.2664466000005632,327.41879359999984,None,None,326.2173464000007,327.401979100001,0.511590599999181,0.5948967999993329,1.7129574999999022,1.7967776999994385,,,,,faizah_3,001,2020_Jan_10_1424,posner,3.1.5,59.93601231378876,
-0.5,0,1,left,1,3,1,0,1,0,3,7,31,0,,,,,,,,,327.7026160000005,328.2032436999998,328.92081680000047,None,328.22008840000126,328.90423120000014,329.4216561000012,None,left,1,0.35148169999956735,329.4216561000012,None,None,328.22008840000126,329.4045565000015,0.5115347000009933,0.5950960000009218,1.7128267999996751,1.7966142000004766,,,,,faizah_3,001,2020_Jan_10_1424,posner,3.1.5,59.93601231378876,
-0.5,180,0,left,2,3,1,0,1,0,4,0,32,4,,,,,,,,,329.8056250999998,330.30619750000005,331.0237388000005,None,330.32307349999974,331.0071829999997,331.52444450000075,332.0085976999999,left,1,0.5926925999992818,331.52444450000075,None,None,330.32307349999974,331.5078663000004,0.5126770000006218,0.5962622000006377,1.7143559000014648,1.7977654000005714,,,,,faizah_3,001,2020_Jan_10_1424,posner,3.1.5,59.93601231378876,
-0.5,0,1,left,1,3,1,0,1,0,4,1,33,0,,,,,,,,,332.14231350000045,332.64289120000103,333.3604144000001,None,332.65942330000144,333.3439730000009,333.861189700001,334.34557400000085,left,1,0.48010099999919476,333.861189700001,None,None,332.65942330000144,333.84477400000105,0.5126092000009521,0.5960443000003579,1.7144865000009304,1.7975084000008792,,,,,faizah_3,001,2020_Jan_10_1424,posner,3.1.5,59.93601231378876,
0.5,180,1,right,2,4,1,0,1,0,4,2,34,5,,,,,,,,,334.3617412000003,334.8622754000007,335.58008920000066,None,334.87922750000143,335.5633531000003,336.08075140000074,None,right,1,0.26839380000092206,336.08075140000074,None,None,334.87922750000143,336.06426660000034,0.5117903000009392,0.5954488999996101,1.7137672999997449,1.7971803000000364,,,,,faizah_3,001,2020_Jan_10_1424,posner,3.1.5,59.93601231378876,
0.5,0,0,right,1,4,1,0,1,0,4,3,35,3,,,,,,,,,336.3657086000003,336.8651157000004,337.58290940000006,None,336.88194420000036,337.5663654,338.08350280000013,338.5676714000001,right,1,0.657797699999719,338.08350280000013,None,None,336.88194420000036,338.0669575000011,0.5111013000005187,0.5947417000006681,1.7129174000001512,1.7964093000009598,,,,,faizah_3,001,2020_Jan_10_1424,posner,3.1.5,59.93601231378876,
-0.5,0,1,left,1,3,1,0,1,0,4,4,36,2,,,,,,,,,338.76878380000016,339.2685515000012,339.98633230000087,None,339.28535660000125,339.96960300000137,340.48687820000123,None,left,1,0.35035360000074434,340.48687820000123,None,None,339.28535660000125,340.4703137000015,0.5116658000006282,0.5949130000008154,1.7134167999993224,1.796757300000536,,,,,faizah_3,001,2020_Jan_10_1424,posner,3.1.5,59.93601231378876,
0.5,180,1,right,2,4,1,0,1,0,4,5,37,6,,,,,,,,,340.85543529999995,341.3549226000014,342.0723390000003,None,341.37145109999983,342.0560039000011,342.5730175000008,None,right,1,0.3921370999996725,342.5730175000008,None,None,341.37145109999983,342.55638160000126,0.5115819000002375,0.594804500000464,1.7130288000007567,1.7965554000002157,,,,,faizah_3,001,2020_Jan_10_1424,posner,3.1.5,59.93601231378876,
0.5,180,1,right,2,4,1,0,1,0,4,6,38,7,,,,,,,,,342.9910931000013,343.49106589999974,344.2088034999997,None,343.50783070000034,344.1918755000006,344.70929799999976,None,right,1,0.3197995999998966,344.70929799999976,None,None,343.50783070000034,344.69255330000124,0.5117554999997083,0.5952400999995007,1.7132309000007808,1.7968584999998711,,,,,faizah_3,001,2020_Jan_10_1424,posner,3.1.5,59.93601231378876,
-0.5,0,1,left,1,3,1,0,1,0,4,7,39,1,,,,,,,,,345.06056890000036,345.56065130000025,346.2782371000012,None,345.5773618000003,346.2613642000015,346.77894449999985,None,left,1,0.22631150000052003,346.77894449999985,None,None,345.5773618000003,346.7620568000002,0.5118046999996295,0.5951072999996541,1.7131969000001845,1.7971362000007503,,,,,faizah_3,001,2020_Jan_10_1424,posner,3.1.5,59.93601231378876,
0.5,180,1,right,2,4,1,0,1,0,5,0,40,5,,,,,,,,,347.02985869999975,347.5299921000005,348.2475393000004,None,347.5464702999998,348.2309187999999,348.7484278000011,None,right,1,0.2487524999996822,348.7484278000011,None,None,347.5464702999998,348.7315677000006,0.5117965999997978,0.5949783999985812,1.7133595999985118,1.7966882000000624,,,,,faizah_3,001,2020_Jan_10_1424,posner,3.1.5,59.93601231378876,
0.5,180,1,right,2,4,1,0,1,0,5,1,41,7,,,,,,,,,349.01647370000137,349.51616230000036,350.23367359999975,None,349.5326335999998,350.21697959999983,350.73427380000066,None,right,1,0.43903640000098676,350.73427380000066,None,None,349.5326335999998,350.71762149999995,0.5118349000003946,0.5952238999998372,1.7132764999987558,1.7967725999988033,,,,,faizah_3,001,2020_Jan_10_1424,posner,3.1.5,59.93601231378876,
0.5,180,1,right,2,4,1,0,1,0,5,2,42,6,,,,,,,,,351.202548700001,351.7021319000014,352.4200324000012,None,351.71907680000004,352.40314209999997,352.92062740000074,None,right,1,0.38863020000098913,352.92062740000074,None,None,351.71907680000004,352.90395910000007,0.5114615000002232,0.5951734999998735,1.7132692000013776,1.796817500000543,,,,,faizah_3,001,2020_Jan_10_1424,posner,3.1.5,59.93601231378876,
-0.5,0,1,left,1,3,1,0,1,0,5,3,43,1,,,,,,,,,353.33877940000093,353.83869760000016,354.55624720000014,None,353.8553430000011,354.53968890000033,355.05724290000035,None,left,1,0.2919959999999264,355.05724290000035,None,None,353.8553430000011,355.04020180000043,0.511550500001249,0.5947441999996954,1.7130431000005046,1.7964019000010012,,,,,faizah_3,001,2020_Jan_10_1424,posner,3.1.5,59.93601231378876,
0.5,0,0,right,1,4,1,0,1,0,5,4,44,3,,,,,,,,,355.37420399999974,355.87464590000127,356.5922993000004,None,355.89157870000054,356.5755526000012,357.093053300001,None,right,1,0.36018870000043535,357.093053300001,None,None,355.89157870000054,357.0764368,0.5117285000014817,0.5953062999997201,1.7134862000002613,1.7969587000006868,,,,,faizah_3,001,2020_Jan_10_1424,posner,3.1.5,59.93601231378876,
-0.5,0,1,left,1,3,1,0,1,0,5,5,45,2,,,,,,,,,357.47764930000085,357.9777298000008,358.6953188000007,None,357.99433130000034,358.67859690000114,359.1959751000013,None,left,1,0.3531902999984595,359.1959751000013,None,None,357.99433130000034,359.1793097999998,0.5118365999987873,0.5951078999987658,1.7134006999986013,1.7966802999999345,,,,,faizah_3,001,2020_Jan_10_1424,posner,3.1.5,59.93601231378876,
-0.5,0,1,left,1,3,1,0,1,0,5,6,46,0,,,,,,,,,359.5802695000002,360.0805341000014,360.79827699999987,None,360.0973877000015,360.78150989999995,361.29903190000005,None,left,1,0.2981643000002805,361.29903190000005,None,None,360.0973877000015,361.28198859999975,0.5117707999997947,0.5950661000006221,1.7132123000010324,1.7968333000007988,,,,,faizah_3,001,2020_Jan_10_1424,posner,3.1.5,59.93601231378876,
-0.5,180,0,left,2,3,1,0,1,0,5,7,47,4,,,,,,,,,361.61678550000033,362.1162959000012,362.8342444000009,None,362.13300119999985,362.8176843000001,363.3349694999997,None,left,1,0.3822864000012487,363.3349694999997,None,None,362.13300119999985,363.31827760000124,0.5114331000004313,0.5945663000002241,1.7133966000001237,1.7968843999988167,,,,,faizah_3,001,2020_Jan_10_1424,posner,3.1.5,59.93601231378876,
-0.5,0,1,left,1,3,1,0,1,0,6,0,48,0,,,,,,,,,363.7357780000002,364.2363421000009,364.9538147000003,None,364.25296660000095,364.937232100001,365.4546645999999,365.9386319000005,left,1,0.4703989999998157,365.4546645999999,None,None,364.25296660000095,365.4378708000004,0.5117915999999241,0.5951131000001624,1.713295300000027,1.7968571000001248,,,,,faizah_3,001,2020_Jan_10_1424,posner,3.1.5,59.93601231378876,
-0.5,0,1,left,1,3,1,0,1,0,6,1,49,2,,,,,,,,,365.9554855000006,366.45590319999974,367.17362370000046,None,366.4726480999998,367.1570623000007,367.67423080000117,None,left,1,0.29896050000024843,367.67423080000117,None,None,366.4726480999998,367.6578008000015,0.5116886000014347,0.595214400000259,1.713562400000228,1.796836000001349,,,,,faizah_3,001,2020_Jan_10_1424,posner,3.1.5,59.93601231378876,
0.5,0,0,right,1,4,1,0,1,0,6,2,50,3,,,,,,,,,367.9922535000005,368.4919946000009,369.2098861000013,None,368.50878040000134,369.1930764000008,369.71040820000053,None,right,1,0.3746250999993208,369.71040820000053,None,None,368.50878040000134,369.6935910000011,0.5116006999996898,0.5951714999991964,1.7132122999992134,1.796706200000699,,,,,faizah_3,001,2020_Jan_10_1424,posner,3.1.5,59.93601231378876,
-0.5,0,1,left,1,3,1,0,1,0,6,3,51,1,,,,,,,,,370.1117462000002,370.6116768000011,371.32951820000017,None,370.6284394000013,371.3124826000003,371.8299603000014,None,left,1,0.2954879000008077,371.8299603000014,None,None,370.6284394000013,371.81334849999985,0.5117015999985597,0.595149599999786,1.7133535999982996,1.79666829999951,,,,,faizah_3,001,2020_Jan_10_1424,posner,3.1.5,59.93601231378876,
0.5,180,1,right,2,4,1,0,1,0,6,4,52,5,,,,,,,,,372.1482906000001,372.6480704000005,373.36541209999996,None,372.6645376000015,373.34905980000076,373.8663858,None,right,1,0.2667297999996663,373.8663858,None,None,372.6645376000015,373.8498206000004,0.5115067999995517,0.59461519999968,1.7132363999990048,1.7962093999994977,,,,,faizah_3,001,2020_Jan_10_1424,posner,3.1.5,59.93601231378876,
0.5,180,1,right,2,4,1,0,1,0,6,5,53,7,,,,,,,,,374.1504986,374.65062150000085,375.36828830000013,None,374.66729250000026,375.3514403999998,375.8689465000007,None,right,1,0.2960729000005813,375.8689465000007,None,None,374.66729250000026,375.8520552000009,0.5119896000014705,0.5952164000009361,1.713408800000252,1.797182000000248,,,,,faizah_3,001,2020_Jan_10_1424,posner,3.1.5,59.93601231378876,
-0.5,180,0,left,2,3,1,0,1,0,6,6,54,4,,,,,,,,,376.18697450000036,376.68664400000125,377.40434070000083,None,376.7033298000006,377.3877338000002,377.90490090000094,None,left,1,0.3961735000011686,377.90490090000094,None,None,376.7033298000006,377.8884887000004,0.5115313999995124,0.5950585999999021,1.7133513999997376,1.7965263999994932,,,,,faizah_3,001,2020_Jan_10_1424,posner,3.1.5,59.93601231378876,
0.5,180,1,right,2,4,1,0,1,0,6,7,55,6,,,,,,,,,378.32279540000127,378.82293030000073,379.5406879000002,None,378.8397784000008,379.52367270000104,380.04139620000024,None,right,1,0.29967539999961446,380.04139620000024,None,None,378.8397784000008,380.0244995000012,0.5117511999997078,0.5951315000002069,1.7132982000002812,1.7968655999993643,,,,,faizah_3,001,2020_Jan_10_1424,posner,3.1.5,59.93601231378876,
0.5,180,1,right,2,4,1,0,1,0,7,0,56,7,,,,,,,,,380.3593238000012,380.85916780000116,381.57662810000147,None,380.87595750000037,381.56011320000107,382.0774192000008,None,right,1,0.34368370000083814,382.0774192000008,None,None,380.87595750000037,382.0606409000011,0.5116557000001194,0.5950143999998545,1.7131182000011904,1.7966730999996798,,,,,faizah_3,001,2020_Jan_10_1424,posner,3.1.5,59.93601231378876,
0.5,180,1,right,2,4,1,0,1,0,7,1,57,5,,,,,,,,,382.4448059000006,382.9452777000006,383.66289940000024,None,382.9618530000007,383.6462851000015,384.16362410000147,None,right,1,0.2736449000003631,384.16362410000147,None,None,382.9618530000007,384.1469698000001,0.5123278999999457,0.5957894999992277,1.7139967999992223,1.7974346999999398,,,,,faizah_3,001,2020_Jan_10_1424,posner,3.1.5,59.93601231378876,
-0.5,0,1,left,1,3,1,0,1,0,7,2,58,1,,,,,,,,,384.4650493000008,384.964688,385.68226760000107,None,384.9812840000013,385.6658419000014,386.18309000000045,None,left,1,0.26216719999865745,386.18309000000045,None,None,384.9812840000013,386.1663091999999,0.5116232000000309,0.5952644999997574,1.7132206999995105,1.7968753000004654,,,,,faizah_3,001,2020_Jan_10_1424,posner,3.1.5,59.93601231378876,
-0.5,180,0,left,2,3,1,0,1,0,7,3,59,4,,,,,,,,,386.4679795000011,386.9675175000011,387.68513950000124,None,386.984101,387.6685269999998,388.1860797999998,388.66989509999985,None,0,,388.1860797999998,None,None,386.984101,388.16923860000134,0.5113466999991942,0.5949248999986594,1.7130569999990257,1.7963000999989163,,,,,faizah_3,001,2020_Jan_10_1424,posner,3.1.5,59.93601231378876,
0.5,180,1,right,2,4,1,0,1,0,7,4,60,6,,,,,,,,,389.17053040000064,389.6711414000001,390.3889005000001,389.17053040000064,389.6880578,390.3720695000011,390.8896349000006,None,right,1,0.30734060000031604,390.8896349000006,None,None,389.6880578,390.87281190000067,0.5136984000000666,0.5972741000005044,1.7153574000003573,1.7989324999998644,,,,,faizah_3,001,2020_Jan_10_1424,posner,3.1.5,59.93601231378876,
-0.5,0,1,left,1,3,1,0,1,0,7,5,61,0,,,,,,,,,391.22414370000115,391.7241253000011,392.4418342000008,None,391.740882600001,392.42524180000146,392.9423074000006,None,left,1,0.3428106999999727,392.9423074000006,None,None,391.740882600001,392.9257008000004,0.5115888000000268,0.5950092000002769,1.7131423000009818,1.7966292000000976,,,,,faizah_3,001,2020_Jan_10_1424,posner,3.1.5,59.93601231378876,
0.5,0,0,right,1,4,1,0,1,0,7,6,62,3,,,,,,,,,393.3102030000009,393.8103932000013,394.52801250000084,None,393.82683390000057,394.51129930000025,395.0285573000001,None,right,1,0.3604552999986481,395.0285573000001,None,None,393.82683390000057,395.0117973000015,0.5118030999983603,0.5950213999985863,1.713192599998365,1.7967608999988443,,,,,faizah_3,001,2020_Jan_10_1424,posner,3.1.5,59.93601231378876,
-0.5,0,1,left,1,3,1,0,1,0,7,7,63,2,,,,,,,,,395.41257159999986,395.9132797000002,396.63079389999984,None,395.9299597999998,396.6139844999998,397.1315247000002,None,left,1,0.3373924999996234,397.1315247000002,None,None,395.9299597999998,397.11492160000125,0.5125372000002244,0.5959794999998849,1.714170600000216,1.7976417999998375,,,,,faizah_3,001,2020_Jan_10_1424,posner,3.1.5,59.93601231378876,
-0.5,0,1,left,1,3,1,0,1,0,8,0,64,1,,,,,,,,,397.4992689999999,397.9995938000011,398.71698840000136,None,398.0161430999997,398.70026620000135,399.21785160000036,None,left,1,0.25918259999889415,399.21785160000036,None,None,398.0161430999997,399.2010551000003,0.512050300001647,0.5952282000016567,1.713500700001532,1.7969837000000553,,,,,faizah_3,001,2020_Jan_10_1424,posner,3.1.5,59.93601231378876,
-0.5,180,0,left,2,3,1,0,1,0,8,1,65,4,,,,,,,,,399.5024394000011,400.0020774000004,400.7199623000015,None,400.0188283000007,400.7029842000011,401.2204270000002,401.7045635000013,left,1,0.47277000000030966,401.2204270000002,None,None,400.0188283000007,401.20368130000134,0.5115834000007453,0.5950940000002447,1.7131680000002234,1.7965641999999207,,,,,faizah_3,001,2020_Jan_10_1424,posner,3.1.5,59.93601231378876,
0.5,180,1,right,2,4,1,0,1,0,8,2,66,5,,,,,,,,,401.7222324000013,402.2217185999998,402.9394226000004,None,402.23857529999987,402.92286539999986,403.4400693000007,None,right,1,0.3009885999999824,403.4400693000007,None,None,402.23857529999987,403.423467300001,0.5114419000001362,0.594978799999808,1.7131706999989547,1.7967435999998997,,,,,faizah_3,001,2020_Jan_10_1424,posner,3.1.5,59.93601231378876,
0.5,180,1,right,2,4,1,0,1,0,8,3,67,6,,,,,,,,,403.75844640000105,404.2581792000001,404.9758296,None,404.2746650000008,404.9588891000003,405.47637360000044,None,right,1,0.25679289999970933,405.47637360000044,None,None,404.2746650000008,405.4596945000012,0.5115920999996888,0.5946868999999424,1.713093000000299,1.7963734000004479,,,,,faizah_3,001,2020_Jan_10_1424,posner,3.1.5,59.93601231378876,
0.5,180,1,right,2,4,1,0,1,0,8,4,68,7,,,,,,,,,405.76084150000133,406.2606759999999,406.97836760000064,None,406.27746470000056,406.96153570000024,407.4791139000008,None,right,1,0.349835200000598,407.4791139000008,None,None,406.27746470000056,407.46231590000025,0.5114443000002211,0.5951531000009709,1.7130717000000004,1.7966064000011102,,,,,faizah_3,001,2020_Jan_10_1424,posner,3.1.5,59.93601231378876,
0.5,0,0,right,1,4,1,0,1,0,8,5,69,3,,,,,,,,,407.8475247000006,408.34739120000086,409.0647098999998,None,408.36369790000026,409.04828330000055,409.56528080000135,None,right,1,0.3917455000009795,409.56528080000135,None,None,408.36369790000026,409.5486904999998,0.5117774999998801,0.5947532000009232,1.7130637999998726,1.796288999999888,,,,,faizah_3,001,2020_Jan_10_1424,posner,3.1.5,59.93601231378876,
-0.5,0,1,left,1,3,1,0,1,0,8,6,70,2,,,,,,,,,409.98320179999973,410.48299940000106,411.20096900000135,None,410.4999974000002,411.1841077000008,411.7014758000005,None,left,1,0.3354036000000633,411.7014758000005,None,None,410.4999974000002,411.68502350000017,0.5115499999992608,0.5954181999986758,1.7135552999989159,1.7967811999988044,,,,,faizah_3,001,2020_Jan_10_1424,posner,3.1.5,59.93601231378876,
-0.5,0,1,left,1,3,1,0,1,0,8,7,71,0,,,,,,,,,412.0688291000006,412.5696259000015,413.28705679999985,None,412.58620130000054,413.2704614000013,413.7878982000002,None,left,1,0.2972035999991931,413.7878982000002,None,None,412.58620130000054,413.77103420000094,0.5124602999985655,0.5955346999999165,1.7138564999986556,1.7972127999983059,,,,,faizah_3,001,2020_Jan_10_1424,posner,3.1.5,59.93601231378876,
0.5,0,0,right,1,4,1,0,1,0,9,0,72,3,,,,,,,,,414.10618630000135,414.60567640000045,415.3230108000007,None,414.62211390000084,415.3065581999999,415.8238140000012,None,right,1,0.38913440000033006,415.8238140000012,None,None,414.62211390000084,415.80721950000043,0.5115132999999332,0.5949246999989555,1.71304119999877,1.7964481999988493,,,,,faizah_3,001,2020_Jan_10_1424,posner,3.1.5,59.93601231378876,
-0.5,180,0,left,2,3,1,0,1,0,9,1,73,4,,,,,,,,,416.24186069999996,416.7416779000014,417.4595421000013,None,416.75841410000066,417.4426476000008,417.9601606000015,None,left,1,0.34888429999955406,417.9601606000015,None,None,416.75841410000066,417.94345070000054,0.5116691000002902,0.5952601999997569,1.7134251999996195,1.7970138000000588,,,,,faizah_3,001,2020_Jan_10_1424,posner,3.1.5,59.93601231378876,
0.5,180,1,right,2,4,1,0,1,0,9,2,74,7,,,,,,,,,418.32820040000115,418.82799800000066,419.54570200000126,None,418.8449748000003,419.5289475999998,420.0463802000013,None,right,1,0.26266369999939343,420.0463802000013,None,None,418.8449748000003,420.0297206000014,0.511524699999427,0.5949388999997609,1.7132319000011194,1.796529900000678,,,,,faizah_3,001,2020_Jan_10_1424,posner,3.1.5,59.93601231378876,
-0.5,0,1,left,1,3,1,0,1,0,9,3,75,1,,,,,,,,,420.3311394000011,420.830708200001,421.5484787000005,None,420.8478530000011,421.5317176999997,422.04916500000036,None,left,1,0.26767040000049747,422.04916500000036,None,None,420.8478530000011,422.0324639999999,0.5113457999996172,0.5946829999993497,1.7130918000002566,1.7966978999993444,,,,,faizah_3,001,2020_Jan_10_1424,posner,3.1.5,59.93601231378876,
0.5,180,1,right,2,4,1,0,1,0,9,4,76,6,,,,,,,,,422.3334114999998,422.83355120000124,423.5512722000003,None,422.85053960000005,423.5344617999999,424.0520030000007,None,right,1,0.27312329999949725,424.0520030000007,None,None,422.85053960000005,424.03522950000115,0.5121858999991673,0.5961043999996036,1.7138142999992851,1.797161500000584,,,,,faizah_3,001,2020_Jan_10_1424,posner,3.1.5,59.93601231378876,
-0.5,0,1,left,1,3,1,0,1,0,9,5,77,0,,,,,,,,,424.3525109000002,424.85293830000046,425.57057370000075,None,424.86980510000103,425.5539138000004,426.07119010000133,None,left,1,0.341724100000647,426.07119010000133,None,None,424.86980510000103,426.0545499,0.5126044999997248,0.5960840999996435,1.7142310999988695,1.7977621999998519,,,,,faizah_3,001,2020_Jan_10_1424,posner,3.1.5,59.93601231378876,
-0.5,0,1,left,1,3,1,0,1,0,9,6,78,2,,,,,,,,,426.43883900000037,426.9389621999999,427.6568266000013,None,426.95608170000014,427.6404027000008,428.15759790000084,None,left,1,0.3113716999996541,428.15759790000084,None,None,426.95608170000014,428.14085630000045,0.5119682000004104,0.5955102000007173,1.7138501000008546,1.797284899999795,,,,,faizah_3,001,2020_Jan_10_1424,posner,3.1.5,59.93601231378876,
0.5,180,1,right,2,4,1,0,1,0,9,7,79,5,,,,,,,,,428.49164590000146,428.9920124,429.70970149999994,None,429.0088192000003,429.6929443000008,430.21033650000027,None,right,1,0.31467739999970945,430.21033650000027,None,None,429.0088192000003,430.1936332000005,0.5121982000000571,0.5955715000000055,1.7137972000000445,1.797312900000179,,,,,faizah_3,001,2020_Jan_10_1424,posner,3.1.5,59.93601231378876,
0.5,180,1,right,2,4,1,0,1,0,10,0,80,7,,,,,,,,,430.54434890000084,431.0447946000004,431.76240940000025,None,431.0613649000006,431.7458655999999,432.26313570000093,None,right,1,0.26194349999968836,432.26313570000093,None,None,431.0613649000006,432.24660700000095,0.5119436999993923,0.595030599999518,1.7134116999986873,1.7968338999999105,,,,,faizah_3,001,2020_Jan_10_1424,posner,3.1.5,59.93601231378876,
0.5,180,1,right,2,4,1,0,1,0,10,1,81,6,,,,,,,,,432.54799470000034,433.0476477000011,433.7652123000007,None,433.06433950000064,433.7487099000009,434.26599050000004,None,right,1,0.2908685999991576,434.26599050000004,None,None,433.06433950000064,434.24935189999997,0.5115167000003566,0.5947529000004579,1.7132094999997207,1.7964926000004198,,,,,faizah_3,001,2020_Jan_10_1424,posner,3.1.5,59.93601231378876,
0.5,180,1,right,2,4,1,0,1,0,10,2,82,5,,,,,,,,,434.58397310000146,435.08359440000095,435.80137579999973,None,435.1005132999999,435.7848473000013,436.3022000000001,None,right,1,0.23886719999973138,436.3022000000001,None,None,435.1005132999999,436.28547270000126,0.5113487999988138,0.5949024000001373,1.7132053999994241,1.7965771999988647,,,,,faizah_3,001,2020_Jan_10_1424,posner,3.1.5,59.93601231378876,
-0.5,180,0,left,2,3,1,0,1,0,10,3,83,4,,,,,,,,,436.56996190000064,437.07004600000073,437.78749489999973,None,437.0867541000007,437.7708547000002,438.2883896000003,None,right,0,0.1726130999995803,438.2883896000003,None,None,437.0867541000007,438.2714876000009,0.5119054000006145,0.594968000001245,1.7133573999999498,1.796608800001195,,,,,faizah_3,001,2020_Jan_10_1424,posner,3.1.5,59.93601231378876,
-0.5,0,1,left,1,3,1,0,1,0,10,4,84,1,,,,,,,,,438.48918550000053,438.9889722000007,439.70687830000134,None,439.0057721000012,439.6899577000004,440.20754900000065,None,left,1,0.3335263000008126,440.20754900000065,None,None,439.0057721000012,440.1908901000006,0.5115984000003664,0.5950570000004518,1.7134931000000506,1.796673599999849,,,,,faizah_3,001,2020_Jan_10_1424,posner,3.1.5,59.93601231378876,
-0.5,0,1,left,1,3,1,0,1,0,10,5,85,0,,,,,,,,,440.55876590000116,441.0586867000002,441.77625550000084,None,441.0752948999998,441.7597592000002,442.27704580000136,None,left,1,0.3438666000001831,442.27704580000136,None,None,441.0752948999998,442.26025590000063,0.5114558000004763,0.5946765999997297,1.7130115999989357,1.796648899999127,,,,,faizah_3,001,2020_Jan_10_1424,posner,3.1.5,59.93601231378876,
-0.5,0,1,left,1,3,1,0,1,0,10,6,86,2,,,,,,,,,442.6451668999998,443.14509460000045,443.8622857999999,None,443.1615555999997,443.8458996999998,444.3630549999998,None,left,1,0.3059272000009514,444.3630549999998,None,None,443.1615555999997,444.3465315000012,0.5118915000002744,0.5949971999998525,1.713349300000118,1.7966639999995095,,,,,faizah_3,001,2020_Jan_10_1424,posner,3.1.5,59.93601231378876,
0.5,0,0,right,1,4,1,0,1,0,10,7,87,3,,,,,,,,,444.69762489999994,445.19771820000096,445.91535960000147,None,445.21425420000014,445.8987149000004,446.41603770000074,None,right,1,0.3648336999995081,446.41603770000074,None,None,445.21425420000014,446.3995848000013,0.5117482999994536,0.595142099999066,1.7136003999985405,1.7966749999995955,,,,,faizah_3,001,2020_Jan_10_1424,posner,3.1.5,59.93601231378876,
,,,,,,1,0,1,0,,,,,,,,,,,,,,,,,,,,,,,,,,,,,,,,,446.80040720000034,None,1.5999999959603883e-05,0.9956268000005366,faizah_3,001,2020_Jan_10_1424,posner,3.1.5,59.93601231378876,
0.5,180,1,right,2,4,2,0,2,0,0,0,0,6,1.1500000255182385e-05,0.09768070000063744,507.81720289999976,None,1.2900000001536682e-05,0.09855550000065705,509.9202725000014,None,510.2073204999997,510.7040512000003,511.4220354000008,None,510.7211084999999,511.405035400001,511.92259730000114,None,right,1,0.35409059999983583,511.92259730000114,None,None,510.7211084999999,511.9061214000012,0.5074170999996568,0.5912047999991046,1.7091943999985233,1.7924595999993471,,,,,faizah_3,001,2020_Jan_10_1424,posner,3.1.5,59.93601231378876,
0.5,0,0,right,1,4,2,0,2,0,0,1,1,3,,,,,,,,,512.3077363000011,512.8082177000015,513.5249608000013,None,512.824523700001,513.5085777000004,514.0249302000011,514.5097041999998,right,1,0.4756457000003138,514.0249302000011,None,None,512.824523700001,514.0088874000012,0.5119353999998566,0.5943566000005376,1.7125862000011693,1.7960745000000315,,,,,faizah_3,001,2020_Jan_10_1424,posner,3.1.5,59.93601231378876,
-0.5,0,1,left,1,3,2,0,2,0,0,2,2,1,,,,,,,,,514.5276187,515.0270906000005,515.7445308000006,None,515.0434392000006,515.7285150000007,516.2456091000004,None,left,1,0.33492609999848355,516.2456091000004,None,None,515.0434392000006,516.2286676000003,0.5111914000008255,0.5946093000002293,1.712771700000303,1.7961171000006289,,,,,faizah_3,001,2020_Jan_10_1424,posner,3.1.5,59.93601231378876,
-0.5,0,1,left,1,3,2,0,2,0,0,3,3,2,,,,,,,,,516.6129700000001,517.114009500001,517.8310371000007,None,517.1299334000014,517.8147138000004,518.3323687000011,None,left,1,0.3282929000015429,518.3323687000011,None,None,517.1299334000014,518.3149384999997,0.5132245999993756,0.5954766999984713,1.7138483999988239,1.7969457999988663,,,,,faizah_3,001,2020_Jan_10_1424,posner,3.1.5,59.93601231378876,
0.5,180,1,right,2,4,2,0,2,0,0,4,4,7,,,,,,,,,518.6826042000012,519.1826102000014,519.9002399000001,None,519.1995239000007,519.8839292000011,520.4006778000003,None,right,1,0.41985460000068997,520.4006778000003,None,None,519.1995239000007,520.3847514999998,0.5120010999999067,0.5954701999999088,1.7141084999984741,1.7972356999998738,,,,,faizah_3,001,2020_Jan_10_1424,posner,3.1.5,59.93601231378876,
-0.5,180,0,left,2,3,2,0,2,0,0,5,5,4,,,,,,,,,520.8519053,521.3523439,522.0703701000002,None,521.3692764000007,522.0536859000003,522.5707493000009,None,left,1,0.42578710000088904,522.5707493000009,None,None,521.3692764000007,522.5544531000014,0.5114241000010225,0.5948325000008481,1.7135296000014932,1.7968829000001278,,,,,faizah_3,001,2020_Jan_10_1424,posner,3.1.5,59.93601231378876,
-0.5,0,1,left,1,3,2,0,2,0,0,6,6,0,,,,,,,,,523.0220982999999,523.5221180000008,524.2398395,None,523.5386299000002,524.222964300001,524.7402866000011,525.2246629000001,None,0,,524.7402866000011,None,None,523.5386299000002,524.7237357000013,0.5116617999992741,0.5952600999989954,1.7132717999993474,1.7969522000003053,,,,,faizah_3,001,2020_Jan_10_1424,posner,3.1.5,59.93601231378876,
0.5,180,1,right,2,4,2,0,2,0,0,7,7,5,,,,,,,,,525.725296300001,526.2256671000014,526.943459600001,525.725296300001,526.2424969000003,526.9268626000012,527.4442745000015,None,right,1,0.3683624000004784,527.4442745000015,None,None,526.2424969000003,527.4275981999999,0.5135186000006797,0.5975161000005755,1.715430300000662,1.7989403999999922,,,,,faizah_3,001,2020_Jan_10_1424,posner,3.1.5,59.93601231378876,
-0.5,0,1,left,1,3,2,0,2,0,1,0,8,1,,,,,,,,,527.8290333000004,528.3288590000011,529.0463845000013,None,528.3456439000001,529.0295643000009,529.5470873000013,None,left,1,0.37747719999970286,529.5470873000013,None,None,528.3456439000001,529.5301919000012,0.5118892999998934,0.5951325000005454,1.713198999999804,1.7973013999999239,,,,,faizah_3,001,2020_Jan_10_1424,posner,3.1.5,59.93601231378876,
-0.5,0,1,left,1,3,2,0,2,0,1,1,9,0,,,,,,,,,529.9485111000013,530.4484337000013,531.1661424000013,None,530.4650366000005,531.1493234000009,531.666576900001,None,left,1,0.3221410999994987,531.666576900001,None,None,530.4650366000005,531.6501040000003,0.5116749000007985,0.5951224000000366,1.7133313000013004,1.7967371000013372,,,,,faizah_3,001,2020_Jan_10_1424,posner,3.1.5,59.93601231378876,
0.5,180,1,right,2,4,2,0,2,0,1,2,10,5,,,,,,,,,532.0183171000008,532.5178924000011,533.2355124000005,None,532.5344764000001,533.2188857000001,533.736339000001,None,right,1,0.3324302000000898,533.736339000001,None,None,532.5344764000001,533.7195767000012,0.5116995999997016,0.5950594000005367,1.7133586999989348,1.7968323999994027,,,,,faizah_3,001,2020_Jan_10_1424,posner,3.1.5,59.93601231378876,
0.5,0,0,right,1,4,2,0,2,0,1,3,11,3,,,,,,,,,534.0876367000001,534.5875622000003,535.3053618000013,None,534.6039857000014,535.2883852000014,535.8058723000013,None,right,1,0.4306535999985499,535.8058723000013,None,None,534.6039857000014,535.7891034000004,0.5120806999984779,0.5953331999990041,1.7136082999986684,1.796953899998698,,,,,faizah_3,001,2020_Jan_10_1424,posner,3.1.5,59.93601231378876,
-0.5,180,0,left,2,3,2,0,2,0,1,4,12,4,,,,,,,,,536.2572465000012,536.7570035000008,537.4748792999999,None,536.7736987000008,537.4581814000012,537.9755569999998,None,left,1,0.40495390000069165,537.9755569999998,None,None,536.7736987000008,537.9589075000004,0.5116431999995257,0.5951500999999553,1.713525999999547,1.7966747999998915,,,,,faizah_3,001,2020_Jan_10_1424,posner,3.1.5,59.93601231378876,
-0.5,0,1,left,1,3,2,0,2,0,1,5,13,2,,,,,,,,,538.4095864999999,538.9101676999999,539.6278022000006,None,538.9268798000012,539.6109880000004,540.1283357000011,None,left,1,0.3563424000003579,540.1283357000011,None,None,538.9268798000012,540.1115602000009,0.5123407999999472,0.5956304999999702,1.7137136000001192,1.7971543000003294,,,,,faizah_3,001,2020_Jan_10_1424,posner,3.1.5,59.93601231378876,
0.5,180,1,right,2,4,2,0,2,0,1,6,14,6,,,,,,,,,540.5125734000012,541.0128302000012,541.7305560000004,None,541.0296563000011,541.7137303,542.2311803000011,None,right,1,0.3494494000005943,542.2311803000011,None,None,541.0296563000011,542.2147174000002,0.5120386999988114,0.5956361999997171,1.713903500000015,1.7974498999992647,,,,,faizah_3,001,2020_Jan_10_1424,posner,3.1.5,59.93601231378876,
0.5,180,1,right,2,4,2,0,2,0,1,7,15,7,,,,,,,,,542.599717000001,543.0987889000007,543.8169259000006,None,543.1154762000006,543.8001462000011,544.3175869000006,None,right,1,0.31896899999992456,544.3175869000006,None,None,543.1154762000006,544.3009129000002,0.5110955000000104,0.5943912000002456,1.7131976000000577,1.7965825999999652,,,,,faizah_3,001,2020_Jan_10_1424,posner,3.1.5,59.93601231378876,
-0.5,0,1,left,1,3,2,0,2,0,2,0,16,1,,,,,,,,,544.6689815000009,545.168583300001,545.8865000000005,None,545.185352800001,545.8696666000014,546.3870082000012,None,left,1,0.40960789999917324,546.3870082000012,None,None,545.185352800001,546.3700900000003,0.5114294000013615,0.5950389000008727,1.7128998000007414,1.7965858000006847,,,,,faizah_3,001,2020_Jan_10_1424,posner,3.1.5,59.93601231378876,
-0.5,180,0,left,2,3,2,0,2,0,2,1,17,4,,,,,,,,,546.8214597000006,547.3213589000006,548.0392602000011,None,547.3385226000009,548.0223901999998,548.5399039000004,None,left,1,0.4326096000004327,548.5399039000004,None,None,547.3385226000009,548.5230932000013,0.5115241000003152,0.5954667999994854,1.713230499999554,1.796685900000739,,,,,faizah_3,001,2020_Jan_10_1424,posner,3.1.5,59.93601231378876,
0.5,180,1,right,2,4,2,0,2,0,2,2,18,6,,,,,,,,,548.9915061000011,549.4908179000013,550.2088746999998,None,549.5078363000011,550.1919723999999,550.7094404,None,right,1,0.3115104999997129,550.7094404,None,None,549.5078363000011,550.6928186000005,0.5112177999999403,0.5949406999989151,1.7131994999999733,1.79704799999854,,,,,faizah_3,001,2020_Jan_10_1424,posner,3.1.5,59.93601231378876,
0.5,180,1,right,2,4,2,0,2,0,2,3,19,7,,,,,,,,,551.0445741000003,551.5439268999999,552.2615132999999,None,551.5607721000015,552.2449484999997,552.7621193000014,None,right,1,0.27451620000101684,552.7621193000014,None,None,551.5607721000015,552.7457038000011,0.5113899999996647,0.5949823999999353,1.7131337999999232,1.7965205000000424,,,,,faizah_3,001,2020_Jan_10_1424,posner,3.1.5,59.93601231378876,
-0.5,0,1,left,1,3,2,0,2,0,2,4,20,0,,,,,,,,,553.0634866,553.5633604000013,554.2809739000004,None,553.5801527000003,554.2643442000008,554.781653,None,left,1,0.3027639000010822,554.781653,None,None,553.5801527000003,554.7650861000002,0.5115724000006594,0.5952237999990757,1.713258499999938,1.797061199999007,,,,,faizah_3,001,2020_Jan_10_1424,posner,3.1.5,59.93601231378876,
0.5,0,0,right,1,4,2,0,2,0,2,5,21,3,,,,,,,,,555.1162956000007,555.6162715999999,556.3339173000004,None,555.6329505000012,556.3173693000008,556.8347039,None,right,1,0.3059991000009177,556.8347039,None,None,555.6329505000012,556.8178247000014,0.5115264000014577,0.5950477000005776,1.7130679000001692,1.796555900000385,,,,,faizah_3,001,2020_Jan_10_1424,posner,3.1.5,59.93601231378876,
0.5,180,1,right,2,4,2,0,2,0,2,6,22,5,,,,,,,,,557.1690772000002,557.6690594000011,558.3868899999998,None,557.6857008000006,558.3700215999997,558.8875434000001,None,right,1,0.26120300000002317,558.8875434000001,None,None,557.6857008000006,558.8708201000009,0.5117214000001695,0.5951486000012665,1.7134645000005548,1.7969222000010632,,,,,faizah_3,001,2020_Jan_10_1424,posner,3.1.5,59.93601231378876,
-0.5,0,1,left,1,3,2,0,2,0,2,7,23,2,,,,,,,,,559.1714515000003,559.6717251999999,560.3894657000001,None,559.6884700999999,560.3726798000007,560.8900423000014,None,left,1,0.38642480000089563,560.8900423000014,None,None,559.6884700999999,560.8733787000001,0.5121846000001824,0.5958090999993146,1.7138170999987778,1.7974591000001965,,,,,faizah_3,001,2020_Jan_10_1424,posner,3.1.5,59.93601231378876,
-0.5,180,0,left,2,3,2,0,2,0,3,0,24,4,,,,,,,,,561.3083342000009,561.8081429000013,562.5258027,None,561.8249390000001,562.5090350999999,563.0265445000005,None,left,1,0.4178339000009146,563.0265445000005,None,None,561.8249390000001,563.009726100001,0.5111953999985417,0.5944602999989002,1.7127637999983563,1.796212999999625,,,,,faizah_3,001,2020_Jan_10_1424,posner,3.1.5,59.93601231378876,
0.5,0,0,right,1,4,2,0,2,0,3,1,25,3,,,,,,,,,563.4610548,563.9609993000013,564.6787574000009,None,563.9778263000007,564.6620247999999,565.1793926999999,None,right,1,0.36147969999910856,565.1793926999999,None,None,563.9778263000007,565.1625869,0.5118550000006508,0.595450400000118,1.7134095000001253,1.7970322000001033,,,,,faizah_3,001,2020_Jan_10_1424,posner,3.1.5,59.93601231378876,
0.5,180,1,right,2,4,2,0,2,0,3,2,26,5,,,,,,,,,565.5639852000004,566.0638919000012,566.781521500001,None,566.0806010000015,566.7651814000001,567.2822819000012,None,right,1,0.29036249999990105,567.2822819000012,None,None,566.0806010000015,567.2655472000006,0.5119685999998183,0.595455700000457,1.713608899999599,1.7972432999995362,,,,,faizah_3,001,2020_Jan_10_1424,posner,3.1.5,59.93601231378876,
0.5,180,1,right,2,4,2,0,2,0,3,3,27,7,,,,,,,,,567.5997500000012,568.100158700001,568.8177305999998,None,568.1168795000012,568.8011060000008,569.3185160000012,None,right,1,0.29383620000044175,569.3185160000012,None,None,568.1168795000012,569.3017209000009,0.5122998999995616,0.5956570999987889,1.7138496999996278,1.7971979999983887,,,,,faizah_3,001,2020_Jan_10_1424,posner,3.1.5,59.93601231378876,
-0.5,0,1,left,1,3,2,0,2,0,3,4,28,2,,,,,,,,,569.6364830000002,570.1363417000011,570.8538753000012,None,570.1529506000006,570.8372135999998,571.3543933000001,None,left,1,0.34593630000017583,571.3543933000001,None,None,570.1529506000006,571.3379561000002,0.5115585999992618,0.594928999998956,1.713155999999799,1.796347399998922,,,,,faizah_3,001,2020_Jan_10_1424,posner,3.1.5,59.93601231378876,
0.5,180,1,right,2,4,2,0,2,0,3,5,29,6,,,,,,,,,571.7225665000005,572.2223888000008,572.9401992000003,None,572.2391205000004,572.9233695000003,573.4408113000009,None,right,1,0.29169419999925594,573.4408113000009,None,None,572.2391205000004,573.4239128000008,0.5115934999994352,0.5951088000001619,1.7131327999995847,1.79679170000054,,,,,faizah_3,001,2020_Jan_10_1424,posner,3.1.5,59.93601231378876,
-0.5,0,1,left,1,3,2,0,2,0,3,6,30,0,,,,,,,,,573.7585849000006,574.2586167999998,574.9762769999998,None,574.2753112000009,574.9594609000014,575.4770247000015,None,left,1,0.3114095000000816,575.4770247000015,None,None,574.2753112000009,575.4603124000005,0.5118605999996362,0.5951134999995702,1.7135412000006909,1.7970055999994656,,,,,faizah_3,001,2020_Jan_10_1424,posner,3.1.5,59.93601231378876,
-0.5,0,1,left,1,3,2,0,2,0,3,7,31,1,,,,,,,,,575.8110247000004,576.311258400001,577.0293273000007,None,576.3281556000002,577.0122250000004,577.5297363999998,None,left,1,0.4185760999989725,577.5297363999998,None,None,576.3281556000002,577.5129417999997,0.512119500001063,0.5958189000011771,1.7137838000016927,1.7973976000012044,,,,,faizah_3,001,2020_Jan_10_1424,posner,3.1.5,59.93601231378876,
0.5,180,1,right,2,4,2,0,2,0,4,0,32,6,,,,,,,,,577.9638730000006,578.4644483000011,579.1819432000011,None,578.4809846999997,579.1652746,579.6826667000005,None,right,1,0.29765520000000834,579.6826667000005,None,None,578.4809846999997,579.6660999000014,0.5116789000003337,0.5950689999990573,1.7133130000001984,1.7967871999990166,,,,,faizah_3,001,2020_Jan_10_1424,posner,3.1.5,59.93601231378876,
0.5,180,1,right,2,4,2,0,2,0,4,1,33,5,,,,,,,,,580.0006420000009,580.500512300001,581.2181455000009,None,580.5172237000006,581.2012505000002,581.7192341000009,None,right,1,0.3091703999998572,581.7192341000009,None,None,580.5172237000006,581.7020640999999,0.5117390999985219,0.5949705999992148,1.7132775999998557,1.7970989999994345,,,,,faizah_3,001,2020_Jan_10_1424,posner,3.1.5,59.93601231378876,
0.5,180,1,right,2,4,2,0,2,0,4,2,34,7,,,,,,,,,582.0538340000003,582.5532414000008,583.270934600001,None,582.5699605000009,583.2542705000014,583.7715475000005,None,right,1,0.26483489999918675,583.7715475000005,None,None,582.5699605000009,583.7549803000002,0.5114955999997619,0.5949424000009458,1.7132129000001441,1.7967069000005722,,,,,faizah_3,001,2020_Jan_10_1424,posner,3.1.5,59.93601231378876,
-0.5,0,1,left,1,3,2,0,2,0,4,3,35,1,,,,,,,,,584.0566354000002,584.5561637999999,585.2737542000013,None,584.572680700001,585.2571877000009,585.7743963000012,None,left,1,0.2780469000008452,585.7743963000012,None,None,584.572680700001,585.7577464000005,0.5114546999993763,0.5945921000002272,1.7130243999999948,1.7961998999999196,,,,,faizah_3,001,2020_Jan_10_1424,posner,3.1.5,59.93601231378876,
-0.5,180,0,left,2,3,2,0,2,0,4,4,36,4,,,,,,,,,586.0759661000011,586.5756904999998,587.2931493000015,None,586.5922076000006,587.2764772999999,587.7937977000001,None,left,1,0.45075899999937974,587.7937977000001,None,None,586.5922076000006,587.7772896000006,0.5116527999998652,0.594816400000127,1.7132361000003584,1.7966526000000158,,,,,faizah_3,001,2020_Jan_10_1424,posner,3.1.5,59.93601231378876,
0.5,0,0,right,1,4,2,0,2,0,4,5,37,3,,,,,,,,,588.2614140000005,588.7618152000014,589.4794797000013,None,588.7786628000013,589.4628704000006,589.9801505000014,None,right,1,0.35232450000148674,589.9801505000014,None,None,588.7786628000013,589.963472200001,0.5120946999995795,0.5956442999995488,1.7137490000004618,1.7972494999994524,,,,,faizah_3,001,2020_Jan_10_1424,posner,3.1.5,59.93601231378876,
-0.5,0,1,left,1,3,2,0,2,0,4,6,38,0,,,,,,,,,590.3488371000003,590.8481981000004,591.5657932000013,None,590.8648303000009,591.5489425000014,592.0663882999997,None,left,1,0.3379814999989321,592.0663882999997,None,None,590.8648303000009,592.0498064000003,0.5116331999997783,0.5947116999996069,1.7132182000004832,1.796407599998929,,,,,faizah_3,001,2020_Jan_10_1424,posner,3.1.5,59.93601231378876,
-0.5,0,1,left,1,3,2,0,2,0,4,7,39,2,,,,,,,,,592.4342940000006,592.934319,593.651882600001,None,592.9510222000008,593.6351509000015,594.1525426999997,594.6366431000006,left,1,0.5638124000015523,594.1525426999997,None,None,592.9510222000008,594.1358916000008,0.5119054000006145,0.5953191000007791,1.7134540999995806,1.7969785000004777,,,,,faizah_3,001,2020_Jan_10_1424,posner,3.1.5,59.93601231378876,
0.5,0,0,right,1,4,2,0,2,0,5,0,40,3,,,,,,,,,594.7373863000012,595.2375336000005,595.9550945999999,None,595.2542482000008,595.9384737,596.4558487000013,None,right,1,0.3727703000004112,596.4558487000013,None,None,595.2542482000008,596.4390409000007,0.51206220000131,0.5952840999998443,1.7135572000006505,1.797038500000781,,,,,faizah_3,001,2020_Jan_10_1424,posner,3.1.5,59.93601231378876,
0.5,180,1,right,2,4,2,0,2,0,5,1,41,6,,,,,,,,,596.8569919000001,597.35707,598.0746709000014,None,597.3736932000011,598.0581932000005,598.5753014000002,None,right,1,0.2611861000004865,598.5753014000002,None,None,597.3736932000011,598.5586827000006,0.5113770999996632,0.5946805999992648,1.7129784999997355,1.7963560999996844,,,,,faizah_3,001,2020_Jan_10_1424,posner,3.1.5,59.93601231378876,
-0.5,0,1,left,1,3,2,0,2,0,5,2,42,2,,,,,,,,,598.8598471000005,599.3597284000007,600.0774450000008,None,599.3764595000011,600.0606312,600.5781351000005,None,left,1,0.394145700000081,600.5781351000005,None,None,599.3764595000011,600.5612387000001,0.5116784999991069,0.5949638999991294,1.713175399998363,1.7968487999987701,,,,,faizah_3,001,2020_Jan_10_1424,posner,3.1.5,59.93601231378876,
0.5,180,1,right,2,4,2,0,2,0,5,3,43,5,,,,,,,,,600.9963642000002,601.4960499999997,602.2137037000011,None,601.512620200001,602.1970593000005,602.7144676000007,None,right,1,0.2579172000005201,602.7144676000007,None,None,601.512620200001,602.6977383000012,0.5115447999996832,0.5951461000004201,1.7132192999997642,1.7966591999993398,,,,,faizah_3,001,2020_Jan_10_1424,posner,3.1.5,59.93601231378876,
-0.5,180,0,left,2,3,2,0,2,0,5,4,44,4,,,,,,,,,602.9989612000008,603.4982949000005,604.2166441999998,None,603.5148276,604.1999673999999,604.7171104000008,None,left,1,0.4472368999995524,604.7171104000008,None,None,603.5148276,604.7005363999997,0.5112021000004461,0.5949569000003976,1.7134160000005068,1.796721400000024,,,,,faizah_3,001,2020_Jan_10_1424,posner,3.1.5,59.93601231378876,
-0.5,0,1,left,1,3,2,0,2,0,5,5,45,1,,,,,,,,,605.1854944000006,605.6851696000012,606.4027029000008,None,605.7017461000014,606.3861402000002,606.9033927,None,left,1,0.2930068999994546,606.9033927,None,None,605.7017461000014,606.8868726000001,0.511548300000868,0.5949211999995896,1.7132400999998936,1.7967215000007855,,,,,faizah_3,001,2020_Jan_10_1424,posner,3.1.5,59.93601231378876,
-0.5,0,1,left,1,3,2,0,2,0,5,6,46,0,,,,,,,,,607.2217109000012,607.7211942000013,608.438925800001,None,607.7381648999999,608.422198100001,608.9396613999997,609.4237564000014,None,0,,608.9396613999997,None,None,607.7381648999999,608.9229203000014,0.5114278000000922,0.5948796000011498,1.7131382999996276,1.7967038999995566,,,,,faizah_3,001,2020_Jan_10_1424,posner,3.1.5,59.93601231378876,
0.5,180,1,right,2,4,2,0,2,0,5,7,47,7,,,,,,,,,609.9244030999998,610.4250514000014,611.1426234999999,609.9244030999998,610.4416251000002,611.1260714,611.6432506000001,None,right,1,0.28919020000103046,611.6432506000001,None,None,610.4416251000002,611.6267794000014,0.5138050999994448,0.5972407999997813,1.7155067999992752,1.798908599999777,,,,,faizah_3,001,2020_Jan_10_1424,posner,3.1.5,59.93601231378876,
0.5,0,0,right,1,4,2,0,2,0,6,0,48,3,,,,,,,,,611.9610477000006,612.4611878000014,613.1789809000002,None,612.4780628999997,613.1620902000013,613.6794705000011,614.163447500001,None,0,,613.6794705000011,None,None,612.4780628999997,613.6627688999997,0.5120158000008814,0.5954605999995692,1.7135779000000184,1.7971471000000747,,,,,faizah_3,001,2020_Jan_10_1424,posner,3.1.5,59.93601231378876,
0.5,180,1,right,2,4,2,0,2,0,6,1,49,7,,,,,,,,,614.664395400001,615.1650422000002,615.8823268000015,614.664395400001,615.1815579000013,615.8658467000005,616.3831212000005,None,right,1,0.38926009999886446,616.3831212000005,None,None,615.1815579000013,616.3666635000009,0.513919300001362,0.5972149000008358,1.7155247000009695,1.7988562000009551,,,,,faizah_3,001,2020_Jan_10_1424,posner,3.1.5,59.93601231378876,
-0.5,0,1,left,1,3,2,0,2,0,6,2,50,2,,,,,,,,,616.8012593000003,617.3009828000013,618.018756200001,None,617.3179219000012,618.0021345000005,618.5196544999999,None,left,1,0.3086790999986988,618.5196544999999,None,None,617.3179219000012,618.5027441000002,0.5115215000005264,0.5952002000012726,1.7132648000006157,1.7969248999997944,,,,,faizah_3,001,2020_Jan_10_1424,posner,3.1.5,59.93601231378876,
-0.5,180,0,left,2,3,2,0,2,0,6,3,51,4,,,,,,,,,618.8544694000011,619.3539474000008,620.071352500001,None,619.370621600001,620.0549865000012,620.5722081000004,621.0564727000001,left,1,0.5040793999996822,620.5722081000004,None,None,619.370621600001,620.5556181000011,0.5114797999995062,0.5950090999995155,1.7131384999993315,1.7966418999985763,,,,,faizah_3,001,2020_Jan_10_1424,posner,3.1.5,59.93601231378876,
-0.5,0,1,left,1,3,2,0,2,0,6,4,52,1,,,,,,,,,621.1072241000002,621.6070969000011,622.3245947000014,None,621.6238833000007,622.3080297000015,622.8254319000007,None,left,1,0.3070466999997734,622.8254319000007,None,None,621.6238833000007,622.8085898999998,0.5115801000010833,0.5949118000007729,1.7130629000002955,1.7965519000008499,,,,,faizah_3,001,2020_Jan_10_1424,posner,3.1.5,59.93601231378876,
0.5,180,1,right,2,4,2,0,2,0,6,5,53,5,,,,,,,,,623.1604848000006,623.6599375000005,624.3775243,None,623.6765799000004,624.3609589000007,624.8783256000006,None,right,1,0.21408919999885256,624.8783256000006,None,None,623.6765799000004,624.8614347000002,0.5116331999997783,0.5950044000001071,1.71312030000081,1.7967103000009956,,,,,faizah_3,001,2020_Jan_10_1424,posner,3.1.5,59.93601231378876,
0.5,180,1,right,2,4,2,0,2,0,6,6,54,6,,,,,,,,,625.1133330000011,625.6125714999998,626.3303197000005,None,625.6291978999998,626.3135206000006,626.8308441999998,None,right,1,0.2776198999999906,626.8308441999998,None,None,625.6291978999998,626.8144214000004,0.51149980000082,0.5949583999990864,1.7133276000004116,1.7965951999995013,,,,,faizah_3,001,2020_Jan_10_1424,posner,3.1.5,59.93601231378876,
-0.5,0,1,left,1,3,2,0,2,0,6,7,55,0,,,,,,,,,627.1322270000001,627.6318775,628.3498163000004,None,627.6490279999998,628.3328959999999,628.8503983999999,None,left,1,0.2738472000000911,628.8503983999999,None,None,627.6490279999998,628.8334844000001,0.5113701999998739,0.5949749999999767,1.7129549999990559,1.7965062000002945,,,,,faizah_3,001,2020_Jan_10_1424,posner,3.1.5,59.93601231378876,
0.5,0,0,right,1,4,2,0,2,0,7,0,56,3,,,,,,,,,629.1516038999998,629.6514419000014,630.3690624999999,None,629.6682426000007,630.3524971000006,630.8697989000011,None,right,1,0.32648859999972046,630.8697989000011,None,None,629.6682426000007,630.8529923000006,0.5117049000000407,0.5951877000006789,1.7132440000004863,1.7967599000003247,,,,,faizah_3,001,2020_Jan_10_1424,posner,3.1.5,59.93601231378876,
0.5,180,1,right,2,4,2,0,2,0,7,1,57,6,,,,,,,,,631.2210504000013,631.7207656999999,632.4388012,None,631.7379426000007,632.4217774999997,632.9393826000014,None,right,1,0.2809055999987322,632.9393826000014,None,None,631.7379426000007,632.9225235000013,0.5114880000000994,0.595215500001359,1.713226100000611,1.796591600001193,,,,,faizah_3,001,2020_Jan_10_1424,posner,3.1.5,59.93601231378876,
-0.5,0,1,left,1,3,2,0,2,0,7,2,58,1,,,,,,,,,633.2405113000004,633.7402218000007,634.4580979000002,None,633.7571958999997,634.4412850999997,634.9586568000013,None,left,1,0.4458582999995997,634.9586568000013,None,None,633.7571958999997,634.9419747000011,0.5114278000000922,0.5952441000008548,1.713166800000181,1.7967914000000746,,,,,faizah_3,001,2020_Jan_10_1424,posner,3.1.5,59.93601231378876,
-0.5,0,1,left,1,3,2,0,2,0,7,3,59,2,,,,,,,,,635.4270453999998,635.9268299000014,636.6445030000014,None,635.9434419000008,636.6277351000008,637.1451011000008,None,left,1,0.3231646999993245,637.1451011000008,None,None,635.9434419000008,637.1285710000011,0.5116021000012552,0.595096700000795,1.7133281999995233,1.796524600000339,,,,,faizah_3,001,2020_Jan_10_1424,posner,3.1.5,59.93601231378876,
-0.5,180,0,left,2,3,2,0,2,0,7,4,60,4,,,,,,,,,637.4964887000006,637.9962637999997,638.7139001000014,None,638.0128682000013,638.6972584000014,639.2146181000007,None,left,1,0.3416739000003872,639.2146181000007,None,None,638.0128682000013,639.1982196999998,0.5115141000005679,0.5950190000003204,1.7134547000005114,1.7965558000014425,,,,,faizah_3,001,2020_Jan_10_1424,posner,3.1.5,59.93601231378876,
0.5,180,1,right,2,4,2,0,2,0,7,5,61,7,,,,,,,,,639.5824506000008,640.0825224,640.8001663000014,None,640.0992979000002,640.7835118000003,641.3008496000002,None,right,1,0.25560200000109035,641.3008496000002,None,None,640.0992979000002,641.2842725999999,0.5118249000006472,0.5953215999998065,1.7135502000000997,1.7967098999997688,,,,,faizah_3,001,2020_Jan_10_1424,posner,3.1.5,59.93601231378876,
-0.5,0,1,left,1,3,2,0,2,0,7,6,62,0,,,,,,,,,641.5856357000011,642.0852387000014,642.8028755000014,None,642.1020208999998,642.7861929999999,643.303553400001,None,left,1,0.29268950000005134,643.303553400001,None,None,642.1020208999998,643.2868209000007,0.511348199999702,0.5948435999998765,1.712914899999305,1.7964276000002428,,,,,faizah_3,001,2020_Jan_10_1424,posner,3.1.5,59.93601231378876,
0.5,180,1,right,2,4,2,0,2,0,7,7,63,5,,,,,,,,,643.6212909000005,644.1212381000005,644.8389403000001,None,644.1379029,644.8223362000008,645.3398506000012,None,right,1,0.3923264000004565,645.3398506000012,None,None,644.1379029,645.3230856999999,0.5117595000010624,0.5952905000012834,1.7135878000008233,1.7970232000006945,,,,,faizah_3,001,2020_Jan_10_1424,posner,3.1.5,59.93601231378876,
0.5,0,0,right,1,4,2,0,2,0,8,0,64,3,,,,,,,,,645.7578211,646.2576840000002,646.9754513000007,None,646.2743460000002,646.9585564000008,647.4760583000007,None,right,1,0.4002399000000878,647.4760583000007,None,None,646.2743460000002,647.4593046000009,0.5117212999994081,0.5949411000001419,1.713318199999776,1.7966563000009046,,,,,faizah_3,001,2020_Jan_10_1424,posner,3.1.5,59.93601231378876,
-0.5,0,1,left,1,3,2,0,2,0,8,1,65,0,,,,,,,,,647.8935233000011,648.3939667000013,649.1116106999998,None,648.4105667000003,649.0949744000009,649.6122108,None,left,1,0.27189589999943564,649.6122108,None,None,648.4105667000003,649.5954437,0.5116223000004538,0.595028400000956,1.7130437000014354,1.7967920000010054,,,,,faizah_3,001,2020_Jan_10_1424,posner,3.1.5,59.93601231378876,
-0.5,0,1,left,1,3,2,0,2,0,8,2,66,1,,,,,,,,,649.9134448000004,650.4133400999999,651.1308766000002,None,650.4301288000006,651.1143085000003,651.6317415000012,None,left,1,0.3164906999991217,651.6317415000012,None,None,650.4301288000006,651.6150828999998,0.5119856000001164,0.5953348000002734,1.7136544000004506,1.7972895000002609,,,,,faizah_3,001,2020_Jan_10_1424,posner,3.1.5,59.93601231378876,
-0.5,0,1,left,1,3,2,0,2,0,8,3,67,2,,,,,,,,,651.9667737,652.466081300001,653.1838957,None,652.482756200001,653.1671861000013,653.6846287999997,None,left,1,0.43160939999870607,653.6846287999997,None,None,652.482756200001,653.6678600000014,0.5112833000002865,0.5949027999995451,1.7130371000002924,1.7965253999991546,,,,,faizah_3,001,2020_Jan_10_1424,posner,3.1.5,59.93601231378876,
0.5,180,1,right,2,4,2,0,2,0,8,4,68,7,,,,,,,,,654.1349355000002,654.6358224000014,655.353357,None,654.6524846000011,655.3369761000013,655.8542132000002,None,right,1,0.25400619999891205,655.8542132000002,None,None,654.6524846000011,655.8375414000002,0.5122671999997692,0.5955761000004713,1.7139730999988387,1.79738449999968,,,,,faizah_3,001,2020_Jan_10_1424,posner,3.1.5,59.93601231378876,
0.5,180,1,right,2,4,2,0,2,0,8,5,69,6,,,,,,,,,656.1382678999998,656.6387391999997,657.3562600000005,None,656.6552356000011,657.3395763999997,657.8570400000008,None,right,1,0.3551317999990715,657.8570400000008,None,None,656.6552356000011,657.8401445,0.5122468999998091,0.5956252000014501,1.7136405000001105,1.797205800001393,,,,,faizah_3,001,2020_Jan_10_1424,posner,3.1.5,59.93601231378876,
-0.5,180,0,left,2,3,2,0,2,0,8,6,70,4,,,,,,,,,658.2412197000012,658.7414050000007,659.4592431000001,None,658.7581661000004,659.4424212000013,659.9598346000002,None,left,1,0.37234669999998005,659.9598346000002,None,None,658.7581661000004,659.9432271000005,0.5117628999996668,0.5952756000006048,1.7135859999998502,1.7969212000007246,,,,,faizah_3,001,2020_Jan_10_1424,posner,3.1.5,59.93601231378876,
0.5,180,1,right,2,4,2,0,2,0,8,7,71,5,,,,,,,,,660.3612682000003,660.8610415000003,661.5787282000001,None,660.8777632000001,661.5618893999999,662.0794811000014,None,right,1,0.3086610999998811,662.0794811000014,None,None,660.8777632000001,662.0626821000005,0.5115287999997236,0.5950300999993487,1.713149199998952,1.7965750000003027,,,,,faizah_3,001,2020_Jan_10_1424,posner,3.1.5,59.93601231378876,
